# z (nm)   (kJ/mol)
  0.375000, 26.792100
  0.377000, 26.721300
  0.379000, 26.651600
  0.381000, 26.545700
  0.383000, 26.443100
  0.385000, 26.359200
  0.387000, 26.253100
  0.389000, 26.143600
  0.391000, 26.041900
  0.393000, 25.926500
  0.395000, 25.810300
  0.397000, 25.700600
  0.399000, 25.588300
  0.401000, 25.469500
  0.403000, 25.346900
  0.405000, 25.222900
  0.407000, 25.097500
  0.409000, 24.962900
  0.411000, 24.826600
  0.413000, 24.699800
  0.415000, 24.575400
  0.417000, 24.445900
  0.419000, 24.308700
  0.421000, 24.167000
  0.423000, 24.029000
  0.425000, 23.899200
  0.427000, 23.770100
  0.429000, 23.636600
  0.431000, 23.505300
  0.433000, 23.376000
  0.435000, 23.245700
  0.437000, 23.115600
  0.439000, 22.983400
  0.441000, 22.852000
  0.443000, 22.723400
  0.445000, 22.596300
  0.447000, 22.467400
  0.449000, 22.341100
  0.451000, 22.216000
  0.453000, 22.091700
  0.455000, 21.970600
  0.457000, 21.848300
  0.459000, 21.725800
  0.461000, 21.604400
  0.463000, 21.484800
  0.465000, 21.370800
  0.467000, 21.257600
  0.469000, 21.142300
  0.471000, 21.028600
  0.473000, 20.916900
  0.475000, 20.808400
  0.477000, 20.700500
  0.479000, 20.592700
  0.481000, 20.483300
  0.483000, 20.371800
  0.485000, 20.260500
  0.487000, 20.147000
  0.489000, 20.031900
  0.491000, 19.918200
  0.493000, 19.802200
  0.495000, 19.684000
  0.497000, 19.565000
  0.499000, 19.442700
  0.501000, 19.314600
  0.503000, 19.182600
  0.505000, 19.047900
  0.507000, 18.907500
  0.509000, 18.761000
  0.511000, 18.612100
  0.513000, 18.460900
  0.515000, 18.302100
  0.517000, 18.137100
  0.519000, 17.964900
  0.521000, 17.784600
  0.523000, 17.599600
  0.525000, 17.406100
  0.527000, 17.203300
  0.529000, 16.994500
  0.531000, 16.777600
  0.533000, 16.547200
  0.535000, 16.302600
  0.537000, 16.051700
  0.539000, 15.796600
  0.541000, 15.530300
  0.543000, 15.251200
  0.545000, 14.963700
  0.547000, 14.665900
  0.549000, 14.357100
  0.551000, 14.041400
  0.553000, 13.716100
  0.555000, 13.378000
  0.557000, 13.036500
  0.559000, 12.686800
  0.561000, 12.318700
  0.563000, 11.945800
  0.565000, 11.571600
  0.567000, 11.191700
  0.569000, 10.805400
  0.571000, 10.414500
  0.573000, 10.018200
  0.575000,  9.618100
  0.577000,  9.222100
  0.579000,  8.826600
  0.581000,  8.428700
  0.583000,  8.030100
  0.585000,  7.629600
  0.587000,  7.230100
  0.589000,  6.834300
  0.591000,  6.445500
  0.593000,  6.064100
  0.595000,  5.687400
  0.597000,  5.316800
  0.599000,  4.950400
  0.601000,  4.589400
  0.603000,  4.234300
  0.605000,  3.886700
  0.607000,  3.549600
  0.609000,  3.221500
  0.611000,  2.903300
  0.613000,  2.592700
  0.615000,  2.292600
  0.617000,  2.004400
  0.619000,  1.727100
  0.621000,  1.462200
  0.623000,  1.206600
  0.625000,  0.961400
  0.627000,  0.727100
  0.629000,  0.503400
  0.631000,  0.291900
  0.633000,  0.092600
  0.635000, -0.095300
  0.637000, -0.271400
  0.639000, -0.435800
  0.641000, -0.588900
  0.643000, -0.729900
  0.645000, -0.859400
  0.647000, -0.977100
  0.649000, -1.083400
  0.651000, -1.179300
  0.653000, -1.264600
  0.655000, -1.339100
  0.657000, -1.403400
  0.659000, -1.457300
  0.661000, -1.500700
  0.663000, -1.534300
  0.665000, -1.558600
  0.667000, -1.573600
  0.669000, -1.580100
  0.671000, -1.579300
  0.673000, -1.569900
  0.675000, -1.551500
  0.677000, -1.525900
  0.679000, -1.493600
  0.681000, -1.454500
  0.683000, -1.409200
  0.685000, -1.358700
  0.687000, -1.303000
  0.689000, -1.242700
  0.691000, -1.178100
  0.693000, -1.109500
  0.695000, -1.036300
  0.697000, -0.959200
  0.699000, -0.879300
  0.701000, -0.796700
  0.703000, -0.713500
  0.705000, -0.629300
  0.707000, -0.543100
  0.709000, -0.456100
  0.711000, -0.368600
  0.713000, -0.281000
  0.715000, -0.193100
  0.717000, -0.105500
  0.719000, -0.018800
  0.721000,  0.067300
  0.723000,  0.152200
  0.725000,  0.235700
  0.727000,  0.318300
  0.729000,  0.399900
  0.731000,  0.479800
  0.733000,  0.557900
  0.735000,  0.634100
  0.737000,  0.708500
  0.739000,  0.780900
  0.741000,  0.851100
  0.743000,  0.919300
  0.745000,  0.985500
  0.747000,  1.049500
  0.749000,  1.111200
  0.751000,  1.170500
  0.753000,  1.227700
  0.755000,  1.282600
  0.757000,  1.335300
  0.759000,  1.385700
  0.761000,  1.433700
  0.763000,  1.479500
  0.765000,  1.523300
  0.767000,  1.564700
  0.769000,  1.603500
  0.771000,  1.640100
  0.773000,  1.674800
  0.775000,  1.707300
  0.777000,  1.737900
  0.779000,  1.766300
  0.781000,  1.792600
  0.783000,  1.816700
  0.785000,  1.838700
  0.787000,  1.858500
  0.789000,  1.876200
  0.791000,  1.891800
  0.793000,  1.905200
  0.795000,  1.916500
  0.797000,  1.925600
  0.799000,  1.932700
  0.801000,  1.937700
  0.803000,  1.940500
  0.805000,  1.941200
  0.807000,  1.939700
  0.809000,  1.936100
  0.811000,  1.930400
  0.813000,  1.922600
  0.815000,  1.912500
  0.817000,  1.900300
  0.819000,  1.886100
  0.821000,  1.869800
  0.823000,  1.851600
  0.825000,  1.831400
  0.827000,  1.809000
  0.829000,  1.784500
  0.831000,  1.758000
  0.833000,  1.729600
  0.835000,  1.699700
  0.837000,  1.667900
  0.839000,  1.634000
  0.841000,  1.598500
  0.843000,  1.561300
  0.845000,  1.522600
  0.847000,  1.482400
  0.849000,  1.440700
  0.851000,  1.397800
  0.853000,  1.353500
  0.855000,  1.308000
  0.857000,  1.261400
  0.859000,  1.213600
  0.861000,  1.164900
  0.863000,  1.115200
  0.865000,  1.065100
  0.867000,  1.014700
  0.869000,  0.963600
  0.871000,  0.912200
  0.873000,  0.860700
  0.875000,  0.809100
  0.877000,  0.757100
  0.879000,  0.705100
  0.881000,  0.653300
  0.883000,  0.601700
  0.885000,  0.550800
  0.887000,  0.500500
  0.889000,  0.450800
  0.891000,  0.402000
  0.893000,  0.353900
  0.895000,  0.306800
  0.897000,  0.260500
  0.899000,  0.215400
  0.901000,  0.171700
  0.903000,  0.129500
  0.905000,  0.088500
  0.907000,  0.048800
  0.909000,  0.010500
  0.911000, -0.026500
  0.913000, -0.061900
  0.915000, -0.095500
  0.917000, -0.127500
  0.919000, -0.158000
  0.921000, -0.186700
  0.923000, -0.213700
  0.925000, -0.239000
  0.927000, -0.262500
  0.929000, -0.284300
  0.931000, -0.304600
  0.933000, -0.323000
  0.935000, -0.339900
  0.937000, -0.355200
  0.939000, -0.368800
  0.941000, -0.380800
  0.943000, -0.391100
  0.945000, -0.399900
  0.947000, -0.407200
  0.949000, -0.413100
  0.951000, -0.417600
  0.953000, -0.420700
  0.955000, -0.422400
  0.957000, -0.422900
  0.959000, -0.422100
  0.961000, -0.420300
  0.963000, -0.417400
  0.965000, -0.413500
  0.967000, -0.408400
  0.969000, -0.402300
  0.971000, -0.395300
  0.973000, -0.387600
  0.975000, -0.379000
  0.977000, -0.369600
  0.979000, -0.359700
  0.981000, -0.349000
  0.983000, -0.337700
  0.985000, -0.326000
  0.987000, -0.313700
  0.989000, -0.300900
  0.991000, -0.287500
  0.993000, -0.273800
  0.995000, -0.259900
  0.997000, -0.245600
  0.999000, -0.231100
  1.001000, -0.216300
  1.003000, -0.201300
  1.005000, -0.186200
  1.007000, -0.171100
  1.009000, -0.155800
  1.011000, -0.140300
  1.013000, -0.124800
  1.015000, -0.109300
  1.017000, -0.093700
  1.019000, -0.078100
  1.021000, -0.062600
  1.023000, -0.047300
  1.025000, -0.032000
  1.027000, -0.016700
  1.029000, -0.001600
  1.031000,  0.013400
  1.033000,  0.028300
  1.035000,  0.043000
  1.037000,  0.057400
  1.039000,  0.071600
  1.041000,  0.085500
  1.043000,  0.099300
  1.045000,  0.112900
  1.047000,  0.126300
  1.049000,  0.139400
  1.051000,  0.152400
  1.053000,  0.165000
  1.055000,  0.177300
  1.057000,  0.189400
  1.059000,  0.201100
  1.061000,  0.212400
  1.063000,  0.223400
  1.065000,  0.234100
  1.067000,  0.244400
  1.069000,  0.254400
  1.071000,  0.264100
  1.073000,  0.273400
  1.075000,  0.282300
  1.077000,  0.290800
  1.079000,  0.299000
  1.081000,  0.306700
  1.083000,  0.314000
  1.085000,  0.320900
  1.087000,  0.327400
  1.089000,  0.333500
  1.091000,  0.339300
  1.093000,  0.344600
  1.095000,  0.349600
  1.097000,  0.354200
  1.099000,  0.358300
  1.101000,  0.362000
  1.103000,  0.365300
  1.105000,  0.368200
  1.107000,  0.370600
  1.109000,  0.372600
  1.111000,  0.374000
  1.113000,  0.375100
  1.115000,  0.375800
  1.117000,  0.376100
  1.119000,  0.375800
  1.121000,  0.375100
  1.123000,  0.374000
  1.125000,  0.372600
  1.127000,  0.370800
  1.129000,  0.368600
  1.131000,  0.365900
  1.133000,  0.362800
  1.135000,  0.359400
  1.137000,  0.355600
  1.139000,  0.351400
  1.141000,  0.347000
  1.143000,  0.342200
  1.145000,  0.337000
  1.147000,  0.331500
  1.149000,  0.325700
  1.151000,  0.319500
  1.153000,  0.313200
  1.155000,  0.306600
  1.157000,  0.299800
  1.159000,  0.292700
  1.161000,  0.285400
  1.163000,  0.277800
  1.165000,  0.270100
  1.167000,  0.262200
  1.169000,  0.254100
  1.171000,  0.246000
  1.173000,  0.237800
  1.175000,  0.229500
  1.177000,  0.221000
  1.179000,  0.212300
  1.181000,  0.203700
  1.183000,  0.195100
  1.185000,  0.186400
  1.187000,  0.177800
  1.189000,  0.169200
  1.191000,  0.160600
  1.193000,  0.151900
  1.195000,  0.143300
  1.197000,  0.134800
  1.199000,  0.126400
  1.201000,  0.118200
  1.203000,  0.110100
  1.205000,  0.102000
  1.207000,  0.094100
  1.209000,  0.086300
  1.211000,  0.078700
  1.213000,  0.071300
  1.215000,  0.064000
  1.217000,  0.056900
  1.219000,  0.050000
  1.221000,  0.043300
  1.223000,  0.036900
  1.225000,  0.030500
  1.227000,  0.024300
  1.229000,  0.018500
  1.231000,  0.012900
  1.233000,  0.007400
  1.235000,  0.002200
  1.237000, -0.002700
  1.239000, -0.007400
  1.241000, -0.011900
  1.243000, -0.016100
  1.245000, -0.020200
  1.247000, -0.024000
  1.249000, -0.027600
  1.251000, -0.030900
  1.253000, -0.034000
  1.255000, -0.037000
  1.257000, -0.039800
  1.259000, -0.042400
  1.261000, -0.044900
  1.263000, -0.047200
  1.265000, -0.049400
  1.267000, -0.051300
  1.269000, -0.053000
  1.271000, -0.054500
  1.273000, -0.055800
  1.275000, -0.056900
  1.277000, -0.057800
  1.279000, -0.058700
  1.281000, -0.059400
  1.283000, -0.060000
  1.285000, -0.060300
  1.287000, -0.060500
  1.289000, -0.060600
  1.291000, -0.060600
  1.293000, -0.060400
  1.295000, -0.060100
  1.297000, -0.059800
  1.299000, -0.059400
  1.301000, -0.058800
  1.303000, -0.058000
  1.305000, -0.057100
  1.307000, -0.056000
  1.309000, -0.054900
  1.311000, -0.053700
  1.313000, -0.052400
  1.315000, -0.051000
  1.317000, -0.049400
  1.319000, -0.047600
  1.321000, -0.045800
  1.323000, -0.043900
  1.325000, -0.041700
  1.327000, -0.039600
  1.329000, -0.037100
  1.331000, -0.034400
  1.333000, -0.031700
  1.335000, -0.029000
  1.337000, -0.026200
  1.339000, -0.023200
  1.341000, -0.020100
  1.343000, -0.016700
  1.345000, -0.013400
  1.347000, -0.009800
  1.349000, -0.006000
  1.351000, -0.002100
  1.353000,  0.001900
  1.355000,  0.006100
  1.357000,  0.010400
  1.359000,  0.014800
  1.361000,  0.019200
  1.363000,  0.023800
  1.365000,  0.028500
  1.367000,  0.033400
  1.369000,  0.038400
  1.371000,  0.043400
  1.373000,  0.048500
  1.375000,  0.053700
  1.377000,  0.059000
  1.379000,  0.064400
  1.381000,  0.069700
  1.383000,  0.075000
  1.385000,  0.080500
  1.387000,  0.086100
  1.389000,  0.091200
  1.391000,  0.096100
  1.393000,  0.100700
  1.395000,  0.105100
  1.397000,  0.109500
  1.399000,  0.113700
