# z (nm)   (kJ/mol)
  0.469000, 21.528300
  0.471000, 21.049300
  0.475000, 20.615700
  0.477000, 20.196100
  0.479000, 19.760800
  0.481000, 19.331500
  0.483000, 18.886300
  0.485000, 18.437600
  0.487000, 17.999400
  0.489000, 17.572900
  0.491000, 17.141500
  0.493000, 16.710400
  0.495000, 16.284700
  0.497000, 15.865900
  0.499000, 15.447300
  0.501000, 15.029900
  0.503000, 14.621400
  0.505000, 14.222400
  0.507000, 13.832400
  0.509000, 13.451600
  0.511000, 13.081400
  0.513000, 12.718100
  0.515000, 12.357800
  0.517000, 12.006400
  0.519000, 11.668500
  0.521000, 11.340400
  0.523000, 11.022700
  0.525000, 10.717100
  0.527000, 10.424300
  0.529000, 10.144600
  0.531000,  9.877700
  0.533000,  9.622500
  0.535000,  9.377500
  0.537000,  9.143200
  0.539000,  8.919800
  0.541000,  8.708200
  0.543000,  8.509900
  0.545000,  8.318100
  0.547000,  8.129600
  0.549000,  7.951100
  0.551000,  7.778000
  0.553000,  7.607800
  0.555000,  7.445000
  0.557000,  7.287700
  0.559000,  7.133700
  0.561000,  6.980900
  0.563000,  6.832300
  0.565000,  6.687900
  0.567000,  6.542200
  0.569000,  6.398500
  0.571000,  6.256700
  0.573000,  6.114600
  0.575000,  5.977200
  0.577000,  5.843700
  0.579000,  5.707000
  0.581000,  5.570900
  0.583000,  5.438400
  0.585000,  5.302400
  0.587000,  5.161600
  0.589000,  5.021300
  0.591000,  4.880100
  0.593000,  4.739700
  0.595000,  4.596500
  0.597000,  4.449800
  0.599000,  4.305300
  0.601000,  4.158100
  0.603000,  4.009900
  0.605000,  3.856600
  0.607000,  3.692300
  0.609000,  3.518900
  0.611000,  3.342900
  0.613000,  3.159600
  0.615000,  2.966600
  0.617000,  2.758200
  0.619000,  2.530900
  0.621000,  2.288100
  0.623000,  2.033100
  0.625000,  1.776000
  0.627000,  1.511200
  0.629000,  1.245100
  0.631000,  0.983800
  0.633000,  0.722000
  0.635000,  0.457900
  0.637000,  0.192100
  0.639000, -0.068900
  0.641000, -0.324400
  0.643000, -0.575900
  0.645000, -0.820800
  0.647000, -1.059900
  0.649000, -1.291600
  0.651000, -1.515600
  0.653000, -1.730800
  0.655000, -1.937400
  0.657000, -2.138000
  0.659000, -2.329400
  0.661000, -2.510800
  0.663000, -2.682900
  0.665000, -2.846300
  0.667000, -3.001000
  0.669000, -3.145300
  0.671000, -3.279100
  0.673000, -3.403200
  0.675000, -3.518400
  0.677000, -3.624400
  0.679000, -3.720500
  0.681000, -3.807200
  0.683000, -3.885200
  0.685000, -3.954500
  0.687000, -4.015200
  0.689000, -4.067700
  0.691000, -4.112200
  0.693000, -4.148300
  0.695000, -4.177600
  0.697000, -4.200200
  0.699000, -4.215800
  0.701000, -4.225600
  0.703000, -4.228600
  0.705000, -4.225000
  0.707000, -4.217700
  0.709000, -4.206800
  0.711000, -4.192000
  0.713000, -4.173500
  0.715000, -4.151500
  0.717000, -4.127200
  0.719000, -4.100300
  0.721000, -4.070000
  0.723000, -4.038600
  0.725000, -4.007400
  0.727000, -3.975400
  0.729000, -3.943100
  0.731000, -3.910400
  0.733000, -3.878600
  0.735000, -3.847300
  0.737000, -3.815700
  0.739000, -3.784700
  0.741000, -3.754700
  0.743000, -3.725700
  0.745000, -3.698000
  0.747000, -3.672000
  0.749000, -3.647200
  0.751000, -3.622900
  0.753000, -3.599800
  0.755000, -3.578000
  0.757000, -3.556600
  0.759000, -3.536000
  0.761000, -3.516100
  0.763000, -3.496500
  0.765000, -3.477200
  0.767000, -3.458100
  0.769000, -3.438900
  0.771000, -3.419200
  0.773000, -3.398900
  0.775000, -3.377800
  0.777000, -3.356000
  0.779000, -3.333000
  0.781000, -3.308600
  0.783000, -3.282800
  0.785000, -3.255300
  0.787000, -3.226000
  0.789000, -3.194900
  0.791000, -3.162000
  0.793000, -3.127000
  0.795000, -3.089500
  0.797000, -3.050100
  0.799000, -3.008300
  0.801000, -2.964300
  0.803000, -2.918200
  0.805000, -2.870500
  0.807000, -2.820800
  0.809000, -2.769100
  0.811000, -2.715600
  0.813000, -2.660100
  0.815000, -2.603200
  0.817000, -2.544500
  0.819000, -2.484800
  0.821000, -2.424200
  0.823000, -2.362200
  0.825000, -2.299600
  0.827000, -2.236800
  0.829000, -2.173700
  0.831000, -2.109800
  0.833000, -2.045900
  0.835000, -1.982400
  0.837000, -1.919300
  0.839000, -1.856900
  0.841000, -1.795400
  0.843000, -1.734600
  0.845000, -1.674300
  0.847000, -1.615100
  0.849000, -1.557800
  0.851000, -1.502200
  0.853000, -1.448100
  0.855000, -1.395500
  0.857000, -1.345300
  0.859000, -1.297600
  0.861000, -1.251900
  0.863000, -1.208100
  0.865000, -1.166100
  0.867000, -1.127100
  0.869000, -1.090500
  0.871000, -1.055800
  0.873000, -1.023400
  0.875000, -0.993200
  0.877000, -0.965300
  0.879000, -0.940000
  0.881000, -0.917100
  0.883000, -0.896500
  0.885000, -0.877900
  0.887000, -0.861500
  0.889000, -0.847200
  0.891000, -0.834600
  0.893000, -0.824200
  0.895000, -0.815500
  0.897000, -0.808500
  0.899000, -0.803300
  0.901000, -0.799400
  0.903000, -0.797100
  0.905000, -0.796100
  0.907000, -0.796400
  0.909000, -0.797800
  0.911000, -0.800300
  0.913000, -0.804000
  0.915000, -0.808600
  0.917000, -0.814000
  0.919000, -0.820100
  0.921000, -0.826900
  0.923000, -0.834000
  0.925000, -0.841500
  0.927000, -0.849600
  0.929000, -0.858100
  0.931000, -0.867100
  0.933000, -0.876500
  0.935000, -0.885800
  0.937000, -0.895100
  0.939000, -0.904400
  0.941000, -0.913700
  0.943000, -0.923200
  0.945000, -0.932600
  0.947000, -0.941700
  0.949000, -0.950900
  0.951000, -0.959600
  0.953000, -0.967900
  0.955000, -0.976200
  0.957000, -0.984300
  0.959000, -0.992100
  0.961000, -0.999700
  0.963000, -1.007000
  0.965000, -1.013800
  0.967000, -1.020200
  0.969000, -1.026300
  0.971000, -1.031900
  0.973000, -1.036800
  0.975000, -1.041100
  0.977000, -1.045400
  0.979000, -1.049600
  0.981000, -1.052900
  0.983000, -1.055600
  0.985000, -1.057900
  0.987000, -1.059600
  0.989000, -1.060600
  0.991000, -1.061000
  0.993000, -1.061100
  0.995000, -1.060900
  0.997000, -1.059900
  0.999000, -1.058700
  1.001000, -1.057100
  1.003000, -1.054800
  1.005000, -1.051800
  1.007000, -1.048300
  1.009000, -1.044500
  1.011000, -1.039900
  1.013000, -1.034400
  1.015000, -1.028700
  1.017000, -1.022600
  1.019000, -1.016200
  1.021000, -1.009500
  1.023000, -1.002300
  1.025000, -0.994600
  1.027000, -0.986700
  1.029000, -0.978600
  1.031000, -0.970200
  1.033000, -0.961100
  1.035000, -0.951800
  1.037000, -0.942500
  1.039000, -0.933000
  1.041000, -0.923100
  1.043000, -0.912700
  1.045000, -0.902100
  1.047000, -0.891600
  1.049000, -0.881200
  1.051000, -0.870700
  1.053000, -0.859600
  1.055000, -0.848500
  1.057000, -0.837500
  1.059000, -0.826400
  1.061000, -0.815200
  1.063000, -0.803800
  1.065000, -0.792700
  1.067000, -0.781500
  1.069000, -0.770500
  1.071000, -0.759500
  1.073000, -0.748400
  1.075000, -0.737300
  1.077000, -0.726300
  1.079000, -0.715200
  1.081000, -0.704400
  1.083000, -0.693700
  1.085000, -0.683000
  1.087000, -0.672500
  1.089000, -0.662100
  1.091000, -0.651800
  1.093000, -0.641500
  1.095000, -0.631200
  1.097000, -0.621100
  1.099000, -0.611000
  1.101000, -0.601000
  1.103000, -0.591100
  1.105000, -0.581200
  1.107000, -0.571300
  1.109000, -0.561600
  1.111000, -0.552100
  1.113000, -0.542500
  1.115000, -0.533100
  1.117000, -0.523800
  1.119000, -0.514400
  1.121000, -0.505000
  1.123000, -0.495600
  1.125000, -0.486400
  1.127000, -0.477200
  1.129000, -0.468200
  1.131000, -0.459200
  1.133000, -0.450200
  1.135000, -0.441400
  1.137000, -0.432700
  1.139000, -0.424000
  1.141000, -0.415200
  1.143000, -0.406500
  1.145000, -0.397900
  1.147000, -0.389300
  1.149000, -0.380700
  1.151000, -0.372000
  1.153000, -0.363500
  1.155000, -0.355200
  1.157000, -0.347100
  1.159000, -0.338900
  1.161000, -0.330900
  1.163000, -0.322900
  1.165000, -0.314900
  1.167000, -0.307000
  1.169000, -0.299400
  1.171000, -0.291800
  1.173000, -0.284400
  1.175000, -0.277100
  1.177000, -0.269800
  1.179000, -0.262700
  1.181000, -0.255600
  1.183000, -0.248600
  1.185000, -0.241800
  1.187000, -0.235000
  1.189000, -0.228600
  1.191000, -0.222300
  1.193000, -0.216000
  1.195000, -0.209800
  1.197000, -0.203800
  1.199000, -0.198000
  1.201000, -0.192300
  1.203000, -0.186800
  1.205000, -0.181400
  1.207000, -0.176100
  1.209000, -0.170700
  1.211000, -0.165600
  1.213000, -0.160700
  1.215000, -0.155900
  1.217000, -0.151100
  1.219000, -0.146300
  1.221000, -0.141700
  1.223000, -0.137100
  1.225000, -0.132600
  1.227000, -0.128200
  1.229000, -0.123900
  1.231000, -0.119700
  1.233000, -0.115500
  1.235000, -0.111500
  1.237000, -0.107400
  1.239000, -0.103300
  1.241000, -0.099300
  1.243000, -0.095500
  1.245000, -0.091500
  1.247000, -0.087800
  1.249000, -0.084200
  1.251000, -0.080500
  1.253000, -0.076700
  1.255000, -0.072900
  1.257000, -0.069100
  1.259000, -0.065300
  1.261000, -0.061500
  1.263000, -0.057600
  1.265000, -0.053900
  1.267000, -0.050100
  1.269000, -0.046300
  1.271000, -0.042500
  1.273000, -0.038900
  1.275000, -0.035100
  1.277000, -0.031400
  1.279000, -0.027700
  1.281000, -0.024100
  1.283000, -0.020500
  1.285000, -0.017000
  1.287000, -0.013400
  1.289000, -0.009900
  1.291000, -0.006400
  1.293000, -0.003000
  1.295000,  0.000500
  1.297000,  0.003900
  1.299000,  0.007300
  1.301000,  0.010600
  1.303000,  0.013900
  1.305000,  0.017100
  1.307000,  0.020300
  1.309000,  0.023400
  1.311000,  0.026500
  1.313000,  0.029500
  1.315000,  0.032400
  1.317000,  0.035200
  1.319000,  0.038100
  1.321000,  0.040900
  1.323000,  0.043600
  1.325000,  0.046400
  1.327000,  0.049100
  1.329000,  0.051700
  1.331000,  0.054500
  1.333000,  0.057400
  1.335000,  0.060300
  1.337000,  0.063100
  1.339000,  0.065800
  1.341000,  0.068700
  1.343000,  0.071700
  1.345000,  0.074700
  1.347000,  0.077600
  1.349000,  0.080700
  1.351000,  0.083800
  1.353000,  0.087100
  1.355000,  0.090600
  1.357000,  0.093900
  1.359000,  0.097400
  1.361000,  0.100900
  1.363000,  0.104700
  1.365000,  0.108500
  1.367000,  0.112500
  1.369000,  0.116600
  1.371000,  0.120700
  1.373000,  0.125100
  1.375000,  0.129600
  1.377000,  0.134100
  1.379000,  0.138600
  1.381000,  0.143400
  1.383000,  0.148500
  1.385000,  0.153600
  1.387000,  0.158300
  1.389000,  0.163300
  1.391000,  0.168100
  1.393000,  0.172500
  1.395000,  0.177100
  1.397000,  0.181700
  1.399000,  0.185700
