# z (nm)   (kJ/mol)
  0.411000, 14.432800
  0.413000, 14.227600
  0.415000, 14.015800
  0.417000, 13.802900
  0.419000, 13.595700
  0.421000, 13.384200
  0.423000, 13.169000
  0.425000, 12.957200
  0.427000, 12.731300
  0.429000, 12.496300
  0.431000, 12.264400
  0.433000, 12.029400
  0.435000, 11.789700
  0.437000, 11.539800
  0.439000, 11.287200
  0.441000, 11.035800
  0.443000, 10.783000
  0.445000, 10.533100
  0.447000, 10.282100
  0.449000, 10.031300
  0.451000,  9.784800
  0.453000,  9.536700
  0.455000,  9.294500
  0.457000,  9.059700
  0.459000,  8.820300
  0.461000,  8.582700
  0.463000,  8.360900
  0.465000,  8.163400
  0.467000,  7.972100
  0.469000,  7.782800
  0.471000,  7.606000
  0.473000,  7.431800
  0.475000,  7.262400
  0.477000,  7.096300
  0.479000,  6.932200
  0.481000,  6.766200
  0.483000,  6.593100
  0.485000,  6.415700
  0.487000,  6.234200
  0.489000,  6.056600
  0.491000,  5.881600
  0.493000,  5.697700
  0.495000,  5.507000
  0.497000,  5.318800
  0.499000,  5.135400
  0.501000,  4.950400
  0.503000,  4.764200
  0.505000,  4.587200
  0.507000,  4.414900
  0.509000,  4.242100
  0.511000,  4.072700
  0.513000,  3.907700
  0.515000,  3.750200
  0.517000,  3.601700
  0.519000,  3.457800
  0.521000,  3.316900
  0.523000,  3.178900
  0.525000,  3.043700
  0.527000,  2.914400
  0.529000,  2.788000
  0.531000,  2.661500
  0.533000,  2.536600
  0.535000,  2.415800
  0.537000,  2.298100
  0.539000,  2.183500
  0.541000,  2.074600
  0.543000,  1.971700
  0.545000,  1.874600
  0.547000,  1.784700
  0.549000,  1.702300
  0.551000,  1.626700
  0.553000,  1.559100
  0.555000,  1.499800
  0.557000,  1.447700
  0.559000,  1.401300
  0.561000,  1.361600
  0.563000,  1.328200
  0.565000,  1.299700
  0.567000,  1.276200
  0.569000,  1.256700
  0.571000,  1.240500
  0.573000,  1.227900
  0.575000,  1.217600
  0.577000,  1.210200
  0.579000,  1.203500
  0.581000,  1.195300
  0.583000,  1.185900
  0.585000,  1.174700
  0.587000,  1.162600
  0.589000,  1.148400
  0.591000,  1.129700
  0.593000,  1.108900
  0.595000,  1.084800
  0.597000,  1.047500
  0.599000,  0.999100
  0.601000,  0.948400
  0.603000,  0.888300
  0.605000,  0.816600
  0.607000,  0.737300
  0.609000,  0.651800
  0.611000,  0.565000
  0.613000,  0.468200
  0.615000,  0.364100
  0.617000,  0.258900
  0.619000,  0.152500
  0.621000,  0.048000
  0.623000, -0.060300
  0.625000, -0.171100
  0.627000, -0.282200
  0.629000, -0.393900
  0.631000, -0.506100
  0.633000, -0.619800
  0.635000, -0.732900
  0.637000, -0.844000
  0.639000, -0.954700
  0.641000, -1.063100
  0.643000, -1.167600
  0.645000, -1.271000
  0.647000, -1.372800
  0.649000, -1.471200
  0.651000, -1.568200
  0.653000, -1.661000
  0.655000, -1.748600
  0.657000, -1.833800
  0.659000, -1.917700
  0.661000, -1.996400
  0.663000, -2.068800
  0.665000, -2.136200
  0.667000, -2.198100
  0.669000, -2.255400
  0.671000, -2.307200
  0.673000, -2.353100
  0.675000, -2.393600
  0.677000, -2.428200
  0.679000, -2.457300
  0.681000, -2.481700
  0.683000, -2.500300
  0.685000, -2.512800
  0.687000, -2.520200
  0.689000, -2.521900
  0.691000, -2.518300
  0.693000, -2.510100
  0.695000, -2.496500
  0.697000, -2.477900
  0.699000, -2.455200
  0.701000, -2.428900
  0.703000, -2.398800
  0.705000, -2.364800
  0.707000, -2.327700
  0.709000, -2.287300
  0.711000, -2.243500
  0.713000, -2.196800
  0.715000, -2.147800
  0.717000, -2.097000
  0.719000, -2.044700
  0.721000, -1.991100
  0.723000, -1.935600
  0.725000, -1.879000
  0.727000, -1.821400
  0.729000, -1.762800
  0.731000, -1.703800
  0.733000, -1.644100
  0.735000, -1.584700
  0.737000, -1.525400
  0.739000, -1.465900
  0.741000, -1.406800
  0.743000, -1.348400
  0.745000, -1.290600
  0.747000, -1.233400
  0.749000, -1.176700
  0.751000, -1.120800
  0.753000, -1.065900
  0.755000, -1.011700
  0.757000, -0.958400
  0.759000, -0.906000
  0.761000, -0.854600
  0.763000, -0.803900
  0.765000, -0.753900
  0.767000, -0.704900
  0.769000, -0.656500
  0.771000, -0.608900
  0.773000, -0.562100
  0.775000, -0.516100
  0.777000, -0.470900
  0.779000, -0.426300
  0.781000, -0.382400
  0.783000, -0.339100
  0.785000, -0.296300
  0.787000, -0.254100
  0.789000, -0.212500
  0.791000, -0.171300
  0.793000, -0.130600
  0.795000, -0.090500
  0.797000, -0.050900
  0.799000, -0.011700
  0.801000,  0.026800
  0.803000,  0.064700
  0.805000,  0.102300
  0.807000,  0.139400
  0.809000,  0.175800
  0.811000,  0.211400
  0.813000,  0.246700
  0.815000,  0.281200
  0.817000,  0.314900
  0.819000,  0.347500
  0.821000,  0.379200
  0.823000,  0.410000
  0.825000,  0.439400
  0.827000,  0.467600
  0.829000,  0.495100
  0.831000,  0.521400
  0.833000,  0.546500
  0.835000,  0.570200
  0.837000,  0.592600
  0.839000,  0.613400
  0.841000,  0.632900
  0.843000,  0.651000
  0.845000,  0.667300
  0.847000,  0.682000
  0.849000,  0.695100
  0.851000,  0.706300
  0.853000,  0.715600
  0.855000,  0.723200
  0.857000,  0.729100
  0.859000,  0.733100
  0.861000,  0.735300
  0.863000,  0.735800
  0.865000,  0.734300
  0.867000,  0.731000
  0.869000,  0.725800
  0.871000,  0.718700
  0.873000,  0.710100
  0.875000,  0.699800
  0.877000,  0.687700
  0.879000,  0.674000
  0.881000,  0.658700
  0.883000,  0.641800
  0.885000,  0.623400
  0.887000,  0.603500
  0.889000,  0.582300
  0.891000,  0.559800
  0.893000,  0.536200
  0.895000,  0.511700
  0.897000,  0.486400
  0.899000,  0.460300
  0.901000,  0.433100
  0.903000,  0.404700
  0.905000,  0.375600
  0.907000,  0.346300
  0.909000,  0.316600
  0.911000,  0.286500
  0.913000,  0.256100
  0.915000,  0.225300
  0.917000,  0.194500
  0.919000,  0.163400
  0.921000,  0.132500
  0.923000,  0.101800
  0.925000,  0.071200
  0.927000,  0.040800
  0.929000,  0.010700
  0.931000, -0.018600
  0.933000, -0.047600
  0.935000, -0.076100
  0.937000, -0.104100
  0.939000, -0.131400
  0.941000, -0.158100
  0.943000, -0.184500
  0.945000, -0.210000
  0.947000, -0.234500
  0.949000, -0.258100
  0.951000, -0.281000
  0.953000, -0.303000
  0.955000, -0.323900
  0.957000, -0.344000
  0.959000, -0.363400
  0.961000, -0.381700
  0.963000, -0.399000
  0.965000, -0.415400
  0.967000, -0.430900
  0.969000, -0.445400
  0.971000, -0.458800
  0.973000, -0.471500
  0.975000, -0.483300
  0.977000, -0.494000
  0.979000, -0.504000
  0.981000, -0.513100
  0.983000, -0.521200
  0.985000, -0.528400
  0.987000, -0.534700
  0.989000, -0.540300
  0.991000, -0.545200
  0.993000, -0.549200
  0.995000, -0.552300
  0.997000, -0.554600
  0.999000, -0.556300
  1.001000, -0.557300
  1.003000, -0.557600
  1.005000, -0.557400
  1.007000, -0.556300
  1.009000, -0.554400
  1.011000, -0.552100
  1.013000, -0.549300
  1.015000, -0.546000
  1.017000, -0.541800
  1.019000, -0.537100
  1.021000, -0.532100
  1.023000, -0.526600
  1.025000, -0.520500
  1.027000, -0.513700
  1.029000, -0.506500
  1.031000, -0.499000
  1.033000, -0.491100
  1.035000, -0.482500
  1.037000, -0.473600
  1.039000, -0.464400
  1.041000, -0.454700
  1.043000, -0.444600
  1.045000, -0.434200
  1.047000, -0.423500
  1.049000, -0.412300
  1.051000, -0.400800
  1.053000, -0.389100
  1.055000, -0.377200
  1.057000, -0.365100
  1.059000, -0.352500
  1.061000, -0.339800
  1.063000, -0.326800
  1.065000, -0.313600
  1.067000, -0.300300
  1.069000, -0.286800
  1.071000, -0.273300
  1.073000, -0.259400
  1.075000, -0.245400
  1.077000, -0.231500
  1.079000, -0.217500
  1.081000, -0.203500
  1.083000, -0.189400
  1.085000, -0.175100
  1.087000, -0.161000
  1.089000, -0.146900
  1.091000, -0.132800
  1.093000, -0.118800
  1.095000, -0.104800
  1.097000, -0.091100
  1.099000, -0.077400
  1.101000, -0.063900
  1.103000, -0.050700
  1.105000, -0.037600
  1.107000, -0.024800
  1.109000, -0.012300
  1.111000, -0.000200
  1.113000,  0.011800
  1.115000,  0.023500
  1.117000,  0.034800
  1.119000,  0.045800
  1.121000,  0.056400
  1.123000,  0.066600
  1.125000,  0.076400
  1.127000,  0.085900
  1.129000,  0.094900
  1.131000,  0.103600
  1.133000,  0.111800
  1.135000,  0.119600
  1.137000,  0.127000
  1.139000,  0.134000
  1.141000,  0.140400
  1.143000,  0.146400
  1.145000,  0.151900
  1.147000,  0.157000
  1.149000,  0.161600
  1.151000,  0.165800
  1.153000,  0.169400
  1.155000,  0.172700
  1.157000,  0.175400
  1.159000,  0.177600
  1.161000,  0.179500
  1.163000,  0.180900
  1.165000,  0.182000
  1.167000,  0.182700
  1.169000,  0.182900
  1.171000,  0.182700
  1.173000,  0.182200
  1.175000,  0.181400
  1.177000,  0.180200
  1.179000,  0.178700
  1.181000,  0.176800
  1.183000,  0.174700
  1.185000,  0.172300
  1.187000,  0.169700
  1.189000,  0.166700
  1.191000,  0.163500
  1.193000,  0.160200
  1.195000,  0.156600
  1.197000,  0.152700
  1.199000,  0.148800
  1.201000,  0.144700
  1.203000,  0.140400
  1.205000,  0.136100
  1.207000,  0.131600
  1.209000,  0.127100
  1.211000,  0.122500
  1.213000,  0.117900
  1.215000,  0.113300
  1.217000,  0.108600
  1.219000,  0.103700
  1.221000,  0.098900
  1.223000,  0.093900
  1.225000,  0.089000
  1.227000,  0.084300
  1.229000,  0.079500
  1.231000,  0.074700
  1.233000,  0.069900
  1.235000,  0.065200
  1.237000,  0.060600
  1.239000,  0.055900
  1.241000,  0.051200
  1.243000,  0.046500
  1.245000,  0.041900
  1.247000,  0.037400
  1.249000,  0.032900
  1.251000,  0.028400
  1.253000,  0.023900
  1.255000,  0.019500
  1.257000,  0.015300
  1.259000,  0.011200
  1.261000,  0.007100
  1.263000,  0.003100
  1.265000, -0.001000
  1.267000, -0.004900
  1.269000, -0.008700
  1.271000, -0.012500
  1.273000, -0.016200
  1.275000, -0.019900
  1.277000, -0.023400
  1.279000, -0.026800
  1.281000, -0.030300
  1.283000, -0.033700
  1.285000, -0.037100
  1.287000, -0.040300
  1.289000, -0.043400
  1.291000, -0.046500
  1.293000, -0.049500
  1.295000, -0.052400
  1.297000, -0.055200
  1.299000, -0.057800
  1.301000, -0.060100
  1.303000, -0.062500
  1.305000, -0.064800
  1.307000, -0.066900
  1.309000, -0.068800
  1.311000, -0.070600
  1.313000, -0.072200
  1.315000, -0.073400
  1.317000, -0.074600
  1.319000, -0.075700
  1.321000, -0.076500
  1.323000, -0.077100
  1.325000, -0.077400
  1.327000, -0.077400
  1.329000, -0.077300
  1.331000, -0.076900
  1.333000, -0.076200
  1.335000, -0.075500
  1.337000, -0.074500
  1.339000, -0.073200
  1.341000, -0.071400
  1.343000, -0.069500
  1.345000, -0.067300
  1.347000, -0.064800
  1.349000, -0.061900
  1.351000, -0.058800
  1.353000, -0.055600
  1.355000, -0.052200
  1.357000, -0.048500
  1.359000, -0.044400
  1.361000, -0.040200
  1.363000, -0.035900
  1.365000, -0.031200
  1.367000, -0.026400
  1.369000, -0.021200
  1.371000, -0.015800
  1.373000, -0.010300
  1.375000, -0.004500
  1.377000,  0.001400
  1.379000,  0.007300
  1.381000,  0.013800
  1.383000,  0.020000
  1.385000,  0.025900
  1.387000,  0.032100
  1.389000,  0.038300
  1.391000,  0.044300
  1.393000,  0.050000
  1.395000,  0.055500
  1.397000,  0.060900
  1.399000,  0.065900
