# z (nm)   (kJ/mol)
  0.373000, 19.995100
  0.375000, 19.755000
  0.377000, 19.503700
  0.379000, 19.191500
  0.381000, 18.883000
  0.383000, 18.559700
  0.385000, 18.192200
  0.387000, 17.807000
  0.389000, 17.406400
  0.391000, 16.984900
  0.393000, 16.537300
  0.395000, 16.066500
  0.397000, 15.573100
  0.399000, 15.055800
  0.401000, 14.514900
  0.403000, 13.947000
  0.405000, 13.354800
  0.407000, 12.735200
  0.409000, 12.087400
  0.411000, 11.417000
  0.413000, 10.719900
  0.415000,  9.999400
  0.417000,  9.249700
  0.419000,  8.473300
  0.421000,  7.675300
  0.423000,  6.852500
  0.425000,  6.007200
  0.427000,  5.138300
  0.429000,  4.256200
  0.431000,  3.355800
  0.433000,  2.430200
  0.435000,  1.481400
  0.437000,  0.507200
  0.439000, -0.476000
  0.441000, -1.465200
  0.443000, -2.464400
  0.445000, -3.470900
  0.447000, -4.491600
  0.449000, -5.518600
  0.451000, -6.546800
  0.453000, -7.575200
  0.455000, -8.588100
  0.457000, -9.594300
  0.459000,-10.608800
  0.461000,-11.619400
  0.463000,-12.603700
  0.465000,-13.553700
  0.467000,-14.486400
  0.469000,-15.400100
  0.471000,-16.279700
  0.473000,-17.121600
  0.475000,-17.915200
  0.477000,-18.670500
  0.479000,-19.395300
  0.481000,-20.074200
  0.483000,-20.694000
  0.485000,-21.259100
  0.487000,-21.781700
  0.489000,-22.262100
  0.491000,-22.700700
  0.493000,-23.098800
  0.495000,-23.457800
  0.497000,-23.777900
  0.499000,-24.061700
  0.501000,-24.311700
  0.503000,-24.531100
  0.505000,-24.721900
  0.507000,-24.884200
  0.509000,-25.017300
  0.511000,-25.122800
  0.513000,-25.201400
  0.515000,-25.254200
  0.517000,-25.281700
  0.519000,-25.281800
  0.521000,-25.254500
  0.523000,-25.200100
  0.525000,-25.116300
  0.527000,-25.004900
  0.529000,-24.859300
  0.531000,-24.675300
  0.533000,-24.453700
  0.535000,-24.194900
  0.537000,-23.903500
  0.539000,-23.580600
  0.541000,-23.210000
  0.543000,-22.785900
  0.545000,-22.314500
  0.547000,-21.802400
  0.549000,-21.253000
  0.551000,-20.655300
  0.553000,-20.013500
  0.555000,-19.337900
  0.557000,-18.631800
  0.559000,-17.907100
  0.561000,-17.172200
  0.563000,-16.421600
  0.565000,-15.663400
  0.567000,-14.898300
  0.569000,-14.133300
  0.571000,-13.385100
  0.573000,-12.625100
  0.575000,-11.868200
  0.577000,-11.160400
  0.579000,-10.499700
  0.581000, -9.887100
  0.583000, -9.355300
  0.585000, -8.923500
  0.587000, -8.590100
  0.589000, -8.363500
  0.591000, -8.214300
  0.593000, -8.078800
  0.595000, -7.969800
  0.597000, -7.900000
  0.599000, -7.852500
  0.601000, -7.843200
  0.603000, -7.817100
  0.605000, -7.755200
  0.607000, -7.691200
  0.609000, -7.623900
  0.611000, -7.519000
  0.613000, -7.386300
  0.615000, -7.245800
  0.617000, -7.086700
  0.619000, -6.921800
  0.621000, -6.760000
  0.623000, -6.604500
  0.625000, -6.444500
  0.627000, -6.275000
  0.629000, -6.104400
  0.631000, -5.940000
  0.633000, -5.782100
  0.635000, -5.623400
  0.637000, -5.461200
  0.639000, -5.302200
  0.641000, -5.149500
  0.643000, -5.003000
  0.645000, -4.858400
  0.647000, -4.719800
  0.649000, -4.583500
  0.651000, -4.448100
  0.653000, -4.319800
  0.655000, -4.195600
  0.657000, -4.076900
  0.659000, -3.964600
  0.661000, -3.852600
  0.663000, -3.742100
  0.665000, -3.635400
  0.667000, -3.532000
  0.669000, -3.433100
  0.671000, -3.336600
  0.673000, -3.241300
  0.675000, -3.151700
  0.677000, -3.066700
  0.679000, -2.983200
  0.681000, -2.902300
  0.683000, -2.825100
  0.685000, -2.750800
  0.687000, -2.679000
  0.689000, -2.610400
  0.691000, -2.543000
  0.693000, -2.480700
  0.695000, -2.425200
  0.697000, -2.372700
  0.699000, -2.321700
  0.701000, -2.274000
  0.703000, -2.229300
  0.705000, -2.187300
  0.707000, -2.148900
  0.709000, -2.112900
  0.711000, -2.077800
  0.713000, -2.044500
  0.715000, -2.014400
  0.717000, -1.986100
  0.719000, -1.959500
  0.721000, -1.934300
  0.723000, -1.911400
  0.725000, -1.890600
  0.727000, -1.869700
  0.729000, -1.850200
  0.731000, -1.832700
  0.733000, -1.815900
  0.735000, -1.798900
  0.737000, -1.782200
  0.739000, -1.765800
  0.741000, -1.748900
  0.743000, -1.731900
  0.745000, -1.715300
  0.747000, -1.698700
  0.749000, -1.682100
  0.751000, -1.664600
  0.753000, -1.645900
  0.755000, -1.626800
  0.757000, -1.606500
  0.759000, -1.585300
  0.761000, -1.563000
  0.763000, -1.539500
  0.765000, -1.514200
  0.767000, -1.487100
  0.769000, -1.459000
  0.771000, -1.429900
  0.773000, -1.399100
  0.775000, -1.366800
  0.777000, -1.332800
  0.779000, -1.297400
  0.781000, -1.260900
  0.783000, -1.223100
  0.785000, -1.184500
  0.787000, -1.144100
  0.789000, -1.102300
  0.791000, -1.060900
  0.793000, -1.018500
  0.795000, -0.975100
  0.797000, -0.931300
  0.799000, -0.885900
  0.801000, -0.839900
  0.803000, -0.794600
  0.805000, -0.749500
  0.807000, -0.704400
  0.809000, -0.659400
  0.811000, -0.614700
  0.813000, -0.570900
  0.815000, -0.528100
  0.817000, -0.485900
  0.819000, -0.444400
  0.821000, -0.403800
  0.823000, -0.364000
  0.825000, -0.325100
  0.827000, -0.287300
  0.829000, -0.251600
  0.831000, -0.218100
  0.833000, -0.185300
  0.835000, -0.153800
  0.837000, -0.124600
  0.839000, -0.097200
  0.841000, -0.071500
  0.843000, -0.047800
  0.845000, -0.026400
  0.847000, -0.006500
  0.849000,  0.011300
  0.851000,  0.026900
  0.853000,  0.041100
  0.855000,  0.053200
  0.857000,  0.063300
  0.859000,  0.071700
  0.861000,  0.078100
  0.863000,  0.082900
  0.865000,  0.086100
  0.867000,  0.087100
  0.869000,  0.086500
  0.871000,  0.084600
  0.873000,  0.081200
  0.875000,  0.076100
  0.877000,  0.069800
  0.879000,  0.062100
  0.881000,  0.053400
  0.883000,  0.043700
  0.885000,  0.032800
  0.887000,  0.020900
  0.889000,  0.008200
  0.891000, -0.005300
  0.893000, -0.019400
  0.895000, -0.034200
  0.897000, -0.049500
  0.899000, -0.065300
  0.901000, -0.081600
  0.903000, -0.098000
  0.905000, -0.114900
  0.907000, -0.132000
  0.909000, -0.149100
  0.911000, -0.166300
  0.913000, -0.183500
  0.915000, -0.200600
  0.917000, -0.217500
  0.919000, -0.234200
  0.921000, -0.250700
  0.923000, -0.267100
  0.925000, -0.283100
  0.927000, -0.298700
  0.929000, -0.314100
  0.931000, -0.329000
  0.933000, -0.343400
  0.935000, -0.357300
  0.937000, -0.370800
  0.939000, -0.383800
  0.941000, -0.396200
  0.943000, -0.407900
  0.945000, -0.419200
  0.947000, -0.430200
  0.949000, -0.440500
  0.951000, -0.450000
  0.953000, -0.458900
  0.955000, -0.467400
  0.957000, -0.475400
  0.959000, -0.482700
  0.961000, -0.489200
  0.963000, -0.495100
  0.965000, -0.500600
  0.967000, -0.505500
  0.969000, -0.509700
  0.971000, -0.513400
  0.973000, -0.516500
  0.975000, -0.518800
  0.977000, -0.520500
  0.979000, -0.521700
  0.981000, -0.522400
  0.983000, -0.522600
  0.985000, -0.522400
  0.987000, -0.521500
  0.989000, -0.520100
  0.991000, -0.518200
  0.993000, -0.515800
  0.995000, -0.512900
  0.997000, -0.509600
  0.999000, -0.505900
  1.001000, -0.501800
  1.003000, -0.497100
  1.005000, -0.492000
  1.007000, -0.486400
  1.009000, -0.480400
  1.011000, -0.474100
  1.013000, -0.467300
  1.015000, -0.460300
  1.017000, -0.452900
  1.019000, -0.445400
  1.021000, -0.437400
  1.023000, -0.429100
  1.025000, -0.420400
  1.027000, -0.411400
  1.029000, -0.402300
  1.031000, -0.392900
  1.033000, -0.383100
  1.035000, -0.373100
  1.037000, -0.363000
  1.039000, -0.352600
  1.041000, -0.342000
  1.043000, -0.331500
  1.045000, -0.320700
  1.047000, -0.309900
  1.049000, -0.299000
  1.051000, -0.288100
  1.053000, -0.277200
  1.055000, -0.266300
  1.057000, -0.255200
  1.059000, -0.243900
  1.061000, -0.232600
  1.063000, -0.221400
  1.065000, -0.210200
  1.067000, -0.199000
  1.069000, -0.188100
  1.071000, -0.177500
  1.073000, -0.166900
  1.075000, -0.156500
  1.077000, -0.146200
  1.079000, -0.135900
  1.081000, -0.125900
  1.083000, -0.116200
  1.085000, -0.106500
  1.087000, -0.097000
  1.089000, -0.087800
  1.091000, -0.078700
  1.093000, -0.070000
  1.095000, -0.061600
  1.097000, -0.053300
  1.099000, -0.045200
  1.101000, -0.037500
  1.103000, -0.030200
  1.105000, -0.023400
  1.107000, -0.016900
  1.109000, -0.010500
  1.111000, -0.004300
  1.113000,  0.001500
  1.115000,  0.007000
  1.117000,  0.012300
  1.119000,  0.017200
  1.121000,  0.021800
  1.123000,  0.026100
  1.125000,  0.030000
  1.127000,  0.033600
  1.129000,  0.036800
  1.131000,  0.039600
  1.133000,  0.042100
  1.135000,  0.044400
  1.137000,  0.046400
  1.139000,  0.047900
  1.141000,  0.049200
  1.143000,  0.050200
  1.145000,  0.050800
  1.147000,  0.051100
  1.149000,  0.051300
  1.151000,  0.051200
  1.153000,  0.050700
  1.155000,  0.050000
  1.157000,  0.049100
  1.159000,  0.047900
  1.161000,  0.046500
  1.163000,  0.044800
  1.165000,  0.042800
  1.167000,  0.040600
  1.169000,  0.038400
  1.171000,  0.036000
  1.173000,  0.033300
  1.175000,  0.030600
  1.177000,  0.027900
  1.179000,  0.024900
  1.181000,  0.021800
  1.183000,  0.018600
  1.185000,  0.015200
  1.187000,  0.011800
  1.189000,  0.008200
  1.191000,  0.004700
  1.193000,  0.001300
  1.195000, -0.002300
  1.197000, -0.005800
  1.199000, -0.009200
  1.201000, -0.012600
  1.203000, -0.015900
  1.205000, -0.019200
  1.207000, -0.022400
  1.209000, -0.025700
  1.211000, -0.028600
  1.213000, -0.031400
  1.215000, -0.034000
  1.217000, -0.036400
  1.219000, -0.038700
  1.221000, -0.041100
  1.223000, -0.043400
  1.225000, -0.045200
  1.227000, -0.046700
  1.229000, -0.048200
  1.231000, -0.049800
  1.233000, -0.051000
  1.235000, -0.051900
  1.237000, -0.052500
  1.239000, -0.053000
  1.241000, -0.053300
  1.243000, -0.053200
  1.245000, -0.053000
  1.247000, -0.052800
  1.249000, -0.052400
  1.251000, -0.052100
  1.253000, -0.051600
  1.255000, -0.050600
  1.257000, -0.049700
  1.259000, -0.048600
  1.261000, -0.047300
  1.263000, -0.045700
  1.265000, -0.044000
  1.267000, -0.042300
  1.269000, -0.040600
  1.271000, -0.038700
  1.273000, -0.036700
  1.275000, -0.034800
  1.277000, -0.032800
  1.279000, -0.030800
  1.281000, -0.028800
  1.283000, -0.026800
  1.285000, -0.024700
  1.287000, -0.022300
  1.289000, -0.020300
  1.291000, -0.018300
  1.293000, -0.016300
  1.295000, -0.014300
  1.297000, -0.012300
  1.299000, -0.010200
  1.301000, -0.008200
  1.303000, -0.006400
  1.305000, -0.004700
  1.307000, -0.003100
  1.309000, -0.001400
  1.311000,  0.000400
  1.313000,  0.002200
  1.315000,  0.003800
  1.317000,  0.005400
  1.319000,  0.006800
  1.321000,  0.008200
  1.323000,  0.009700
  1.325000,  0.011200
  1.327000,  0.012600
  1.329000,  0.013900
  1.331000,  0.015300
  1.333000,  0.016600
  1.335000,  0.018000
  1.337000,  0.019600
  1.339000,  0.021300
  1.341000,  0.022800
  1.343000,  0.024600
  1.345000,  0.026400
  1.347000,  0.028300
  1.349000,  0.030400
  1.351000,  0.032500
  1.353000,  0.034600
  1.355000,  0.036900
  1.357000,  0.039400
  1.359000,  0.041900
  1.361000,  0.044300
  1.363000,  0.046900
  1.365000,  0.049700
  1.367000,  0.052500
  1.369000,  0.055400
  1.371000,  0.058200
  1.373000,  0.061200
  1.375000,  0.064200
  1.377000,  0.067300
  1.379000,  0.070700
  1.381000,  0.074300
  1.383000,  0.077500
  1.385000,  0.080800
  1.387000,  0.084100
  1.389000,  0.087200
  1.391000,  0.090100
  1.393000,  0.092800
  1.395000,  0.095400
  1.397000,  0.097700
  1.399000,  0.099300
