# z (nm)   (kJ/mol)
  0.385000,  5.919000
  0.387000,  5.197600
  0.389000,  4.486100
  0.391000,  3.814700
  0.393000,  3.143500
  0.395000,  2.492800
  0.397000,  1.851500
  0.399000,  1.191500
  0.401000,  0.529200
  0.403000, -0.135300
  0.405000, -0.791600
  0.407000, -1.440700
  0.409000, -2.089600
  0.411000, -2.738100
  0.413000, -3.381500
  0.415000, -4.020100
  0.417000, -4.653700
  0.419000, -5.281100
  0.421000, -5.903500
  0.423000, -6.518500
  0.425000, -7.123900
  0.427000, -7.719300
  0.429000, -8.302900
  0.431000, -8.873000
  0.433000, -9.428300
  0.435000, -9.967200
  0.437000,-10.488800
  0.439000,-10.994500
  0.441000,-11.478600
  0.443000,-11.939200
  0.445000,-12.377500
  0.447000,-12.798400
  0.449000,-13.194900
  0.451000,-13.562900
  0.453000,-13.920000
  0.455000,-14.267200
  0.457000,-14.602600
  0.459000,-14.926000
  0.461000,-15.232600
  0.463000,-15.517000
  0.465000,-15.781200
  0.467000,-16.027100
  0.469000,-16.252300
  0.471000,-16.454800
  0.473000,-16.632600
  0.475000,-16.786100
  0.477000,-16.917700
  0.479000,-17.026900
  0.481000,-17.109700
  0.483000,-17.169300
  0.485000,-17.201900
  0.487000,-17.206800
  0.489000,-17.183400
  0.491000,-17.127500
  0.493000,-17.038800
  0.495000,-16.925000
  0.497000,-16.781000
  0.499000,-16.605100
  0.501000,-16.399600
  0.503000,-16.164600
  0.505000,-15.897800
  0.507000,-15.614300
  0.509000,-15.303600
  0.511000,-14.959200
  0.513000,-14.606400
  0.515000,-14.250400
  0.517000,-13.884900
  0.519000,-13.492500
  0.521000,-13.100800
  0.523000,-12.735600
  0.525000,-12.376600
  0.527000,-12.010800
  0.529000,-11.642600
  0.531000,-11.288300
  0.533000,-10.944700
  0.535000,-10.587300
  0.537000,-10.222100
  0.539000, -9.883800
  0.541000, -9.585400
  0.543000, -9.289500
  0.545000, -8.958200
  0.547000, -8.628000
  0.549000, -8.319400
  0.551000, -8.001200
  0.553000, -7.703100
  0.555000, -7.424300
  0.557000, -7.147500
  0.559000, -6.889000
  0.561000, -6.659600
  0.563000, -6.460500
  0.565000, -6.269900
  0.567000, -6.089500
  0.569000, -5.935300
  0.571000, -5.791500
  0.573000, -5.651500
  0.575000, -5.528500
  0.577000, -5.420600
  0.579000, -5.322700
  0.581000, -5.234700
  0.583000, -5.155000
  0.585000, -5.083200
  0.587000, -5.018300
  0.589000, -4.958100
  0.591000, -4.903700
  0.593000, -4.858200
  0.595000, -4.815800
  0.597000, -4.772700
  0.599000, -4.734200
  0.601000, -4.701900
  0.603000, -4.673600
  0.605000, -4.644600
  0.607000, -4.614500
  0.609000, -4.586300
  0.611000, -4.561300
  0.613000, -4.538200
  0.615000, -4.514100
  0.617000, -4.489000
  0.619000, -4.461600
  0.621000, -4.434100
  0.623000, -4.407600
  0.625000, -4.378300
  0.627000, -4.348100
  0.629000, -4.319400
  0.631000, -4.290600
  0.633000, -4.261000
  0.635000, -4.230400
  0.637000, -4.198800
  0.639000, -4.165200
  0.641000, -4.129900
  0.643000, -4.094700
  0.645000, -4.058300
  0.647000, -4.019700
  0.649000, -3.981100
  0.651000, -3.942000
  0.653000, -3.901500
  0.655000, -3.859900
  0.657000, -3.816600
  0.659000, -3.772100
  0.661000, -3.727200
  0.663000, -3.682200
  0.665000, -3.637200
  0.667000, -3.592300
  0.669000, -3.547600
  0.671000, -3.502500
  0.673000, -3.456200
  0.675000, -3.409800
  0.677000, -3.364000
  0.679000, -3.318500
  0.681000, -3.273800
  0.683000, -3.228800
  0.685000, -3.183500
  0.687000, -3.139300
  0.689000, -3.095400
  0.691000, -3.051600
  0.693000, -3.008100
  0.695000, -2.964800
  0.697000, -2.923000
  0.699000, -2.881700
  0.701000, -2.840500
  0.703000, -2.800300
  0.705000, -2.759800
  0.707000, -2.719100
  0.709000, -2.679700
  0.711000, -2.640600
  0.713000, -2.600300
  0.715000, -2.559200
  0.717000, -2.518000
  0.719000, -2.476900
  0.721000, -2.435200
  0.723000, -2.393000
  0.725000, -2.351500
  0.727000, -2.310400
  0.729000, -2.267600
  0.731000, -2.224000
  0.733000, -2.180600
  0.735000, -2.136400
  0.737000, -2.090900
  0.739000, -2.045300
  0.741000, -1.999700
  0.743000, -1.953400
  0.745000, -1.906700
  0.747000, -1.858600
  0.749000, -1.809400
  0.751000, -1.760600
  0.753000, -1.711800
  0.755000, -1.661500
  0.757000, -1.610400
  0.759000, -1.559300
  0.761000, -1.508700
  0.763000, -1.458300
  0.765000, -1.406000
  0.767000, -1.353000
  0.769000, -1.300900
  0.771000, -1.248600
  0.773000, -1.196300
  0.775000, -1.144000
  0.777000, -1.091800
  0.779000, -1.040200
  0.781000, -0.989100
  0.783000, -0.938200
  0.785000, -0.887600
  0.787000, -0.838000
  0.789000, -0.788800
  0.791000, -0.740000
  0.793000, -0.691900
  0.795000, -0.644700
  0.797000, -0.598300
  0.799000, -0.553200
  0.801000, -0.509400
  0.803000, -0.466800
  0.805000, -0.425800
  0.807000, -0.386300
  0.809000, -0.348000
  0.811000, -0.311200
  0.813000, -0.275800
  0.815000, -0.241600
  0.817000, -0.209100
  0.819000, -0.178600
  0.821000, -0.149900
  0.823000, -0.122700
  0.825000, -0.097200
  0.827000, -0.073400
  0.829000, -0.051100
  0.831000, -0.030200
  0.833000, -0.011200
  0.835000,  0.006400
  0.837000,  0.022400
  0.839000,  0.036500
  0.841000,  0.048900
  0.843000,  0.060100
  0.845000,  0.069600
  0.847000,  0.077300
  0.849000,  0.083300
  0.851000,  0.087900
  0.853000,  0.091600
  0.855000,  0.094200
  0.857000,  0.095200
  0.859000,  0.095100
  0.861000,  0.093500
  0.863000,  0.090600
  0.865000,  0.086900
  0.867000,  0.082000
  0.869000,  0.076300
  0.871000,  0.069300
  0.873000,  0.062000
  0.875000,  0.054000
  0.877000,  0.045400
  0.879000,  0.036300
  0.881000,  0.026400
  0.883000,  0.016000
  0.885000,  0.005300
  0.887000, -0.005500
  0.889000, -0.016500
  0.891000, -0.027800
  0.893000, -0.039300
  0.895000, -0.050800
  0.897000, -0.062100
  0.899000, -0.073100
  0.901000, -0.084500
  0.903000, -0.095600
  0.905000, -0.106900
  0.907000, -0.118000
  0.909000, -0.128600
  0.911000, -0.139300
  0.913000, -0.149500
  0.915000, -0.159300
  0.917000, -0.168900
  0.919000, -0.178100
  0.921000, -0.186900
  0.923000, -0.195400
  0.925000, -0.203500
  0.927000, -0.211200
  0.929000, -0.218500
  0.931000, -0.225100
  0.933000, -0.231400
  0.935000, -0.237600
  0.937000, -0.243400
  0.939000, -0.248600
  0.941000, -0.253100
  0.943000, -0.257400
  0.945000, -0.261500
  0.947000, -0.265000
  0.949000, -0.268200
  0.951000, -0.271100
  0.953000, -0.273400
  0.955000, -0.275700
  0.957000, -0.277600
  0.959000, -0.278900
  0.961000, -0.279900
  0.963000, -0.280600
  0.965000, -0.281100
  0.967000, -0.281200
  0.969000, -0.280900
  0.971000, -0.280300
  0.973000, -0.279600
  0.975000, -0.278500
  0.977000, -0.277200
  0.979000, -0.275600
  0.981000, -0.273700
  0.983000, -0.271600
  0.985000, -0.269000
  0.987000, -0.265900
  0.989000, -0.262900
  0.991000, -0.259500
  0.993000, -0.255900
  0.995000, -0.252100
  0.997000, -0.247900
  0.999000, -0.243400
  1.001000, -0.238700
  1.003000, -0.233600
  1.005000, -0.228600
  1.007000, -0.223100
  1.009000, -0.217300
  1.011000, -0.211400
  1.013000, -0.205100
  1.015000, -0.198600
  1.017000, -0.191900
  1.019000, -0.185200
  1.021000, -0.178300
  1.023000, -0.171100
  1.025000, -0.163800
  1.027000, -0.156500
  1.029000, -0.148700
  1.031000, -0.140800
  1.033000, -0.133000
  1.035000, -0.125000
  1.037000, -0.116800
  1.039000, -0.108700
  1.041000, -0.100500
  1.043000, -0.092100
  1.045000, -0.083700
  1.047000, -0.075300
  1.049000, -0.067000
  1.051000, -0.058700
  1.053000, -0.050400
  1.055000, -0.042200
  1.057000, -0.034100
  1.059000, -0.026100
  1.061000, -0.018300
  1.063000, -0.010600
  1.065000, -0.002900
  1.067000,  0.004600
  1.069000,  0.011900
  1.071000,  0.019000
  1.073000,  0.026000
  1.075000,  0.032800
  1.077000,  0.039400
  1.079000,  0.045800
  1.081000,  0.051900
  1.083000,  0.057900
  1.085000,  0.063600
  1.087000,  0.069100
  1.089000,  0.074400
  1.091000,  0.079300
  1.093000,  0.084000
  1.095000,  0.088300
  1.097000,  0.092400
  1.099000,  0.096400
  1.101000,  0.100100
  1.103000,  0.103500
  1.105000,  0.106600
  1.107000,  0.109200
  1.109000,  0.111700
  1.111000,  0.114000
  1.113000,  0.116200
  1.115000,  0.118000
  1.117000,  0.119600
  1.119000,  0.121000
  1.121000,  0.122300
  1.123000,  0.123300
  1.125000,  0.124000
  1.127000,  0.124400
  1.129000,  0.124700
  1.131000,  0.124800
  1.133000,  0.124700
  1.135000,  0.124300
  1.137000,  0.123800
  1.139000,  0.123200
  1.141000,  0.122500
  1.143000,  0.121500
  1.145000,  0.120500
  1.147000,  0.119400
  1.149000,  0.118200
  1.151000,  0.116700
  1.153000,  0.115300
  1.155000,  0.113900
  1.157000,  0.112200
  1.159000,  0.110400
  1.161000,  0.108800
  1.163000,  0.107100
  1.165000,  0.105300
  1.167000,  0.103400
  1.169000,  0.101500
  1.171000,  0.099500
  1.173000,  0.097700
  1.175000,  0.095800
  1.177000,  0.093800
  1.179000,  0.091800
  1.181000,  0.089900
  1.183000,  0.088000
  1.185000,  0.085900
  1.187000,  0.083900
  1.189000,  0.082000
  1.191000,  0.080200
  1.193000,  0.078400
  1.195000,  0.076600
  1.197000,  0.074800
  1.199000,  0.073000
  1.201000,  0.071300
  1.203000,  0.069700
  1.205000,  0.068100
  1.207000,  0.066500
  1.209000,  0.065000
  1.211000,  0.063300
  1.213000,  0.061700
  1.215000,  0.060200
  1.217000,  0.058700
  1.219000,  0.057300
  1.221000,  0.055900
  1.223000,  0.054600
  1.225000,  0.053300
  1.227000,  0.051900
  1.229000,  0.050600
  1.231000,  0.049400
  1.233000,  0.048100
  1.235000,  0.046900
  1.237000,  0.045900
  1.239000,  0.044900
  1.241000,  0.043700
  1.243000,  0.042300
  1.245000,  0.041000
  1.247000,  0.039800
  1.249000,  0.038500
  1.251000,  0.037300
  1.253000,  0.036100
  1.255000,  0.034900
  1.257000,  0.033700
  1.259000,  0.032500
  1.261000,  0.031300
  1.263000,  0.030000
  1.265000,  0.028600
  1.267000,  0.027300
  1.269000,  0.026000
  1.271000,  0.024700
  1.273000,  0.023200
  1.275000,  0.021700
  1.277000,  0.020400
  1.279000,  0.019000
  1.281000,  0.017400
  1.283000,  0.015800
  1.285000,  0.014200
  1.287000,  0.012400
  1.289000,  0.010600
  1.291000,  0.008900
  1.293000,  0.007100
  1.295000,  0.005100
  1.297000,  0.003100
  1.299000,  0.001000
  1.301000, -0.001100
  1.303000, -0.003200
  1.305000, -0.005300
  1.307000, -0.007300
  1.309000, -0.009400
  1.311000, -0.011700
  1.313000, -0.013800
  1.315000, -0.015900
  1.317000, -0.018200
  1.319000, -0.020300
  1.321000, -0.022400
  1.323000, -0.024500
  1.325000, -0.026600
  1.327000, -0.028800
  1.329000, -0.031000
  1.331000, -0.033000
  1.333000, -0.035000
  1.335000, -0.036900
  1.337000, -0.038600
  1.339000, -0.040400
  1.341000, -0.042000
  1.343000, -0.043700
  1.345000, -0.045300
  1.347000, -0.046700
  1.349000, -0.048000
  1.351000, -0.049200
  1.353000, -0.050200
  1.355000, -0.051000
  1.357000, -0.051800
  1.359000, -0.052400
  1.361000, -0.052800
  1.363000, -0.053200
  1.365000, -0.053500
  1.367000, -0.053600
  1.369000, -0.053700
  1.371000, -0.053700
  1.373000, -0.053600
  1.375000, -0.053400
  1.377000, -0.052800
  1.379000, -0.052000
  1.381000, -0.051400
  1.383000, -0.050800
  1.385000, -0.050300
  1.387000, -0.049700
  1.389000, -0.049300
  1.391000, -0.049000
  1.393000, -0.048700
  1.395000, -0.048600
  1.397000, -0.048600
  1.399000, -0.049200
