# z (nm)   (kJ/mol)
  0.363000, 25.832200
  0.365000, 25.747000
  0.367000, 25.658300
  0.371000, 25.486200
  0.373000, 25.384600
  0.375000, 25.284600
  0.377000, 25.180000
  0.379000, 25.062600
  0.381000, 24.939000
  0.383000, 24.811000
  0.385000, 24.678100
  0.387000, 24.540000
  0.389000, 24.396500
  0.391000, 24.247500
  0.393000, 24.098200
  0.395000, 23.947100
  0.397000, 23.787300
  0.399000, 23.621700
  0.401000, 23.452100
  0.403000, 23.277900
  0.405000, 23.101100
  0.407000, 22.914200
  0.409000, 22.723600
  0.411000, 22.541500
  0.413000, 22.357000
  0.415000, 22.164900
  0.417000, 21.971000
  0.419000, 21.774700
  0.421000, 21.583900
  0.423000, 21.403100
  0.425000, 21.220400
  0.427000, 21.030200
  0.429000, 20.847900
  0.431000, 20.671800
  0.433000, 20.487900
  0.435000, 20.301700
  0.437000, 20.120900
  0.439000, 19.944800
  0.441000, 19.772000
  0.443000, 19.604200
  0.445000, 19.436400
  0.447000, 19.275500
  0.449000, 19.114800
  0.451000, 18.955000
  0.453000, 18.802800
  0.455000, 18.652900
  0.457000, 18.506600
  0.459000, 18.365300
  0.461000, 18.233700
  0.463000, 18.108200
  0.465000, 17.986400
  0.467000, 17.865500
  0.469000, 17.747100
  0.471000, 17.634000
  0.473000, 17.523200
  0.475000, 17.418200
  0.477000, 17.315200
  0.479000, 17.213500
  0.481000, 17.117300
  0.483000, 17.024200
  0.485000, 16.933700
  0.487000, 16.845400
  0.489000, 16.759400
  0.491000, 16.676100
  0.493000, 16.594000
  0.495000, 16.513300
  0.497000, 16.433300
  0.499000, 16.353700
  0.501000, 16.274600
  0.503000, 16.194700
  0.505000, 16.113500
  0.507000, 16.031100
  0.509000, 15.948200
  0.511000, 15.863100
  0.513000, 15.775200
  0.515000, 15.685300
  0.517000, 15.592100
  0.519000, 15.493100
  0.521000, 15.391000
  0.523000, 15.285500
  0.525000, 15.173300
  0.527000, 15.053700
  0.529000, 14.929300
  0.531000, 14.800500
  0.533000, 14.664400
  0.535000, 14.518200
  0.537000, 14.361700
  0.539000, 14.198500
  0.541000, 14.028300
  0.543000, 13.849200
  0.545000, 13.661400
  0.547000, 13.465200
  0.549000, 13.260300
  0.551000, 13.044100
  0.553000, 12.819000
  0.555000, 12.585400
  0.557000, 12.335600
  0.559000, 12.072800
  0.561000, 11.808000
  0.563000, 11.536100
  0.565000, 11.253400
  0.567000, 10.960700
  0.569000, 10.659000
  0.571000, 10.348300
  0.573000, 10.018300
  0.575000,  9.679400
  0.577000,  9.341800
  0.579000,  8.995300
  0.581000,  8.642700
  0.583000,  8.286100
  0.585000,  7.925000
  0.587000,  7.562700
  0.589000,  7.203900
  0.591000,  6.847900
  0.593000,  6.489700
  0.595000,  6.132300
  0.597000,  5.778000
  0.599000,  5.425100
  0.601000,  5.076300
  0.603000,  4.731600
  0.605000,  4.388700
  0.607000,  4.052100
  0.609000,  3.726000
  0.611000,  3.408700
  0.613000,  3.098500
  0.615000,  2.796000
  0.617000,  2.500700
  0.619000,  2.215600
  0.621000,  1.940200
  0.623000,  1.674200
  0.625000,  1.418400
  0.627000,  1.174100
  0.629000,  0.940100
  0.631000,  0.716100
  0.633000,  0.502500
  0.635000,  0.297200
  0.637000,  0.103700
  0.639000, -0.078800
  0.641000, -0.252100
  0.643000, -0.414600
  0.645000, -0.566800
  0.647000, -0.708000
  0.649000, -0.838400
  0.651000, -0.959500
  0.653000, -1.071000
  0.655000, -1.172400
  0.657000, -1.263800
  0.659000, -1.345000
  0.661000, -1.417300
  0.663000, -1.480900
  0.665000, -1.535500
  0.667000, -1.581800
  0.669000, -1.620100
  0.671000, -1.650400
  0.673000, -1.673100
  0.675000, -1.689200
  0.677000, -1.698700
  0.679000, -1.700600
  0.681000, -1.695800
  0.683000, -1.685800
  0.685000, -1.671100
  0.687000, -1.651800
  0.689000, -1.627800
  0.691000, -1.599300
  0.693000, -1.567500
  0.695000, -1.533400
  0.697000, -1.496500
  0.699000, -1.455700
  0.701000, -1.412300
  0.703000, -1.366900
  0.705000, -1.319400
  0.707000, -1.270100
  0.709000, -1.219900
  0.711000, -1.169600
  0.713000, -1.118400
  0.715000, -1.066500
  0.717000, -1.013900
  0.719000, -0.960400
  0.721000, -0.906600
  0.723000, -0.852700
  0.725000, -0.798800
  0.727000, -0.745100
  0.729000, -0.691600
  0.731000, -0.638500
  0.733000, -0.585500
  0.735000, -0.532500
  0.737000, -0.479700
  0.739000, -0.427000
  0.741000, -0.374400
  0.743000, -0.322300
  0.745000, -0.270400
  0.747000, -0.218600
  0.749000, -0.167100
  0.751000, -0.115900
  0.753000, -0.064600
  0.755000, -0.013900
  0.757000,  0.036600
  0.759000,  0.087100
  0.761000,  0.137300
  0.763000,  0.187300
  0.765000,  0.236800
  0.767000,  0.286300
  0.769000,  0.335500
  0.771000,  0.384400
  0.773000,  0.433100
  0.775000,  0.481300
  0.777000,  0.529100
  0.779000,  0.576400
  0.781000,  0.623200
  0.783000,  0.669400
  0.785000,  0.715000
  0.787000,  0.759900
  0.789000,  0.804000
  0.791000,  0.847100
  0.793000,  0.889200
  0.795000,  0.930400
  0.797000,  0.970300
  0.799000,  1.008800
  0.801000,  1.046100
  0.803000,  1.081900
  0.805000,  1.116200
  0.807000,  1.148900
  0.809000,  1.180000
  0.811000,  1.209200
  0.813000,  1.236600
  0.815000,  1.262100
  0.817000,  1.285600
  0.819000,  1.306900
  0.821000,  1.326100
  0.823000,  1.343200
  0.825000,  1.358000
  0.827000,  1.370700
  0.829000,  1.380900
  0.831000,  1.388900
  0.833000,  1.394500
  0.835000,  1.397800
  0.837000,  1.398700
  0.839000,  1.397200
  0.841000,  1.393300
  0.843000,  1.387200
  0.845000,  1.378900
  0.847000,  1.368100
  0.849000,  1.354900
  0.851000,  1.339800
  0.853000,  1.322700
  0.855000,  1.303200
  0.857000,  1.281700
  0.859000,  1.258400
  0.861000,  1.233200
  0.863000,  1.206100
  0.865000,  1.177400
  0.867000,  1.147200
  0.869000,  1.115800
  0.871000,  1.082800
  0.873000,  1.048200
  0.875000,  1.012700
  0.877000,  0.976100
  0.879000,  0.938200
  0.881000,  0.899400
  0.883000,  0.859900
  0.885000,  0.819900
  0.887000,  0.779400
  0.889000,  0.738100
  0.891000,  0.696800
  0.893000,  0.655400
  0.895000,  0.613800
  0.897000,  0.572300
  0.899000,  0.530800
  0.901000,  0.489600
  0.903000,  0.448700
  0.905000,  0.408200
  0.907000,  0.368000
  0.909000,  0.328400
  0.911000,  0.289600
  0.913000,  0.251200
  0.915000,  0.213500
  0.917000,  0.177000
  0.919000,  0.141300
  0.921000,  0.106400
  0.923000,  0.072500
  0.925000,  0.039500
  0.927000,  0.007600
  0.929000, -0.023000
  0.931000, -0.052600
  0.933000, -0.080900
  0.935000, -0.108000
  0.937000, -0.133900
  0.939000, -0.158600
  0.941000, -0.182000
  0.943000, -0.204200
  0.945000, -0.225100
  0.947000, -0.244800
  0.949000, -0.263200
  0.951000, -0.280300
  0.953000, -0.296300
  0.955000, -0.311000
  0.957000, -0.324300
  0.959000, -0.336500
  0.961000, -0.347500
  0.963000, -0.357300
  0.965000, -0.366200
  0.967000, -0.373900
  0.969000, -0.380600
  0.971000, -0.386100
  0.973000, -0.390500
  0.975000, -0.393800
  0.977000, -0.396300
  0.979000, -0.397800
  0.981000, -0.398400
  0.983000, -0.398100
  0.985000, -0.397100
  0.987000, -0.395100
  0.989000, -0.392300
  0.991000, -0.388700
  0.993000, -0.384300
  0.995000, -0.379200
  0.997000, -0.373600
  0.999000, -0.367200
  1.001000, -0.360400
  1.003000, -0.352900
  1.005000, -0.344900
  1.007000, -0.336300
  1.009000, -0.327200
  1.011000, -0.317500
  1.013000, -0.307600
  1.015000, -0.297200
  1.017000, -0.286400
  1.019000, -0.275300
  1.021000, -0.263700
  1.023000, -0.251900
  1.025000, -0.239700
  1.027000, -0.227300
  1.029000, -0.214700
  1.031000, -0.201800
  1.033000, -0.188700
  1.035000, -0.175500
  1.037000, -0.162200
  1.039000, -0.148700
  1.041000, -0.135100
  1.043000, -0.121400
  1.045000, -0.107600
  1.047000, -0.093600
  1.049000, -0.079600
  1.051000, -0.065600
  1.053000, -0.051600
  1.055000, -0.037700
  1.057000, -0.023900
  1.059000, -0.010100
  1.061000,  0.003700
  1.063000,  0.017500
  1.065000,  0.031100
  1.067000,  0.044500
  1.069000,  0.057900
  1.071000,  0.071100
  1.073000,  0.084100
  1.075000,  0.096900
  1.077000,  0.109500
  1.079000,  0.121800
  1.081000,  0.133900
  1.083000,  0.145700
  1.085000,  0.157300
  1.087000,  0.168600
  1.089000,  0.179600
  1.091000,  0.190100
  1.093000,  0.200400
  1.095000,  0.210200
  1.097000,  0.219500
  1.099000,  0.228600
  1.101000,  0.237100
  1.103000,  0.245200
  1.105000,  0.253000
  1.107000,  0.260300
  1.109000,  0.267000
  1.111000,  0.273300
  1.113000,  0.279200
  1.115000,  0.284600
  1.117000,  0.289500
  1.119000,  0.293800
  1.121000,  0.297700
  1.123000,  0.301000
  1.125000,  0.303900
  1.127000,  0.306200
  1.129000,  0.307900
  1.131000,  0.309100
  1.133000,  0.309900
  1.135000,  0.310200
  1.137000,  0.310000
  1.139000,  0.309300
  1.141000,  0.308100
  1.143000,  0.306400
  1.145000,  0.304400
  1.147000,  0.301900
  1.149000,  0.298900
  1.151000,  0.295500
  1.153000,  0.291800
  1.155000,  0.287700
  1.157000,  0.283200
  1.159000,  0.278500
  1.161000,  0.273400
  1.163000,  0.268100
  1.165000,  0.262500
  1.167000,  0.256600
  1.169000,  0.250400
  1.171000,  0.244100
  1.173000,  0.237500
  1.175000,  0.230800
  1.177000,  0.223900
  1.179000,  0.216900
  1.181000,  0.209700
  1.183000,  0.202400
  1.185000,  0.194900
  1.187000,  0.187300
  1.189000,  0.179700
  1.191000,  0.172100
  1.193000,  0.164400
  1.195000,  0.156800
  1.197000,  0.149100
  1.199000,  0.141300
  1.201000,  0.133600
  1.203000,  0.126000
  1.205000,  0.118300
  1.207000,  0.110700
  1.209000,  0.103300
  1.211000,  0.096100
  1.213000,  0.089100
  1.215000,  0.082100
  1.217000,  0.075300
  1.219000,  0.068600
  1.221000,  0.061900
  1.223000,  0.055400
  1.225000,  0.049200
  1.227000,  0.043100
  1.229000,  0.037200
  1.231000,  0.031300
  1.233000,  0.025800
  1.235000,  0.020400
  1.237000,  0.015200
  1.239000,  0.010200
  1.241000,  0.005400
  1.243000,  0.000800
  1.245000, -0.003500
  1.247000, -0.007700
  1.249000, -0.011800
  1.251000, -0.015700
  1.253000, -0.019400
  1.255000, -0.022900
  1.257000, -0.026100
  1.259000, -0.029200
  1.261000, -0.032000
  1.263000, -0.034800
  1.265000, -0.037300
  1.267000, -0.039700
  1.269000, -0.042000
  1.271000, -0.044100
  1.273000, -0.045900
  1.275000, -0.047600
  1.277000, -0.049200
  1.279000, -0.050700
  1.281000, -0.052100
  1.283000, -0.053300
  1.285000, -0.054300
  1.287000, -0.055400
  1.289000, -0.056300
  1.291000, -0.057100
  1.293000, -0.057900
  1.295000, -0.058500
  1.297000, -0.059100
  1.299000, -0.059500
  1.301000, -0.059800
  1.303000, -0.060100
  1.305000, -0.060200
  1.307000, -0.060100
  1.309000, -0.060100
  1.311000, -0.059900
  1.313000, -0.059500
  1.315000, -0.059000
  1.317000, -0.058400
  1.319000, -0.057700
  1.321000, -0.056800
  1.323000, -0.055800
  1.325000, -0.054600
  1.327000, -0.053300
  1.329000, -0.051800
  1.331000, -0.050100
  1.333000, -0.048200
  1.335000, -0.046200
  1.337000, -0.044000
  1.339000, -0.041600
  1.341000, -0.039100
  1.343000, -0.036300
  1.345000, -0.033300
  1.347000, -0.030000
  1.349000, -0.026600
  1.351000, -0.022900
  1.353000, -0.019000
  1.355000, -0.015000
  1.357000, -0.010700
  1.359000, -0.006100
  1.361000, -0.001400
  1.363000,  0.003600
  1.365000,  0.008900
  1.367000,  0.014300
  1.369000,  0.019800
  1.371000,  0.025400
  1.373000,  0.031200
  1.375000,  0.037200
  1.377000,  0.043400
  1.379000,  0.049900
  1.381000,  0.056300
  1.383000,  0.063100
  1.385000,  0.069800
  1.387000,  0.076600
  1.389000,  0.083300
  1.391000,  0.089600
  1.393000,  0.095800
  1.395000,  0.101800
  1.397000,  0.107600
  1.399000,  0.113200
