# z (nm)   (kJ/mol)
  0.337000,  6.727300
  0.339000,  6.297900
  0.341000,  5.936600
  0.343000,  5.532500
  0.345000,  5.069600
  0.347000,  4.677100
  0.349000,  4.328400
  0.351000,  3.965200
  0.353000,  3.627300
  0.355000,  3.316900
  0.357000,  3.026600
  0.359000,  2.766700
  0.361000,  2.534600
  0.363000,  2.326600
  0.365000,  2.146200
  0.367000,  1.993800
  0.369000,  1.866100
  0.371000,  1.760600
  0.373000,  1.678600
  0.375000,  1.618200
  0.377000,  1.580100
  0.379000,  1.563800
  0.381000,  1.568300
  0.383000,  1.593200
  0.385000,  1.638500
  0.387000,  1.703700
  0.389000,  1.790000
  0.391000,  1.897600
  0.393000,  2.023100
  0.395000,  2.169100
  0.397000,  2.340300
  0.399000,  2.526600
  0.401000,  2.725900
  0.403000,  2.945800
  0.405000,  3.186100
  0.407000,  3.450700
  0.409000,  3.733200
  0.411000,  4.022300
  0.413000,  4.329100
  0.415000,  4.660700
  0.417000,  4.986800
  0.419000,  5.315100
  0.421000,  5.660200
  0.423000,  6.006200
  0.425000,  6.358300
  0.427000,  6.727500
  0.429000,  7.105200
  0.431000,  7.477000
  0.433000,  7.841600
  0.435000,  8.206400
  0.437000,  8.582500
  0.439000,  8.953900
  0.441000,  9.300100
  0.443000,  9.622500
  0.445000,  9.928400
  0.447000, 10.215700
  0.449000, 10.500200
  0.451000, 10.777800
  0.453000, 11.023900
  0.455000, 11.248500
  0.457000, 11.452700
  0.459000, 11.628300
  0.461000, 11.783200
  0.463000, 11.914200
  0.465000, 12.018300
  0.467000, 12.100400
  0.469000, 12.151600
  0.471000, 12.172400
  0.473000, 12.170800
  0.475000, 12.140300
  0.477000, 12.079400
  0.479000, 11.997100
  0.481000, 11.889000
  0.483000, 11.752000
  0.485000, 11.599300
  0.487000, 11.422400
  0.489000, 11.216100
  0.491000, 10.991700
  0.493000, 10.751000
  0.495000, 10.489200
  0.497000, 10.201700
  0.499000,  9.890500
  0.501000,  9.557900
  0.503000,  9.211100
  0.505000,  8.842100
  0.507000,  8.447500
  0.509000,  8.045800
  0.511000,  7.628800
  0.513000,  7.187700
  0.515000,  6.742700
  0.517000,  6.296000
  0.519000,  5.840400
  0.521000,  5.374900
  0.523000,  4.898600
  0.525000,  4.413100
  0.527000,  3.936200
  0.529000,  3.462300
  0.531000,  2.976100
  0.533000,  2.495000
  0.535000,  2.023400
  0.537000,  1.558400
  0.539000,  1.096900
  0.541000,  0.644000
  0.543000,  0.205000
  0.545000, -0.223100
  0.547000, -0.637900
  0.549000, -1.038100
  0.551000, -1.424300
  0.553000, -1.794200
  0.555000, -2.147900
  0.557000, -2.486000
  0.559000, -2.806600
  0.561000, -3.109100
  0.563000, -3.392100
  0.565000, -3.655900
  0.567000, -3.902100
  0.569000, -4.132600
  0.571000, -4.344500
  0.573000, -4.534700
  0.575000, -4.707200
  0.577000, -4.861400
  0.579000, -4.997200
  0.581000, -5.114900
  0.583000, -5.215300
  0.585000, -5.299100
  0.587000, -5.365400
  0.589000, -5.414900
  0.591000, -5.448500
  0.593000, -5.466600
  0.595000, -5.470000
  0.597000, -5.457800
  0.599000, -5.430500
  0.601000, -5.391100
  0.603000, -5.339100
  0.605000, -5.273300
  0.607000, -5.196600
  0.609000, -5.110900
  0.611000, -5.014700
  0.613000, -4.908300
  0.615000, -4.795800
  0.617000, -4.675000
  0.619000, -4.545300
  0.621000, -4.408600
  0.623000, -4.267300
  0.625000, -4.122300
  0.627000, -3.972700
  0.629000, -3.821600
  0.631000, -3.669500
  0.633000, -3.516300
  0.635000, -3.362100
  0.637000, -3.206300
  0.639000, -3.051200
  0.641000, -2.900000
  0.643000, -2.753100
  0.645000, -2.608100
  0.647000, -2.465600
  0.649000, -2.327300
  0.651000, -2.193400
  0.653000, -2.063900
  0.655000, -1.938700
  0.657000, -1.818400
  0.659000, -1.703600
  0.661000, -1.594300
  0.663000, -1.490100
  0.665000, -1.391900
  0.667000, -1.299700
  0.669000, -1.212900
  0.671000, -1.131100
  0.673000, -1.054900
  0.675000, -0.984700
  0.677000, -0.919300
  0.679000, -0.858900
  0.681000, -0.803400
  0.683000, -0.752200
  0.685000, -0.705800
  0.687000, -0.664000
  0.689000, -0.625700
  0.691000, -0.591200
  0.693000, -0.559700
  0.695000, -0.531100
  0.697000, -0.505900
  0.699000, -0.483300
  0.701000, -0.463600
  0.703000, -0.446800
  0.705000, -0.431700
  0.707000, -0.418500
  0.709000, -0.407800
  0.711000, -0.398700
  0.713000, -0.390800
  0.715000, -0.384400
  0.717000, -0.379000
  0.719000, -0.374800
  0.721000, -0.371700
  0.723000, -0.369500
  0.725000, -0.368300
  0.727000, -0.368000
  0.729000, -0.368300
  0.731000, -0.369400
  0.733000, -0.371400
  0.735000, -0.373900
  0.737000, -0.377100
  0.739000, -0.381000
  0.741000, -0.385500
  0.743000, -0.390700
  0.745000, -0.396500
  0.747000, -0.402700
  0.749000, -0.409500
  0.751000, -0.417000
  0.753000, -0.425300
  0.755000, -0.434200
  0.757000, -0.443900
  0.759000, -0.454400
  0.761000, -0.465700
  0.763000, -0.477500
  0.765000, -0.490200
  0.767000, -0.503900
  0.769000, -0.518000
  0.771000, -0.532700
  0.773000, -0.548100
  0.775000, -0.564600
  0.777000, -0.581600
  0.779000, -0.599400
  0.781000, -0.618200
  0.783000, -0.637300
  0.785000, -0.656600
  0.787000, -0.676400
  0.789000, -0.696600
  0.791000, -0.717100
  0.793000, -0.738100
  0.795000, -0.759200
  0.797000, -0.780300
  0.799000, -0.801700
  0.801000, -0.823100
  0.803000, -0.844400
  0.805000, -0.865500
  0.807000, -0.886400
  0.809000, -0.907100
  0.811000, -0.927300
  0.813000, -0.947100
  0.815000, -0.966400
  0.817000, -0.985200
  0.819000, -1.003100
  0.821000, -1.020200
  0.823000, -1.036500
  0.825000, -1.051900
  0.827000, -1.066500
  0.829000, -1.080100
  0.831000, -1.092600
  0.833000, -1.104000
  0.835000, -1.114300
  0.837000, -1.123500
  0.839000, -1.131500
  0.841000, -1.138400
  0.843000, -1.144000
  0.845000, -1.148300
  0.847000, -1.151700
  0.849000, -1.153800
  0.851000, -1.154400
  0.853000, -1.153800
  0.855000, -1.152200
  0.857000, -1.149500
  0.859000, -1.145500
  0.861000, -1.140400
  0.863000, -1.134400
  0.865000, -1.127400
  0.867000, -1.119500
  0.869000, -1.110700
  0.871000, -1.101000
  0.873000, -1.090600
  0.875000, -1.079600
  0.877000, -1.067900
  0.879000, -1.055300
  0.881000, -1.042300
  0.883000, -1.029200
  0.885000, -1.015400
  0.887000, -1.001400
  0.889000, -0.987400
  0.891000, -0.973200
  0.893000, -0.958800
  0.895000, -0.944300
  0.897000, -0.929600
  0.899000, -0.915000
  0.901000, -0.900600
  0.903000, -0.886500
  0.905000, -0.872600
  0.907000, -0.858900
  0.909000, -0.845500
  0.911000, -0.832600
  0.913000, -0.820000
  0.915000, -0.807900
  0.917000, -0.796200
  0.919000, -0.785100
  0.921000, -0.774600
  0.923000, -0.764800
  0.925000, -0.755400
  0.927000, -0.746500
  0.929000, -0.738200
  0.931000, -0.730400
  0.933000, -0.723100
  0.935000, -0.716400
  0.937000, -0.710200
  0.939000, -0.704500
  0.941000, -0.699400
  0.943000, -0.694800
  0.945000, -0.690700
  0.947000, -0.687100
  0.949000, -0.683800
  0.951000, -0.681000
  0.953000, -0.678300
  0.955000, -0.676000
  0.957000, -0.674100
  0.959000, -0.672300
  0.961000, -0.670700
  0.963000, -0.669400
  0.965000, -0.668300
  0.967000, -0.667400
  0.969000, -0.666500
  0.971000, -0.665600
  0.973000, -0.664900
  0.975000, -0.664100
  0.977000, -0.663200
  0.979000, -0.662000
  0.981000, -0.660900
  0.983000, -0.659800
  0.985000, -0.658700
  0.987000, -0.657500
  0.989000, -0.656000
  0.991000, -0.654300
  0.993000, -0.652200
  0.995000, -0.650000
  0.997000, -0.647700
  0.999000, -0.645100
  1.001000, -0.642100
  1.003000, -0.638900
  1.005000, -0.635600
  1.007000, -0.632100
  1.009000, -0.628400
  1.011000, -0.624200
  1.013000, -0.619800
  1.015000, -0.615300
  1.017000, -0.610400
  1.019000, -0.605500
  1.021000, -0.600400
  1.023000, -0.594900
  1.025000, -0.589300
  1.027000, -0.583500
  1.029000, -0.577400
  1.031000, -0.571300
  1.033000, -0.565100
  1.035000, -0.558600
  1.037000, -0.552000
  1.039000, -0.545300
  1.041000, -0.538600
  1.043000, -0.531700
  1.045000, -0.524800
  1.047000, -0.517800
  1.049000, -0.510800
  1.051000, -0.503700
  1.053000, -0.496600
  1.055000, -0.489400
  1.057000, -0.482300
  1.059000, -0.475200
  1.061000, -0.468100
  1.063000, -0.461100
  1.065000, -0.454100
  1.067000, -0.447100
  1.069000, -0.440200
  1.071000, -0.433200
  1.073000, -0.426200
  1.075000, -0.419500
  1.077000, -0.412700
  1.079000, -0.406000
  1.081000, -0.399400
  1.083000, -0.392900
  1.085000, -0.386500
  1.087000, -0.380100
  1.089000, -0.373700
  1.091000, -0.367400
  1.093000, -0.361300
  1.095000, -0.355200
  1.097000, -0.349200
  1.099000, -0.343200
  1.101000, -0.337200
  1.103000, -0.331400
  1.105000, -0.325700
  1.107000, -0.320100
  1.109000, -0.314700
  1.111000, -0.309300
  1.113000, -0.304000
  1.115000, -0.298700
  1.117000, -0.293400
  1.119000, -0.288300
  1.121000, -0.283100
  1.123000, -0.278100
  1.125000, -0.273200
  1.127000, -0.268400
  1.129000, -0.263600
  1.131000, -0.258800
  1.133000, -0.254100
  1.135000, -0.249400
  1.137000, -0.244800
  1.139000, -0.240300
  1.141000, -0.235900
  1.143000, -0.231600
  1.145000, -0.227500
  1.147000, -0.223300
  1.149000, -0.219100
  1.151000, -0.215000
  1.153000, -0.210900
  1.155000, -0.206900
  1.157000, -0.202900
  1.159000, -0.199000
  1.161000, -0.195100
  1.163000, -0.191300
  1.165000, -0.187600
  1.167000, -0.183800
  1.169000, -0.180200
  1.171000, -0.176800
  1.173000, -0.173300
  1.175000, -0.170000
  1.177000, -0.166700
  1.179000, -0.163500
  1.181000, -0.160400
  1.183000, -0.157300
  1.185000, -0.154300
  1.187000, -0.151400
  1.189000, -0.148500
  1.191000, -0.145800
  1.193000, -0.143300
  1.195000, -0.140700
  1.197000, -0.138200
  1.199000, -0.135900
  1.201000, -0.133600
  1.203000, -0.131400
  1.205000, -0.129300
  1.207000, -0.127200
  1.209000, -0.125200
  1.211000, -0.123300
  1.213000, -0.121500
  1.215000, -0.119700
  1.217000, -0.118000
  1.219000, -0.116200
  1.221000, -0.114700
  1.223000, -0.113200
  1.225000, -0.111900
  1.227000, -0.110500
  1.229000, -0.109200
  1.231000, -0.108000
  1.233000, -0.106900
  1.235000, -0.105800
  1.237000, -0.104600
  1.239000, -0.103500
  1.241000, -0.102400
  1.243000, -0.101100
  1.245000, -0.099800
  1.247000, -0.098600
  1.249000, -0.097400
  1.251000, -0.096200
  1.253000, -0.094900
  1.255000, -0.093600
  1.257000, -0.092200
  1.259000, -0.090600
  1.261000, -0.089000
  1.263000, -0.087200
  1.265000, -0.085300
  1.267000, -0.083300
  1.269000, -0.081200
  1.271000, -0.079100
  1.273000, -0.076800
  1.275000, -0.074400
  1.277000, -0.071900
  1.279000, -0.069300
  1.281000, -0.066700
  1.283000, -0.063900
  1.285000, -0.060900
  1.287000, -0.057800
  1.289000, -0.054600
  1.291000, -0.051300
  1.293000, -0.047900
  1.295000, -0.044400
  1.297000, -0.040700
  1.299000, -0.036900
  1.301000, -0.033100
  1.303000, -0.029000
  1.305000, -0.024900
  1.307000, -0.020800
  1.309000, -0.016600
  1.311000, -0.012300
  1.313000, -0.007800
  1.315000, -0.003300
  1.317000,  0.001400
  1.319000,  0.006200
  1.321000,  0.011000
  1.323000,  0.015900
  1.325000,  0.020800
  1.327000,  0.025800
  1.329000,  0.030900
  1.331000,  0.036200
  1.333000,  0.041600
  1.335000,  0.047000
  1.337000,  0.052400
  1.339000,  0.058000
  1.341000,  0.063700
  1.343000,  0.069500
  1.345000,  0.075400
  1.347000,  0.081300
  1.349000,  0.087200
  1.351000,  0.093100
  1.353000,  0.099200
  1.355000,  0.105400
  1.357000,  0.111700
  1.359000,  0.118000
  1.361000,  0.124500
  1.363000,  0.130900
  1.365000,  0.137300
  1.367000,  0.143800
  1.369000,  0.150200
  1.371000,  0.156800
  1.373000,  0.163400
  1.375000,  0.170100
  1.377000,  0.176600
  1.379000,  0.183000
  1.381000,  0.189400
  1.383000,  0.196000
  1.385000,  0.202500
  1.387000,  0.209000
  1.389000,  0.215100
  1.391000,  0.221100
  1.393000,  0.226800
  1.395000,  0.232400
  1.397000,  0.237600
  1.399000,  0.242600
