# z (nm)   (kJ/mol)
  0.441000, 20.175700
  0.443000, 19.717700
  0.445000, 19.270600
  0.447000, 18.815200
  0.449000, 18.334400
  0.451000, 17.848800
  0.453000, 17.364100
  0.455000, 16.920200
  0.457000, 16.489700
  0.459000, 16.050800
  0.461000, 15.630700
  0.463000, 15.224000
  0.465000, 14.825100
  0.467000, 14.440400
  0.469000, 14.064800
  0.471000, 13.700900
  0.473000, 13.350700
  0.475000, 13.013100
  0.477000, 12.685000
  0.479000, 12.365400
  0.481000, 12.057200
  0.483000, 11.760100
  0.485000, 11.470000
  0.487000, 11.189200
  0.489000, 10.919100
  0.491000, 10.656500
  0.493000, 10.404000
  0.495000, 10.161200
  0.497000,  9.925600
  0.499000,  9.699200
  0.501000,  9.482700
  0.503000,  9.275600
  0.505000,  9.074700
  0.507000,  8.881600
  0.509000,  8.697200
  0.511000,  8.516200
  0.513000,  8.343200
  0.515000,  8.176200
  0.517000,  8.007900
  0.519000,  7.846300
  0.521000,  7.694600
  0.523000,  7.545400
  0.525000,  7.399500
  0.527000,  7.259600
  0.529000,  7.120200
  0.531000,  6.978600
  0.533000,  6.839900
  0.535000,  6.707500
  0.537000,  6.579000
  0.539000,  6.455200
  0.541000,  6.335700
  0.543000,  6.215800
  0.545000,  6.097600
  0.547000,  5.982100
  0.549000,  5.869900
  0.551000,  5.760100
  0.553000,  5.651400
  0.555000,  5.544300
  0.557000,  5.438100
  0.559000,  5.334700
  0.561000,  5.236500
  0.563000,  5.138400
  0.565000,  5.039200
  0.567000,  4.942500
  0.569000,  4.848300
  0.571000,  4.756000
  0.573000,  4.663600
  0.575000,  4.571600
  0.577000,  4.481700
  0.579000,  4.391700
  0.581000,  4.300200
  0.583000,  4.208300
  0.585000,  4.114800
  0.587000,  4.022400
  0.589000,  3.929900
  0.591000,  3.834100
  0.593000,  3.737700
  0.595000,  3.639600
  0.597000,  3.539600
  0.599000,  3.437500
  0.601000,  3.332200
  0.603000,  3.228600
  0.605000,  3.122900
  0.607000,  3.013700
  0.609000,  2.905200
  0.611000,  2.793200
  0.613000,  2.675200
  0.615000,  2.550500
  0.617000,  2.419200
  0.619000,  2.286600
  0.621000,  2.152200
  0.623000,  2.015000
  0.625000,  1.871600
  0.627000,  1.721000
  0.629000,  1.572400
  0.631000,  1.421500
  0.633000,  1.265800
  0.635000,  1.109600
  0.637000,  0.952700
  0.639000,  0.796600
  0.641000,  0.642600
  0.643000,  0.486200
  0.645000,  0.330300
  0.647000,  0.178300
  0.649000,  0.028200
  0.651000, -0.119700
  0.653000, -0.265800
  0.655000, -0.409500
  0.657000, -0.551100
  0.659000, -0.689900
  0.661000, -0.825300
  0.663000, -0.956200
  0.665000, -1.081700
  0.667000, -1.201700
  0.669000, -1.317600
  0.671000, -1.429400
  0.673000, -1.535800
  0.675000, -1.637500
  0.677000, -1.732800
  0.679000, -1.821300
  0.681000, -1.904600
  0.683000, -1.982500
  0.685000, -2.055100
  0.687000, -2.122200
  0.689000, -2.183100
  0.691000, -2.239200
  0.693000, -2.289900
  0.695000, -2.333600
  0.697000, -2.372100
  0.699000, -2.405300
  0.701000, -2.432100
  0.703000, -2.453200
  0.705000, -2.468700
  0.707000, -2.479100
  0.709000, -2.484500
  0.711000, -2.484300
  0.713000, -2.478800
  0.715000, -2.468800
  0.717000, -2.454800
  0.719000, -2.436300
  0.721000, -2.414000
  0.723000, -2.387800
  0.725000, -2.358200
  0.727000, -2.325500
  0.729000, -2.289600
  0.731000, -2.251400
  0.733000, -2.210700
  0.735000, -2.167500
  0.737000, -2.122200
  0.739000, -2.075200
  0.741000, -2.026400
  0.743000, -1.976000
  0.745000, -1.924600
  0.747000, -1.872400
  0.749000, -1.819300
  0.751000, -1.765700
  0.753000, -1.711500
  0.755000, -1.657100
  0.757000, -1.603000
  0.759000, -1.548800
  0.761000, -1.494600
  0.763000, -1.440800
  0.765000, -1.387600
  0.767000, -1.334700
  0.769000, -1.282200
  0.771000, -1.230400
  0.773000, -1.179400
  0.775000, -1.129100
  0.777000, -1.079800
  0.779000, -1.031300
  0.781000, -0.983500
  0.783000, -0.936500
  0.785000, -0.890300
  0.787000, -0.845000
  0.789000, -0.800400
  0.791000, -0.756900
  0.793000, -0.714200
  0.795000, -0.672000
  0.797000, -0.630800
  0.799000, -0.590500
  0.801000, -0.551000
  0.803000, -0.512100
  0.805000, -0.473800
  0.807000, -0.436200
  0.809000, -0.399200
  0.811000, -0.362700
  0.813000, -0.326900
  0.815000, -0.291700
  0.817000, -0.257100
  0.819000, -0.223000
  0.821000, -0.189400
  0.823000, -0.156300
  0.825000, -0.124000
  0.827000, -0.092400
  0.829000, -0.061400
  0.831000, -0.031000
  0.833000, -0.001300
  0.835000,  0.027800
  0.837000,  0.056400
  0.839000,  0.084200
  0.841000,  0.111100
  0.843000,  0.137300
  0.845000,  0.162600
  0.847000,  0.187300
  0.849000,  0.211000
  0.851000,  0.233800
  0.853000,  0.255600
  0.855000,  0.276300
  0.857000,  0.295700
  0.859000,  0.314100
  0.861000,  0.331600
  0.863000,  0.347900
  0.865000,  0.363000
  0.867000,  0.376600
  0.869000,  0.388900
  0.871000,  0.400100
  0.873000,  0.410100
  0.875000,  0.418600
  0.877000,  0.425300
  0.879000,  0.430500
  0.881000,  0.434400
  0.883000,  0.436900
  0.885000,  0.438200
  0.887000,  0.438000
  0.889000,  0.436500
  0.891000,  0.433500
  0.893000,  0.428900
  0.895000,  0.422600
  0.897000,  0.414900
  0.899000,  0.406000
  0.901000,  0.395700
  0.903000,  0.384300
  0.905000,  0.371600
  0.907000,  0.357600
  0.909000,  0.342400
  0.911000,  0.325900
  0.913000,  0.308400
  0.915000,  0.289900
  0.917000,  0.270600
  0.919000,  0.250300
  0.921000,  0.229200
  0.923000,  0.207400
  0.925000,  0.184700
  0.927000,  0.161200
  0.929000,  0.137100
  0.931000,  0.112600
  0.933000,  0.087600
  0.935000,  0.062100
  0.937000,  0.036400
  0.939000,  0.010400
  0.941000, -0.015600
  0.943000, -0.041500
  0.945000, -0.067600
  0.947000, -0.093800
  0.949000, -0.119800
  0.951000, -0.145600
  0.953000, -0.171200
  0.955000, -0.196600
  0.957000, -0.221600
  0.959000, -0.246200
  0.961000, -0.270500
  0.963000, -0.294300
  0.965000, -0.317300
  0.967000, -0.339600
  0.969000, -0.361500
  0.971000, -0.382600
  0.973000, -0.403000
  0.975000, -0.422900
  0.977000, -0.442000
  0.979000, -0.460200
  0.981000, -0.477800
  0.983000, -0.494600
  0.985000, -0.510600
  0.987000, -0.525800
  0.989000, -0.539900
  0.991000, -0.553400
  0.993000, -0.566100
  0.995000, -0.577900
  0.997000, -0.588600
  0.999000, -0.598500
  1.001000, -0.607600
  1.003000, -0.615800
  1.005000, -0.623100
  1.007000, -0.629900
  1.009000, -0.635800
  1.011000, -0.640900
  1.013000, -0.645300
  1.015000, -0.648900
  1.017000, -0.651600
  1.019000, -0.653700
  1.021000, -0.655200
  1.023000, -0.656100
  1.025000, -0.656300
  1.027000, -0.655900
  1.029000, -0.654800
  1.031000, -0.653200
  1.033000, -0.651000
  1.035000, -0.648400
  1.037000, -0.645200
  1.039000, -0.641700
  1.041000, -0.637800
  1.043000, -0.633500
  1.045000, -0.628800
  1.047000, -0.623700
  1.049000, -0.618200
  1.051000, -0.612300
  1.053000, -0.606000
  1.055000, -0.599500
  1.057000, -0.592800
  1.059000, -0.585700
  1.061000, -0.578200
  1.063000, -0.570500
  1.065000, -0.562700
  1.067000, -0.554800
  1.069000, -0.546700
  1.071000, -0.538200
  1.073000, -0.529300
  1.075000, -0.520200
  1.077000, -0.510900
  1.079000, -0.501600
  1.081000, -0.492000
  1.083000, -0.482300
  1.085000, -0.472300
  1.087000, -0.462200
  1.089000, -0.451800
  1.091000, -0.441200
  1.093000, -0.430700
  1.095000, -0.419900
  1.097000, -0.409100
  1.099000, -0.398300
  1.101000, -0.387200
  1.103000, -0.376000
  1.105000, -0.364900
  1.107000, -0.353700
  1.109000, -0.342300
  1.111000, -0.330700
  1.113000, -0.319200
  1.115000, -0.307700
  1.117000, -0.296300
  1.119000, -0.284800
  1.121000, -0.273400
  1.123000, -0.261900
  1.125000, -0.250400
  1.127000, -0.239200
  1.129000, -0.228100
  1.131000, -0.217000
  1.133000, -0.205900
  1.135000, -0.195000
  1.137000, -0.184400
  1.139000, -0.173900
  1.141000, -0.163500
  1.143000, -0.153400
  1.145000, -0.143500
  1.147000, -0.133800
  1.149000, -0.124300
  1.151000, -0.114800
  1.153000, -0.105700
  1.155000, -0.097000
  1.157000, -0.088700
  1.159000, -0.080900
  1.161000, -0.073200
  1.163000, -0.065700
  1.165000, -0.058600
  1.167000, -0.051700
  1.169000, -0.045100
  1.171000, -0.038800
  1.173000, -0.032900
  1.175000, -0.027300
  1.177000, -0.022000
  1.179000, -0.016800
  1.181000, -0.012100
  1.183000, -0.007800
  1.185000, -0.003700
  1.187000,  0.000100
  1.189000,  0.003500
  1.191000,  0.006700
  1.193000,  0.009700
  1.195000,  0.012500
  1.197000,  0.015000
  1.199000,  0.017400
  1.201000,  0.019400
  1.203000,  0.021200
  1.205000,  0.022700
  1.207000,  0.024100
  1.209000,  0.025200
  1.211000,  0.026100
  1.213000,  0.026900
  1.215000,  0.027500
  1.217000,  0.028000
  1.219000,  0.028200
  1.221000,  0.028400
  1.223000,  0.028400
  1.225000,  0.028300
  1.227000,  0.028100
  1.229000,  0.027700
  1.231000,  0.027100
  1.233000,  0.026400
  1.235000,  0.025700
  1.237000,  0.024700
  1.239000,  0.023800
  1.241000,  0.022800
  1.243000,  0.021500
  1.245000,  0.020100
  1.247000,  0.018700
  1.249000,  0.017300
  1.251000,  0.015700
  1.253000,  0.014200
  1.255000,  0.012600
  1.257000,  0.010900
  1.259000,  0.009300
  1.261000,  0.007700
  1.263000,  0.006000
  1.265000,  0.004200
  1.267000,  0.002400
  1.269000,  0.000600
  1.271000, -0.001300
  1.273000, -0.003200
  1.275000, -0.005100
  1.277000, -0.006900
  1.279000, -0.008800
  1.281000, -0.010700
  1.283000, -0.012500
  1.285000, -0.014300
  1.287000, -0.016100
  1.289000, -0.017800
  1.291000, -0.019500
  1.293000, -0.021200
  1.295000, -0.023000
  1.297000, -0.024600
  1.299000, -0.026200
  1.301000, -0.027700
  1.303000, -0.029200
  1.305000, -0.030800
  1.307000, -0.032200
  1.309000, -0.033500
  1.311000, -0.034600
  1.313000, -0.035700
  1.315000, -0.036700
  1.317000, -0.037600
  1.319000, -0.038300
  1.321000, -0.039000
  1.323000, -0.039500
  1.325000, -0.039900
  1.327000, -0.040100
  1.329000, -0.040200
  1.331000, -0.040100
  1.333000, -0.039800
  1.335000, -0.039300
  1.337000, -0.038700
  1.339000, -0.037900
  1.341000, -0.036800
  1.343000, -0.035600
  1.345000, -0.034100
  1.347000, -0.032400
  1.349000, -0.030500
  1.351000, -0.028400
  1.353000, -0.026200
  1.355000, -0.023800
  1.357000, -0.021100
  1.359000, -0.018200
  1.361000, -0.015000
  1.363000, -0.011500
  1.365000, -0.007800
  1.367000, -0.004000
  1.369000, -0.000100
  1.371000,  0.004200
  1.373000,  0.008700
  1.375000,  0.013400
  1.377000,  0.018000
  1.379000,  0.023000
  1.381000,  0.028400
  1.383000,  0.033800
  1.385000,  0.039100
  1.387000,  0.044600
  1.389000,  0.050000
  1.391000,  0.055600
  1.393000,  0.061200
  1.395000,  0.066700
  1.397000,  0.072100
  1.399000,  0.077000
