# z (nm)   (kJ/mol)
  0.3790   15.75340
  0.3810   15.48830
  0.3830   15.22450
  0.3850   14.94680
  0.3870   14.70250
  0.3890   14.47000
  0.3910   14.22100
  0.3930   13.98290
  0.3950   13.76190
  0.3970   13.54820
  0.3990   13.34970
  0.4010   13.16010
  0.4030   12.97370
  0.4050   12.79570
  0.4070   12.62580
  0.4090   12.46220
  0.4110   12.30520
  0.4130   12.15440
  0.4150   12.01140
  0.4170   11.87670
  0.4190   11.74860
  0.4210   11.62720
  0.4230   11.51180
  0.4250   11.40260
  0.4270   11.29980
  0.4290   11.20090
  0.4310   11.10630
  0.4330   11.01650
  0.4350   10.92930
  0.4370   10.84600
  0.4390   10.76650
  0.4410   10.69160
  0.4430   10.61960
  0.4450   10.55060
  0.4470   10.48740
  0.4490   10.42820
  0.4510   10.37120
  0.4530   10.31850
  0.4550   10.26970
  0.4570   10.22170
  0.4590   10.17430
  0.4610   10.12900
  0.4630   10.08310
  0.4650   10.03690
  0.4670    9.99220
  0.4690    9.94700
  0.4710    9.89780
  0.4730    9.84540
  0.4750    9.79260
  0.4770    9.73740
  0.4790    9.68060
  0.4810    9.62290
  0.4830    9.56690
  0.4850    9.50420
  0.4870    9.42880
  0.4890    9.34960
  0.4910    9.26390
  0.4930    9.16990
  0.4950    9.07330
  0.4970    8.96970
  0.4990    8.85410
  0.5010    8.73490
  0.5030    8.61320
  0.5050    8.48050
  0.5070    8.34380
  0.5090    8.20530
  0.5110    8.06040
  0.5130    7.91210
  0.5150    7.75770
  0.5170    7.59820
  0.5190    7.43550
  0.5210    7.27010
  0.5230    7.10410
  0.5250    6.93470
  0.5270    6.76370
  0.5290    6.59210
  0.5310    6.41610
  0.5330    6.23760
  0.5350    6.05950
  0.5370    5.88010
  0.5390    5.70100
  0.5410    5.52380
  0.5430    5.34830
  0.5450    5.17190
  0.5470    4.99370
  0.5490    4.81750
  0.5510    4.64320
  0.5530    4.47210
  0.5550    4.30200
  0.5570    4.13170
  0.5590    3.96470
  0.5610    3.79890
  0.5630    3.63230
  0.5650    3.46820
  0.5670    3.30710
  0.5690    3.14430
  0.5710    2.97980
  0.5730    2.81740
  0.5750    2.65830
  0.5770    2.49930
  0.5790    2.34120
  0.5810    2.18420
  0.5830    2.02660
  0.5850    1.86720
  0.5870    1.70730
  0.5890    1.54960
  0.5910    1.39200
  0.5930    1.23550
  0.5950    1.07970
  0.5970    0.92320
  0.5990    0.76600
  0.6010    0.60890
  0.6030    0.45380
  0.6050    0.29830
  0.6070    0.14280
  0.6090   -0.01190
  0.6110   -0.16660
  0.6130   -0.31920
  0.6150   -0.46890
  0.6170   -0.61630
  0.6190   -0.76080
  0.6210   -0.90330
  0.6230   -1.04400
  0.6250   -1.18130
  0.6270   -1.31540
  0.6290   -1.44560
  0.6310   -1.57250
  0.6330   -1.69740
  0.6350   -1.81860
  0.6370   -1.93480
  0.6390   -2.04710
  0.6410   -2.15520
  0.6430   -2.25890
  0.6450   -2.35840
  0.6470   -2.45380
  0.6490   -2.54430
  0.6510   -2.62930
  0.6530   -2.70940
  0.6550   -2.78500
  0.6570   -2.85500
  0.6590   -2.91940
  0.6610   -2.97920
  0.6630   -3.03450
  0.6650   -3.08410
  0.6670   -3.12850
  0.6690   -3.16750
  0.6710   -3.20140
  0.6730   -3.23110
  0.6750   -3.25610
  0.6770   -3.27600
  0.6790   -3.29150
  0.6810   -3.30330
  0.6830   -3.31000
  0.6850   -3.31240
  0.6870   -3.31120
  0.6890   -3.30610
  0.6910   -3.29710
  0.6930   -3.28430
  0.6950   -3.26810
  0.6970   -3.24850
  0.6990   -3.22570
  0.7010   -3.20000
  0.7030   -3.17170
  0.7050   -3.14070
  0.7070   -3.10740
  0.7090   -3.07170
  0.7110   -3.03350
  0.7130   -2.99350
  0.7150   -2.95200
  0.7170   -2.90880
  0.7190   -2.86350
  0.7210   -2.81670
  0.7230   -2.76900
  0.7250   -2.71990
  0.7270   -2.66930
  0.7290   -2.61820
  0.7310   -2.56640
  0.7330   -2.51340
  0.7350   -2.45970
  0.7370   -2.40520
  0.7390   -2.35030
  0.7410   -2.29470
  0.7430   -2.23850
  0.7450   -2.18190
  0.7470   -2.12520
  0.7490   -2.06820
  0.7510   -2.01090
  0.7530   -1.95340
  0.7550   -1.89590
  0.7570   -1.83860
  0.7590   -1.78110
  0.7610   -1.72360
  0.7630   -1.66620
  0.7650   -1.60900
  0.7670   -1.55190
  0.7690   -1.49490
  0.7710   -1.43820
  0.7730   -1.38210
  0.7750   -1.32620
  0.7770   -1.27070
  0.7790   -1.21560
  0.7810   -1.16060
  0.7830   -1.10610
  0.7850   -1.05250
  0.7870   -0.99910
  0.7890   -0.94630
  0.7910   -0.89430
  0.7930   -0.84290
  0.7950   -0.79280
  0.7970   -0.74410
  0.7990   -0.69580
  0.8010   -0.64830
  0.8030   -0.60190
  0.8050   -0.55620
  0.8070   -0.51140
  0.8090   -0.46780
  0.8110   -0.42560
  0.8130   -0.38460
  0.8150   -0.34420
  0.8170   -0.30540
  0.8190   -0.26800
  0.8210   -0.23180
  0.8230   -0.19710
  0.8250   -0.16400
  0.8270   -0.13210
  0.8290   -0.10140
  0.8310   -0.07230
  0.8330   -0.04470
  0.8350   -0.01850
  0.8370    0.00630
  0.8390    0.02960
  0.8410    0.05160
  0.8430    0.07160
  0.8450    0.08990
  0.8470    0.10680
  0.8490    0.12190
  0.8510    0.13530
  0.8530    0.14740
  0.8550    0.15800
  0.8570    0.16700
  0.8590    0.17440
  0.8610    0.18030
  0.8630    0.18470
  0.8650    0.18770
  0.8670    0.18910
  0.8690    0.18910
  0.8710    0.18780
  0.8730    0.18490
  0.8750    0.18100
  0.8770    0.17590
  0.8790    0.16930
  0.8810    0.16140
  0.8830    0.15250
  0.8850    0.14280
  0.8870    0.13200
  0.8890    0.12030
  0.8910    0.10740
  0.8930    0.09350
  0.8950    0.07870
  0.8970    0.06310
  0.8990    0.04640
  0.9010    0.02890
  0.9030    0.01100
  0.9050   -0.00740
  0.9070   -0.02650
  0.9090   -0.04600
  0.9110   -0.06600
  0.9130   -0.08620
  0.9150   -0.10670
  0.9170   -0.12760
  0.9190   -0.14880
  0.9210   -0.17020
  0.9230   -0.19170
  0.9250   -0.21330
  0.9270   -0.23490
  0.9290   -0.25670
  0.9310   -0.27840
  0.9330   -0.30000
  0.9350   -0.32120
  0.9370   -0.34230
  0.9390   -0.36310
  0.9410   -0.38360
  0.9430   -0.40390
  0.9450   -0.42370
  0.9470   -0.44310
  0.9490   -0.46200
  0.9510   -0.48040
  0.9530   -0.49820
  0.9550   -0.51540
  0.9570   -0.53200
  0.9590   -0.54800
  0.9610   -0.56320
  0.9630   -0.57770
  0.9650   -0.59140
  0.9670   -0.60450
  0.9690   -0.61660
  0.9710   -0.62820
  0.9730   -0.63930
  0.9750   -0.64950
  0.9770   -0.65880
  0.9790   -0.66700
  0.9810   -0.67460
  0.9830   -0.68150
  0.9850   -0.68740
  0.9870   -0.69260
  0.9890   -0.69690
  0.9910   -0.70040
  0.9930   -0.70290
  0.9950   -0.70480
  0.9970   -0.70570
  0.9990   -0.70590
  1.0010   -0.70520
  1.0030   -0.70370
  1.0050   -0.70140
  1.0070   -0.69860
  1.0090   -0.69490
  1.0110   -0.69050
  1.0130   -0.68540
  1.0150   -0.67960
  1.0170   -0.67310
  1.0190   -0.66590
  1.0210   -0.65790
  1.0230   -0.64930
  1.0250   -0.64020
  1.0270   -0.63040
  1.0290   -0.62020
  1.0310   -0.60950
  1.0330   -0.59820
  1.0350   -0.58640
  1.0370   -0.57400
  1.0390   -0.56120
  1.0410   -0.54800
  1.0430   -0.53450
  1.0450   -0.52070
  1.0470   -0.50650
  1.0490   -0.49200
  1.0510   -0.47730
  1.0530   -0.46220
  1.0550   -0.44690
  1.0570   -0.43150
  1.0590   -0.41590
  1.0610   -0.40000
  1.0630   -0.38390
  1.0650   -0.36780
  1.0670   -0.35170
  1.0690   -0.33580
  1.0710   -0.31980
  1.0730   -0.30380
  1.0750   -0.28780
  1.0770   -0.27200
  1.0790   -0.25620
  1.0810   -0.24040
  1.0830   -0.22470
  1.0850   -0.20920
  1.0870   -0.19400
  1.0890   -0.17900
  1.0910   -0.16420
  1.0930   -0.14960
  1.0950   -0.13530
  1.0970   -0.12120
  1.0990   -0.10720
  1.1010   -0.09340
  1.1030   -0.08020
  1.1050   -0.06730
  1.1070   -0.05470
  1.1090   -0.04240
  1.1110   -0.03030
  1.1130   -0.01860
  1.1150   -0.00720
  1.1170    0.00380
  1.1190    0.01450
  1.1210    0.02470
  1.1230    0.03460
  1.1250    0.04420
  1.1270    0.05330
  1.1290    0.06190
  1.1310    0.07020
  1.1330    0.07800
  1.1350    0.08550
  1.1370    0.09260
  1.1390    0.09930
  1.1410    0.10550
  1.1430    0.11130
  1.1450    0.11680
  1.1470    0.12190
  1.1490    0.12650
  1.1510    0.13080
  1.1530    0.13480
  1.1550    0.13850
  1.1570    0.14180
  1.1590    0.14470
  1.1610    0.14720
  1.1630    0.14930
  1.1650    0.15100
  1.1670    0.15240
  1.1690    0.15350
  1.1710    0.15420
  1.1730    0.15450
  1.1750    0.15460
  1.1770    0.15430
  1.1790    0.15350
  1.1810    0.15250
  1.1830    0.15120
  1.1850    0.14950
  1.1870    0.14760
  1.1890    0.14540
  1.1910    0.14290
  1.1930    0.14000
  1.1950    0.13700
  1.1970    0.13370
  1.1990    0.13020
  1.2010    0.12640
  1.2030    0.12220
  1.2050    0.11790
  1.2070    0.11320
  1.2090    0.10860
  1.2110    0.10400
  1.2130    0.09920
  1.2150    0.09430
  1.2170    0.08920
  1.2190    0.08400
  1.2210    0.07880
  1.2230    0.07330
  1.2250    0.06790
  1.2270    0.06240
  1.2290    0.05690
  1.2310    0.05140
  1.2330    0.04590
  1.2350    0.04030
  1.2370    0.03490
  1.2390    0.02950
  1.2410    0.02400
  1.2430    0.01850
  1.2450    0.01310
  1.2470    0.00760
  1.2490    0.00240
  1.2510   -0.00260
  1.2530   -0.00740
  1.2550   -0.01200
  1.2570   -0.01650
  1.2590   -0.02110
  1.2610   -0.02560
  1.2630   -0.02980
  1.2650   -0.03380
  1.2670   -0.03760
  1.2690   -0.04130
  1.2710   -0.04470
  1.2730   -0.04790
  1.2750   -0.05100
  1.2770   -0.05380
  1.2790   -0.05650
  1.2810   -0.05910
  1.2830   -0.06140
  1.2850   -0.06350
  1.2870   -0.06540
  1.2890   -0.06730
  1.2910   -0.06890
  1.2930   -0.07030
  1.2950   -0.07170
  1.2970   -0.07270
  1.2990   -0.07360
  1.3010   -0.07440
  1.3030   -0.07490
  1.3050   -0.07520
  1.3070   -0.07540
  1.3090   -0.07540
  1.3110   -0.07540
  1.3130   -0.07520
  1.3150   -0.07480
  1.3170   -0.07430
  1.3190   -0.07360
  1.3210   -0.07270
  1.3230   -0.07160
  1.3250   -0.07020
  1.3270   -0.06860
  1.3290   -0.06680
  1.3310   -0.06480
  1.3330   -0.06260
  1.3350   -0.06020
  1.3370   -0.05760
  1.3390   -0.05470
  1.3410   -0.05160
  1.3430   -0.04820
  1.3450   -0.04460
  1.3470   -0.04090
  1.3490   -0.03670
  1.3510   -0.03240
  1.3530   -0.02770
  1.3550   -0.02280
  1.3570   -0.01760
  1.3590   -0.01210
  1.3610   -0.00640
  1.3630   -0.00060
  1.3650    0.00580
  1.3670    0.01240
  1.3690    0.01910
  1.3710    0.02600
  1.3730    0.03310
  1.3750    0.04050
  1.3770    0.04820
  1.3790    0.05600
  1.3810    0.06370
  1.3830    0.07150
  1.3850    0.07960
  1.3870    0.08760
  1.3890    0.09560
  1.3910    0.10360
  1.3930    0.11150
  1.3950    0.11920
  1.3970    0.12670
  1.3990    0.13380
