# z (nm)   (kJ/mol)
  0.531000, 31.324400
  0.533000, 31.123800
  0.535000, 30.907700
  0.537000, 30.697300
  0.539000, 30.479600
  0.541000, 30.242200
  0.543000, 29.997900
  0.545000, 29.745400
  0.547000, 29.477400
  0.549000, 29.212600
  0.551000, 28.955400
  0.553000, 28.681800
  0.555000, 28.398700
  0.557000, 28.112100
  0.559000, 27.812700
  0.561000, 27.503100
  0.563000, 27.184900
  0.565000, 26.862100
  0.567000, 26.528700
  0.569000, 26.184400
  0.571000, 25.831000
  0.573000, 25.467600
  0.575000, 25.093700
  0.577000, 24.708200
  0.579000, 24.320300
  0.581000, 23.924100
  0.583000, 23.514200
  0.585000, 23.093000
  0.587000, 22.664600
  0.589000, 22.228700
  0.591000, 21.781100
  0.593000, 21.325100
  0.595000, 20.862400
  0.597000, 20.391100
  0.599000, 19.911500
  0.601000, 19.424800
  0.603000, 18.929300
  0.605000, 18.427300
  0.607000, 17.922100
  0.609000, 17.414300
  0.611000, 16.900200
  0.613000, 16.378000
  0.615000, 15.854200
  0.617000, 15.327200
  0.619000, 14.797000
  0.621000, 14.269400
  0.623000, 13.748300
  0.625000, 13.224200
  0.627000, 12.700400
  0.629000, 12.183600
  0.631000, 11.669600
  0.633000, 11.161600
  0.635000, 10.657700
  0.637000, 10.161100
  0.639000,  9.667000
  0.641000,  9.168300
  0.643000,  8.678000
  0.645000,  8.199300
  0.647000,  7.723200
  0.649000,  7.258400
  0.651000,  6.804900
  0.653000,  6.355600
  0.655000,  5.914400
  0.657000,  5.480500
  0.659000,  5.054500
  0.661000,  4.641200
  0.663000,  4.237800
  0.665000,  3.845100
  0.667000,  3.464900
  0.669000,  3.094200
  0.671000,  2.733700
  0.673000,  2.384600
  0.675000,  2.046400
  0.677000,  1.719100
  0.679000,  1.402800
  0.681000,  1.097700
  0.683000,  0.805700
  0.685000,  0.524900
  0.687000,  0.254000
  0.689000, -0.005300
  0.691000, -0.251900
  0.693000, -0.486600
  0.695000, -0.710100
  0.697000, -0.922200
  0.699000, -1.122500
  0.701000, -1.312000
  0.703000, -1.491300
  0.705000, -1.659500
  0.707000, -1.817600
  0.709000, -1.964300
  0.711000, -2.100700
  0.713000, -2.226600
  0.715000, -2.340900
  0.717000, -2.445000
  0.719000, -2.539000
  0.721000, -2.623100
  0.723000, -2.698700
  0.725000, -2.764500
  0.727000, -2.820300
  0.729000, -2.867600
  0.731000, -2.904900
  0.733000, -2.933000
  0.735000, -2.953900
  0.737000, -2.968100
  0.739000, -2.973900
  0.741000, -2.971100
  0.743000, -2.962700
  0.745000, -2.948300
  0.747000, -2.927400
  0.749000, -2.900600
  0.751000, -2.868000
  0.753000, -2.830300
  0.755000, -2.787400
  0.757000, -2.740600
  0.759000, -2.689600
  0.761000, -2.634400
  0.763000, -2.575500
  0.765000, -2.513000
  0.767000, -2.448000
  0.769000, -2.379800
  0.771000, -2.308700
  0.773000, -2.235700
  0.775000, -2.159900
  0.777000, -2.081900
  0.779000, -2.002600
  0.781000, -1.922100
  0.783000, -1.840900
  0.785000, -1.758600
  0.787000, -1.675000
  0.789000, -1.590700
  0.791000, -1.505100
  0.793000, -1.418600
  0.795000, -1.331400
  0.797000, -1.244000
  0.799000, -1.156600
  0.801000, -1.069300
  0.803000, -0.982100
  0.805000, -0.894200
  0.807000, -0.806100
  0.809000, -0.718400
  0.811000, -0.631200
  0.813000, -0.544200
  0.815000, -0.457500
  0.817000, -0.371300
  0.819000, -0.285800
  0.821000, -0.200900
  0.823000, -0.117000
  0.825000, -0.033900
  0.827000,  0.048200
  0.829000,  0.129300
  0.831000,  0.209400
  0.833000,  0.288100
  0.835000,  0.365700
  0.837000,  0.442000
  0.839000,  0.516700
  0.841000,  0.589700
  0.843000,  0.661100
  0.845000,  0.730700
  0.847000,  0.798300
  0.849000,  0.863800
  0.851000,  0.927000
  0.853000,  0.988100
  0.855000,  1.047300
  0.857000,  1.103900
  0.859000,  1.158300
  0.861000,  1.210000
  0.863000,  1.258900
  0.865000,  1.305300
  0.867000,  1.349200
  0.869000,  1.390200
  0.871000,  1.428300
  0.873000,  1.463300
  0.875000,  1.495400
  0.877000,  1.524600
  0.879000,  1.550800
  0.881000,  1.573800
  0.883000,  1.593700
  0.885000,  1.610500
  0.887000,  1.624200
  0.889000,  1.634800
  0.891000,  1.642300
  0.893000,  1.646600
  0.895000,  1.647900
  0.897000,  1.646100
  0.899000,  1.641000
  0.901000,  1.632800
  0.903000,  1.621800
  0.905000,  1.607900
  0.907000,  1.591100
  0.909000,  1.571500
  0.911000,  1.549300
  0.913000,  1.524400
  0.915000,  1.496900
  0.917000,  1.466700
  0.919000,  1.434400
  0.921000,  1.400100
  0.923000,  1.363400
  0.925000,  1.324000
  0.927000,  1.282800
  0.929000,  1.240000
  0.931000,  1.195500
  0.933000,  1.149400
  0.935000,  1.101600
  0.937000,  1.052500
  0.939000,  1.002100
  0.941000,  0.950400
  0.943000,  0.897600
  0.945000,  0.843900
  0.947000,  0.789600
  0.949000,  0.734700
  0.951000,  0.679300
  0.953000,  0.623500
  0.955000,  0.567600
  0.957000,  0.511700
  0.959000,  0.455700
  0.961000,  0.399800
  0.963000,  0.344000
  0.965000,  0.288300
  0.967000,  0.233100
  0.969000,  0.178700
  0.971000,  0.124700
  0.973000,  0.071300
  0.975000,  0.018900
  0.977000, -0.032300
  0.979000, -0.082700
  0.981000, -0.132100
  0.983000, -0.180500
  0.985000, -0.227300
  0.987000, -0.272700
  0.989000, -0.316700
  0.991000, -0.359200
  0.993000, -0.400100
  0.995000, -0.439500
  0.997000, -0.477500
  0.999000, -0.513800
  1.001000, -0.548300
  1.003000, -0.580900
  1.005000, -0.611700
  1.007000, -0.640800
  1.009000, -0.668300
  1.011000, -0.693900
  1.013000, -0.717700
  1.015000, -0.739600
  1.017000, -0.759700
  1.019000, -0.778000
  1.021000, -0.794500
  1.023000, -0.809200
  1.025000, -0.822000
  1.027000, -0.833100
  1.029000, -0.842400
  1.031000, -0.850200
  1.033000, -0.856200
  1.035000, -0.860600
  1.037000, -0.863500
  1.039000, -0.864800
  1.041000, -0.864500
  1.043000, -0.862800
  1.045000, -0.859500
  1.047000, -0.855000
  1.049000, -0.849300
  1.051000, -0.842200
  1.053000, -0.833900
  1.055000, -0.824400
  1.057000, -0.813900
  1.059000, -0.802500
  1.061000, -0.789900
  1.063000, -0.776400
  1.065000, -0.762200
  1.067000, -0.747100
  1.069000, -0.731200
  1.071000, -0.714500
  1.073000, -0.697100
  1.075000, -0.679200
  1.077000, -0.660700
  1.079000, -0.641600
  1.081000, -0.622100
  1.083000, -0.602300
  1.085000, -0.582100
  1.087000, -0.561500
  1.089000, -0.540700
  1.091000, -0.519700
  1.093000, -0.498600
  1.095000, -0.477100
  1.097000, -0.455700
  1.099000, -0.434200
  1.101000, -0.412700
  1.103000, -0.391000
  1.105000, -0.369300
  1.107000, -0.347800
  1.109000, -0.326400
  1.111000, -0.305100
  1.113000, -0.284000
  1.115000, -0.263000
  1.117000, -0.242300
  1.119000, -0.221800
  1.121000, -0.201300
  1.123000, -0.181100
  1.125000, -0.161400
  1.127000, -0.141900
  1.129000, -0.122800
  1.131000, -0.103800
  1.133000, -0.085100
  1.135000, -0.066900
  1.137000, -0.049200
  1.139000, -0.031700
  1.141000, -0.014700
  1.143000,  0.001800
  1.145000,  0.017900
  1.147000,  0.033700
  1.149000,  0.049000
  1.151000,  0.063900
  1.153000,  0.078300
  1.155000,  0.092100
  1.157000,  0.105500
  1.159000,  0.118500
  1.161000,  0.131000
  1.163000,  0.142800
  1.165000,  0.154100
  1.167000,  0.164700
  1.169000,  0.174900
  1.171000,  0.184600
  1.173000,  0.193600
  1.175000,  0.202200
  1.177000,  0.210100
  1.179000,  0.217400
  1.181000,  0.224200
  1.183000,  0.230300
  1.185000,  0.235900
  1.187000,  0.240900
  1.189000,  0.245300
  1.191000,  0.249100
  1.193000,  0.252400
  1.195000,  0.255100
  1.197000,  0.257300
  1.199000,  0.259000
  1.201000,  0.260100
  1.203000,  0.260700
  1.205000,  0.260900
  1.207000,  0.260300
  1.209000,  0.259300
  1.211000,  0.257800
  1.213000,  0.255800
  1.215000,  0.253400
  1.217000,  0.250600
  1.219000,  0.247400
  1.221000,  0.243700
  1.223000,  0.239500
  1.225000,  0.235100
  1.227000,  0.230400
  1.229000,  0.225200
  1.231000,  0.219700
  1.233000,  0.213900
  1.235000,  0.207800
  1.237000,  0.201300
  1.239000,  0.194600
  1.241000,  0.187700
  1.243000,  0.180500
  1.245000,  0.173100
  1.247000,  0.165400
  1.249000,  0.157700
  1.251000,  0.149700
  1.253000,  0.141600
  1.255000,  0.133400
  1.257000,  0.125000
  1.259000,  0.116400
  1.261000,  0.107700
  1.263000,  0.099000
  1.265000,  0.090100
  1.267000,  0.081300
  1.269000,  0.072400
  1.271000,  0.063500
  1.273000,  0.054600
  1.275000,  0.045500
  1.277000,  0.036500
  1.279000,  0.027500
  1.281000,  0.018500
  1.283000,  0.009500
  1.285000,  0.000500
  1.287000, -0.008400
  1.289000, -0.017300
  1.291000, -0.026000
  1.293000, -0.034600
  1.295000, -0.043100
  1.297000, -0.051600
  1.299000, -0.059900
  1.301000, -0.068000
  1.303000, -0.076000
  1.305000, -0.083900
  1.307000, -0.091500
  1.309000, -0.099000
  1.311000, -0.106300
  1.313000, -0.113400
  1.315000, -0.120200
  1.317000, -0.126700
  1.319000, -0.132900
  1.321000, -0.139000
  1.323000, -0.144800
  1.325000, -0.150300
  1.327000, -0.155500
  1.329000, -0.160300
  1.331000, -0.164700
  1.333000, -0.168700
  1.335000, -0.172300
  1.337000, -0.175600
  1.339000, -0.178500
  1.341000, -0.180900
  1.343000, -0.182800
  1.345000, -0.184300
  1.347000, -0.185300
  1.349000, -0.185800
  1.351000, -0.185800
  1.353000, -0.185100
  1.355000, -0.184000
  1.357000, -0.182700
  1.359000, -0.180700
  1.361000, -0.178100
  1.363000, -0.175100
  1.365000, -0.171500
  1.367000, -0.167400
  1.369000, -0.162800
  1.371000, -0.157700
  1.373000, -0.152000
  1.375000, -0.146100
  1.377000, -0.139700
  1.379000, -0.132800
  1.381000, -0.125400
  1.383000, -0.117700
  1.385000, -0.109700
  1.387000, -0.101300
  1.389000, -0.092900
  1.391000, -0.084400
  1.393000, -0.075300
  1.395000, -0.066100
  1.397000, -0.056900
  1.399000, -0.047800
