# z (nm)   (kJ/mol)
  0.463000, 31.873200
  0.465000, 31.805300
  0.467000, 31.725700
  0.469000, 31.636300
  0.471000, 31.548000
  0.473000, 31.459200
  0.475000, 31.364500
  0.477000, 31.268800
  0.479000, 31.169000
  0.481000, 31.061800
  0.483000, 30.948000
  0.485000, 30.827800
  0.487000, 30.703900
  0.489000, 30.572400
  0.491000, 30.435500
  0.493000, 30.295700
  0.495000, 30.151000
  0.497000, 30.001800
  0.499000, 29.845500
  0.501000, 29.680200
  0.503000, 29.508900
  0.505000, 29.332600
  0.507000, 29.150500
  0.509000, 28.962500
  0.511000, 28.769300
  0.513000, 28.569500
  0.515000, 28.369400
  0.517000, 28.161900
  0.519000, 27.942900
  0.521000, 27.722200
  0.523000, 27.499000
  0.525000, 27.269800
  0.527000, 27.033400
  0.529000, 26.799100
  0.531000, 26.560900
  0.533000, 26.307500
  0.535000, 26.052600
  0.537000, 25.794600
  0.539000, 25.524100
  0.541000, 25.251300
  0.543000, 24.973800
  0.545000, 24.692700
  0.547000, 24.408300
  0.549000, 24.112100
  0.551000, 23.808400
  0.553000, 23.499400
  0.555000, 23.179300
  0.557000, 22.849600
  0.559000, 22.513400
  0.561000, 22.168900
  0.563000, 21.817600
  0.565000, 21.456900
  0.567000, 21.086500
  0.569000, 20.710600
  0.571000, 20.326900
  0.573000, 19.933000
  0.575000, 19.527700
  0.577000, 19.115600
  0.579000, 18.702900
  0.581000, 18.282700
  0.583000, 17.851700
  0.585000, 17.414500
  0.587000, 16.965200
  0.589000, 16.508500
  0.591000, 16.051400
  0.593000, 15.581900
  0.595000, 15.106500
  0.597000, 14.636700
  0.599000, 14.162700
  0.601000, 13.684900
  0.603000, 13.207800
  0.605000, 12.731200
  0.607000, 12.258400
  0.609000, 11.786700
  0.611000, 11.318100
  0.613000, 10.848800
  0.615000, 10.373200
  0.617000,  9.896400
  0.619000,  9.420900
  0.621000,  8.956300
  0.623000,  8.499000
  0.625000,  8.045800
  0.627000,  7.601000
  0.629000,  7.165500
  0.631000,  6.741900
  0.633000,  6.326100
  0.635000,  5.911500
  0.637000,  5.502500
  0.639000,  5.103000
  0.641000,  4.713700
  0.643000,  4.334800
  0.645000,  3.968500
  0.647000,  3.616500
  0.649000,  3.273800
  0.651000,  2.939100
  0.653000,  2.616000
  0.655000,  2.307900
  0.657000,  2.011900
  0.659000,  1.726400
  0.661000,  1.450700
  0.663000,  1.186500
  0.665000,  0.933500
  0.667000,  0.691600
  0.669000,  0.462400
  0.671000,  0.245100
  0.673000,  0.036400
  0.675000, -0.160900
  0.677000, -0.347300
  0.679000, -0.522600
  0.681000, -0.687100
  0.683000, -0.842100
  0.685000, -0.984900
  0.687000, -1.118100
  0.689000, -1.241500
  0.691000, -1.354200
  0.693000, -1.458000
  0.695000, -1.552400
  0.697000, -1.637000
  0.699000, -1.712700
  0.701000, -1.778500
  0.703000, -1.834800
  0.705000, -1.883300
  0.707000, -1.924300
  0.709000, -1.957400
  0.711000, -1.982800
  0.713000, -2.000200
  0.715000, -2.011500
  0.717000, -2.016900
  0.719000, -2.015500
  0.721000, -2.008000
  0.723000, -1.994900
  0.725000, -1.977900
  0.727000, -1.957000
  0.729000, -1.931300
  0.731000, -1.902300
  0.733000, -1.870500
  0.735000, -1.834300
  0.737000, -1.796300
  0.739000, -1.756200
  0.741000, -1.714300
  0.743000, -1.671800
  0.745000, -1.627600
  0.747000, -1.581200
  0.749000, -1.533300
  0.751000, -1.485200
  0.753000, -1.437000
  0.755000, -1.388600
  0.757000, -1.340500
  0.759000, -1.293200
  0.761000, -1.245900
  0.763000, -1.199000
  0.765000, -1.152700
  0.767000, -1.106800
  0.769000, -1.061900
  0.771000, -1.017900
  0.773000, -0.974900
  0.775000, -0.933100
  0.777000, -0.892200
  0.779000, -0.852200
  0.781000, -0.813400
  0.783000, -0.775600
  0.785000, -0.738700
  0.787000, -0.702500
  0.789000, -0.666600
  0.791000, -0.631100
  0.793000, -0.596900
  0.795000, -0.563400
  0.797000, -0.530300
  0.799000, -0.497700
  0.801000, -0.465300
  0.803000, -0.433100
  0.805000, -0.401100
  0.807000, -0.369400
  0.809000, -0.338200
  0.811000, -0.307200
  0.813000, -0.275900
  0.815000, -0.244400
  0.817000, -0.213000
  0.819000, -0.181300
  0.821000, -0.149000
  0.823000, -0.116600
  0.825000, -0.084200
  0.827000, -0.051700
  0.829000, -0.018900
  0.831000,  0.014400
  0.833000,  0.048000
  0.835000,  0.081900
  0.837000,  0.116300
  0.839000,  0.150800
  0.841000,  0.185300
  0.843000,  0.220300
  0.845000,  0.255200
  0.847000,  0.290300
  0.849000,  0.325500
  0.851000,  0.360300
  0.853000,  0.394900
  0.855000,  0.429500
  0.857000,  0.464200
  0.859000,  0.498600
  0.861000,  0.532400
  0.863000,  0.565800
  0.865000,  0.598600
  0.867000,  0.630600
  0.869000,  0.661800
  0.871000,  0.692100
  0.873000,  0.721300
  0.875000,  0.749500
  0.877000,  0.776400
  0.879000,  0.802700
  0.881000,  0.827600
  0.883000,  0.850700
  0.885000,  0.872100
  0.887000,  0.892000
  0.889000,  0.910200
  0.891000,  0.926700
  0.893000,  0.941400
  0.895000,  0.954300
  0.897000,  0.965000
  0.899000,  0.974000
  0.901000,  0.981100
  0.903000,  0.985800
  0.905000,  0.988200
  0.907000,  0.988900
  0.909000,  0.987600
  0.911000,  0.984100
  0.913000,  0.978600
  0.915000,  0.971500
  0.917000,  0.962200
  0.919000,  0.950600
  0.921000,  0.936900
  0.923000,  0.921600
  0.925000,  0.904700
  0.927000,  0.885900
  0.929000,  0.865400
  0.931000,  0.843300
  0.933000,  0.819700
  0.935000,  0.794600
  0.937000,  0.768200
  0.939000,  0.740500
  0.941000,  0.711900
  0.943000,  0.682300
  0.945000,  0.651600
  0.947000,  0.620200
  0.949000,  0.588100
  0.951000,  0.555400
  0.953000,  0.522200
  0.955000,  0.488600
  0.957000,  0.454900
  0.959000,  0.420900
  0.961000,  0.386700
  0.963000,  0.352400
  0.965000,  0.318300
  0.967000,  0.284500
  0.969000,  0.251100
  0.971000,  0.218000
  0.973000,  0.185300
  0.975000,  0.153200
  0.977000,  0.121700
  0.979000,  0.090800
  0.981000,  0.060500
  0.983000,  0.031100
  0.985000,  0.002500
  0.987000, -0.025100
  0.989000, -0.051800
  0.991000, -0.077500
  0.993000, -0.102400
  0.995000, -0.126200
  0.997000, -0.149100
  0.999000, -0.171000
  1.001000, -0.192000
  1.003000, -0.211800
  1.005000, -0.230600
  1.007000, -0.248300
  1.009000, -0.265100
  1.011000, -0.280800
  1.013000, -0.295500
  1.015000, -0.309200
  1.017000, -0.321900
  1.019000, -0.333600
  1.021000, -0.344400
  1.023000, -0.354300
  1.025000, -0.363300
  1.027000, -0.371500
  1.029000, -0.378700
  1.031000, -0.385000
  1.033000, -0.390600
  1.035000, -0.395400
  1.037000, -0.399300
  1.039000, -0.402500
  1.041000, -0.405300
  1.043000, -0.407300
  1.045000, -0.408700
  1.047000, -0.409500
  1.049000, -0.409600
  1.051000, -0.409000
  1.053000, -0.408000
  1.055000, -0.406500
  1.057000, -0.404500
  1.059000, -0.402100
  1.061000, -0.399300
  1.063000, -0.395700
  1.065000, -0.391800
  1.067000, -0.387500
  1.069000, -0.382800
  1.071000, -0.377700
  1.073000, -0.372100
  1.075000, -0.366300
  1.077000, -0.360100
  1.079000, -0.353800
  1.081000, -0.347200
  1.083000, -0.340300
  1.085000, -0.333000
  1.087000, -0.325600
  1.089000, -0.317900
  1.091000, -0.309900
  1.093000, -0.301800
  1.095000, -0.293400
  1.097000, -0.284900
  1.099000, -0.276400
  1.101000, -0.267600
  1.103000, -0.258700
  1.105000, -0.249700
  1.107000, -0.240600
  1.109000, -0.231500
  1.111000, -0.222100
  1.113000, -0.212600
  1.115000, -0.203100
  1.117000, -0.193500
  1.119000, -0.183800
  1.121000, -0.174200
  1.123000, -0.164600
  1.125000, -0.155000
  1.127000, -0.145300
  1.129000, -0.135600
  1.131000, -0.125900
  1.133000, -0.116400
  1.135000, -0.107000
  1.137000, -0.097600
  1.139000, -0.088300
  1.141000, -0.078900
  1.143000, -0.069700
  1.145000, -0.060600
  1.147000, -0.051600
  1.149000, -0.042600
  1.151000, -0.033900
  1.153000, -0.025300
  1.155000, -0.017000
  1.157000, -0.008900
  1.159000, -0.000900
  1.161000,  0.006800
  1.163000,  0.014600
  1.165000,  0.022000
  1.167000,  0.029200
  1.169000,  0.036100
  1.171000,  0.042800
  1.173000,  0.049300
  1.175000,  0.055600
  1.177000,  0.061800
  1.179000,  0.067700
  1.181000,  0.073300
  1.183000,  0.078400
  1.185000,  0.083300
  1.187000,  0.088100
  1.189000,  0.092500
  1.191000,  0.096600
  1.193000,  0.100500
  1.195000,  0.103900
  1.197000,  0.107100
  1.199000,  0.109900
  1.201000,  0.112300
  1.203000,  0.114400
  1.205000,  0.116100
  1.207000,  0.117600
  1.209000,  0.118800
  1.211000,  0.119700
  1.213000,  0.120400
  1.215000,  0.120800
  1.217000,  0.120900
  1.219000,  0.120600
  1.221000,  0.120200
  1.223000,  0.119400
  1.225000,  0.118300
  1.227000,  0.116900
  1.229000,  0.115400
  1.231000,  0.113700
  1.233000,  0.111600
  1.235000,  0.109300
  1.237000,  0.106800
  1.239000,  0.104100
  1.241000,  0.101300
  1.243000,  0.098600
  1.245000,  0.095500
  1.247000,  0.092100
  1.249000,  0.088600
  1.251000,  0.085000
  1.253000,  0.081300
  1.255000,  0.077500
  1.257000,  0.073700
  1.259000,  0.069700
  1.261000,  0.065500
  1.263000,  0.061300
  1.265000,  0.057200
  1.267000,  0.052900
  1.269000,  0.048600
  1.271000,  0.044300
  1.273000,  0.039900
  1.275000,  0.035600
  1.277000,  0.031200
  1.279000,  0.026800
  1.281000,  0.022300
  1.283000,  0.017800
  1.285000,  0.013400
  1.287000,  0.009000
  1.289000,  0.004500
  1.291000, -0.000100
  1.293000, -0.004600
  1.295000, -0.009100
  1.297000, -0.013600
  1.299000, -0.018100
  1.301000, -0.022400
  1.303000, -0.026900
  1.305000, -0.031400
  1.307000, -0.035800
  1.309000, -0.040300
  1.311000, -0.044700
  1.313000, -0.048900
  1.315000, -0.053000
  1.317000, -0.057200
  1.319000, -0.061500
  1.321000, -0.065700
  1.323000, -0.069600
  1.325000, -0.073400
  1.327000, -0.077200
  1.329000, -0.080800
  1.331000, -0.084200
  1.333000, -0.087400
  1.335000, -0.090400
  1.337000, -0.093200
  1.339000, -0.095700
  1.341000, -0.097800
  1.343000, -0.099900
  1.345000, -0.101700
  1.347000, -0.103200
  1.349000, -0.104600
  1.351000, -0.105600
  1.353000, -0.106100
  1.355000, -0.106400
  1.357000, -0.106200
  1.359000, -0.105800
  1.361000, -0.105100
  1.363000, -0.103900
  1.365000, -0.102300
  1.367000, -0.100300
  1.369000, -0.098000
  1.371000, -0.095400
  1.373000, -0.092200
  1.375000, -0.088700
  1.377000, -0.084700
  1.379000, -0.080300
  1.381000, -0.075700
  1.383000, -0.070700
  1.385000, -0.065300
  1.387000, -0.059500
  1.389000, -0.053600
  1.391000, -0.047600
  1.393000, -0.041700
  1.395000, -0.035900
  1.397000, -0.029800
  1.399000, -0.023700
