# z (nm)   (kJ/mol)
  0.585000, 18.486500
  0.589000, 17.671700
  0.591000, 17.121800
  0.593000, 16.622900
  0.595000, 16.092900
  0.597000, 15.564900
  0.599000, 15.024600
  0.601000, 14.486500
  0.603000, 13.947800
  0.605000, 13.379900
  0.607000, 12.805800
  0.609000, 12.234900
  0.611000, 11.674300
  0.613000, 11.122900
  0.615000, 10.573400
  0.617000, 10.047400
  0.619000,  9.538200
  0.621000,  9.034800
  0.623000,  8.546300
  0.625000,  8.074300
  0.627000,  7.617500
  0.629000,  7.169900
  0.631000,  6.735800
  0.633000,  6.322000
  0.635000,  5.922700
  0.637000,  5.539800
  0.639000,  5.174500
  0.641000,  4.825000
  0.643000,  4.491900
  0.645000,  4.174100
  0.647000,  3.874700
  0.649000,  3.593400
  0.651000,  3.324900
  0.653000,  3.071100
  0.655000,  2.833800
  0.657000,  2.612500
  0.659000,  2.403500
  0.661000,  2.205800
  0.663000,  2.021500
  0.665000,  1.848400
  0.667000,  1.686300
  0.669000,  1.535700
  0.671000,  1.394100
  0.673000,  1.262600
  0.675000,  1.143000
  0.677000,  1.032400
  0.679000,  0.929100
  0.681000,  0.835100
  0.683000,  0.749200
  0.685000,  0.670000
  0.687000,  0.597000
  0.689000,  0.530400
  0.691000,  0.470700
  0.693000,  0.416400
  0.695000,  0.366500
  0.697000,  0.322200
  0.699000,  0.282600
  0.701000,  0.245100
  0.703000,  0.212200
  0.705000,  0.184800
  0.707000,  0.157100
  0.709000,  0.130000
  0.711000,  0.106700
  0.713000,  0.083100
  0.715000,  0.059500
  0.717000,  0.036500
  0.719000,  0.013800
  0.721000, -0.007700
  0.723000, -0.030200
  0.725000, -0.053800
  0.727000, -0.078000
  0.729000, -0.103500
  0.731000, -0.129500
  0.733000, -0.155800
  0.735000, -0.184100
  0.737000, -0.214000
  0.739000, -0.245000
  0.741000, -0.277200
  0.743000, -0.310800
  0.745000, -0.345400
  0.747000, -0.381100
  0.749000, -0.417800
  0.751000, -0.455200
  0.753000, -0.493100
  0.755000, -0.531400
  0.757000, -0.569600
  0.759000, -0.607600
  0.761000, -0.646000
  0.763000, -0.683800
  0.765000, -0.720500
  0.767000, -0.756500
  0.769000, -0.791600
  0.771000, -0.825000
  0.773000, -0.856800
  0.775000, -0.887000
  0.777000, -0.915600
  0.779000, -0.942400
  0.781000, -0.967100
  0.783000, -0.989800
  0.785000, -1.010200
  0.787000, -1.027700
  0.789000, -1.042700
  0.791000, -1.055000
  0.793000, -1.064700
  0.795000, -1.071700
  0.797000, -1.075800
  0.799000, -1.077000
  0.801000, -1.075400
  0.803000, -1.071000
  0.805000, -1.063700
  0.807000, -1.053400
  0.809000, -1.040600
  0.811000, -1.025300
  0.813000, -1.007400
  0.815000, -0.986600
  0.817000, -0.963000
  0.819000, -0.937300
  0.821000, -0.909200
  0.823000, -0.878900
  0.825000, -0.846200
  0.827000, -0.811700
  0.829000, -0.775200
  0.831000, -0.736800
  0.833000, -0.697500
  0.835000, -0.656400
  0.837000, -0.614100
  0.839000, -0.571100
  0.841000, -0.527100
  0.843000, -0.482000
  0.845000, -0.435900
  0.847000, -0.389400
  0.849000, -0.342600
  0.851000, -0.295100
  0.853000, -0.247300
  0.855000, -0.199600
  0.857000, -0.152300
  0.859000, -0.105200
  0.861000, -0.058100
  0.863000, -0.010900
  0.865000,  0.035600
  0.867000,  0.081800
  0.869000,  0.127500
  0.871000,  0.172300
  0.873000,  0.216400
  0.875000,  0.259300
  0.877000,  0.301200
  0.879000,  0.341800
  0.881000,  0.380900
  0.883000,  0.418800
  0.885000,  0.455500
  0.887000,  0.491200
  0.889000,  0.525500
  0.891000,  0.558300
  0.893000,  0.589500
  0.895000,  0.618900
  0.897000,  0.646500
  0.899000,  0.672500
  0.901000,  0.697000
  0.903000,  0.719900
  0.905000,  0.740900
  0.907000,  0.760100
  0.909000,  0.777700
  0.911000,  0.793400
  0.913000,  0.807300
  0.915000,  0.819600
  0.917000,  0.830000
  0.919000,  0.838900
  0.921000,  0.846100
  0.923000,  0.851800
  0.925000,  0.856000
  0.927000,  0.858600
  0.929000,  0.859300
  0.931000,  0.858600
  0.933000,  0.856500
  0.935000,  0.853100
  0.937000,  0.848200
  0.939000,  0.841900
  0.941000,  0.834300
  0.943000,  0.825300
  0.945000,  0.815100
  0.947000,  0.803500
  0.949000,  0.790700
  0.951000,  0.777000
  0.953000,  0.762200
  0.955000,  0.746200
  0.957000,  0.729300
  0.959000,  0.711700
  0.961000,  0.693100
  0.963000,  0.673500
  0.965000,  0.653200
  0.967000,  0.632200
  0.969000,  0.610700
  0.971000,  0.588700
  0.973000,  0.566000
  0.975000,  0.542700
  0.977000,  0.519000
  0.979000,  0.494800
  0.981000,  0.470100
  0.983000,  0.445100
  0.985000,  0.419600
  0.987000,  0.394000
  0.989000,  0.368200
  0.991000,  0.342100
  0.993000,  0.316100
  0.995000,  0.289800
  0.997000,  0.263400
  0.999000,  0.236800
  1.001000,  0.210300
  1.003000,  0.183800
  1.005000,  0.157300
  1.007000,  0.130900
  1.009000,  0.104600
  1.011000,  0.078500
  1.013000,  0.052500
  1.015000,  0.026800
  1.017000,  0.001400
  1.019000, -0.023900
  1.021000, -0.048900
  1.023000, -0.073500
  1.025000, -0.097800
  1.027000, -0.121600
  1.029000, -0.144900
  1.031000, -0.167700
  1.033000, -0.190100
  1.035000, -0.212100
  1.037000, -0.233500
  1.039000, -0.254300
  1.041000, -0.274500
  1.043000, -0.294000
  1.045000, -0.312700
  1.047000, -0.330900
  1.049000, -0.348500
  1.051000, -0.365200
  1.053000, -0.381300
  1.055000, -0.396600
  1.057000, -0.411100
  1.059000, -0.424700
  1.061000, -0.437600
  1.063000, -0.449600
  1.065000, -0.460800
  1.067000, -0.471100
  1.069000, -0.480600
  1.071000, -0.489100
  1.073000, -0.496800
  1.075000, -0.503700
  1.077000, -0.509500
  1.079000, -0.514600
  1.081000, -0.519000
  1.083000, -0.522400
  1.085000, -0.524800
  1.087000, -0.526300
  1.089000, -0.526900
  1.091000, -0.526700
  1.093000, -0.525700
  1.095000, -0.524000
  1.097000, -0.521500
  1.099000, -0.518000
  1.101000, -0.513600
  1.103000, -0.508600
  1.105000, -0.503000
  1.107000, -0.496700
  1.109000, -0.489600
  1.111000, -0.482000
  1.113000, -0.473800
  1.115000, -0.465000
  1.117000, -0.455600
  1.119000, -0.445500
  1.121000, -0.435000
  1.123000, -0.424200
  1.125000, -0.412900
  1.127000, -0.401300
  1.129000, -0.389400
  1.131000, -0.377100
  1.133000, -0.364700
  1.135000, -0.352000
  1.137000, -0.338900
  1.139000, -0.325600
  1.141000, -0.312100
  1.143000, -0.298500
  1.145000, -0.284900
  1.147000, -0.271100
  1.149000, -0.257300
  1.151000, -0.243600
  1.153000, -0.230000
  1.155000, -0.216300
  1.157000, -0.202800
  1.159000, -0.189600
  1.161000, -0.176600
  1.163000, -0.163600
  1.165000, -0.150800
  1.167000, -0.138200
  1.169000, -0.125900
  1.171000, -0.113800
  1.173000, -0.101900
  1.175000, -0.090300
  1.177000, -0.079000
  1.179000, -0.068000
  1.181000, -0.057300
  1.183000, -0.046900
  1.185000, -0.037000
  1.187000, -0.027400
  1.189000, -0.018200
  1.191000, -0.009200
  1.193000, -0.000600
  1.195000,  0.007700
  1.197000,  0.015600
  1.199000,  0.023100
  1.201000,  0.030300
  1.203000,  0.037100
  1.205000,  0.043500
  1.207000,  0.049700
  1.209000,  0.055700
  1.211000,  0.061300
  1.213000,  0.066600
  1.215000,  0.071700
  1.217000,  0.076500
  1.219000,  0.080900
  1.221000,  0.085100
  1.223000,  0.088900
  1.225000,  0.092400
  1.227000,  0.095900
  1.229000,  0.099100
  1.231000,  0.101900
  1.233000,  0.104500
  1.235000,  0.106800
  1.237000,  0.108800
  1.239000,  0.110600
  1.241000,  0.112300
  1.243000,  0.113700
  1.245000,  0.114800
  1.247000,  0.115800
  1.249000,  0.116500
  1.251000,  0.117000
  1.253000,  0.117300
  1.255000,  0.117200
  1.257000,  0.116800
  1.259000,  0.116100
  1.261000,  0.115200
  1.263000,  0.114000
  1.265000,  0.112600
  1.267000,  0.110900
  1.269000,  0.109100
  1.271000,  0.107100
  1.273000,  0.104700
  1.275000,  0.102000
  1.277000,  0.099000
  1.279000,  0.095900
  1.281000,  0.092400
  1.283000,  0.088500
  1.285000,  0.084500
  1.287000,  0.080200
  1.289000,  0.075500
  1.291000,  0.070600
  1.293000,  0.065500
  1.295000,  0.060000
  1.297000,  0.054200
  1.299000,  0.048300
  1.301000,  0.042200
  1.303000,  0.035900
  1.305000,  0.029500
  1.307000,  0.022900
  1.309000,  0.016000
  1.311000,  0.009000
  1.313000,  0.002000
  1.315000, -0.005200
  1.317000, -0.012500
  1.319000, -0.019800
  1.321000, -0.027200
  1.323000, -0.034500
  1.325000, -0.041700
  1.327000, -0.049000
  1.329000, -0.056000
  1.331000, -0.063100
  1.333000, -0.070100
  1.335000, -0.077100
  1.337000, -0.083800
  1.339000, -0.090400
  1.341000, -0.096700
  1.343000, -0.102800
  1.345000, -0.108500
  1.347000, -0.114100
  1.349000, -0.119400
  1.351000, -0.124300
  1.353000, -0.128900
  1.355000, -0.133100
  1.357000, -0.137000
  1.359000, -0.140600
  1.361000, -0.143800
  1.363000, -0.146600
  1.365000, -0.148900
  1.367000, -0.150800
  1.369000, -0.152100
  1.371000, -0.153000
  1.373000, -0.153500
  1.375000, -0.153500
  1.377000, -0.152900
  1.379000, -0.152100
  1.381000, -0.150900
  1.383000, -0.149400
  1.385000, -0.147600
  1.387000, -0.145400
  1.389000, -0.143000
  1.391000, -0.140400
  1.393000, -0.137500
  1.395000, -0.134000
  1.397000, -0.130400
  1.399000, -0.127000
