# z (nm)   (kJ/mol)
  0.463000, 29.182800
  0.467000, 28.998300
  0.469000, 28.896300
  0.473000, 28.668700
  0.475000, 28.544300
  0.477000, 28.411600
  0.479000, 28.269900
  0.481000, 28.119900
  0.483000, 27.961600
  0.485000, 27.792700
  0.487000, 27.612300
  0.489000, 27.420800
  0.491000, 27.220100
  0.493000, 27.010600
  0.495000, 26.790200
  0.499000, 26.307800
  0.501000, 26.051100
  0.503000, 25.784600
  0.505000, 25.507700
  0.509000, 24.911500
  0.511000, 24.597200
  0.513000, 24.272000
  0.515000, 23.934900
  0.517000, 23.583200
  0.519000, 23.225000
  0.527000, 22.052000
  0.529000, 21.646800
  0.531000, 21.220200
  0.533000, 20.791800
  0.535000, 20.387500
  0.537000, 19.975700
  0.539000, 19.523300
  0.541000, 19.060300
  0.543000, 18.602100
  0.545000, 18.126200
  0.547000, 17.651500
  0.549000, 17.183600
  0.551000, 16.725600
  0.553000, 16.259900
  0.555000, 15.795700
  0.557000, 15.338700
  0.559000, 14.878600
  0.561000, 14.423100
  0.563000, 13.975600
  0.565000, 13.531200
  0.567000, 13.086100
  0.569000, 12.650300
  0.571000, 12.225200
  0.573000, 11.806500
  0.575000, 11.390200
  0.577000, 10.980100
  0.579000, 10.579400
  0.581000, 10.192000
  0.583000,  9.815400
  0.585000,  9.444200
  0.587000,  9.077900
  0.589000,  8.721500
  0.591000,  8.366900
  0.593000,  8.020400
  0.595000,  7.686400
  0.597000,  7.357200
  0.599000,  7.031900
  0.601000,  6.711900
  0.603000,  6.401500
  0.605000,  6.090200
  0.607000,  5.779200
  0.609000,  5.475600
  0.611000,  5.175900
  0.613000,  4.882500
  0.615000,  4.594300
  0.617000,  4.310000
  0.619000,  4.031600
  0.621000,  3.761100
  0.623000,  3.494400
  0.625000,  3.227900
  0.627000,  2.969800
  0.629000,  2.713300
  0.631000,  2.457600
  0.633000,  2.206700
  0.635000,  1.963900
  0.637000,  1.728200
  0.639000,  1.493500
  0.641000,  1.264600
  0.643000,  1.040000
  0.645000,  0.818200
  0.647000,  0.603600
  0.649000,  0.394900
  0.651000,  0.188000
  0.653000, -0.016700
  0.655000, -0.216700
  0.657000, -0.408500
  0.659000, -0.591600
  0.661000, -0.769900
  0.663000, -0.944200
  0.665000, -1.112300
  0.667000, -1.272400
  0.669000, -1.427900
  0.671000, -1.581100
  0.673000, -1.729400
  0.675000, -1.871700
  0.677000, -2.008300
  0.679000, -2.137900
  0.681000, -2.259700
  0.683000, -2.378400
  0.685000, -2.491100
  0.687000, -2.597300
  0.689000, -2.700400
  0.691000, -2.798900
  0.693000, -2.890700
  0.695000, -2.975600
  0.697000, -3.053400
  0.699000, -3.125100
  0.701000, -3.190500
  0.703000, -3.250600
  0.705000, -3.304400
  0.707000, -3.352100
  0.709000, -3.395300
  0.711000, -3.431700
  0.713000, -3.460800
  0.715000, -3.484000
  0.717000, -3.502500
  0.719000, -3.516900
  0.721000, -3.526600
  0.723000, -3.530700
  0.725000, -3.530500
  0.727000, -3.526100
  0.729000, -3.516400
  0.731000, -3.502400
  0.733000, -3.483200
  0.735000, -3.459600
  0.737000, -3.432300
  0.739000, -3.401900
  0.741000, -3.369600
  0.743000, -3.335400
  0.745000, -3.297900
  0.747000, -3.257700
  0.749000, -3.216900
  0.751000, -3.174500
  0.753000, -3.129800
  0.755000, -3.083600
  0.757000, -3.037500
  0.759000, -2.990100
  0.761000, -2.942200
  0.763000, -2.893900
  0.765000, -2.844800
  0.767000, -2.796500
  0.769000, -2.748400
  0.771000, -2.701500
  0.773000, -2.655800
  0.775000, -2.609000
  0.777000, -2.562800
  0.779000, -2.517900
  0.781000, -2.473400
  0.783000, -2.429600
  0.785000, -2.386500
  0.787000, -2.344400
  0.789000, -2.303200
  0.791000, -2.262700
  0.793000, -2.223400
  0.795000, -2.184600
  0.797000, -2.146800
  0.799000, -2.110300
  0.801000, -2.074600
  0.803000, -2.039500
  0.805000, -2.004600
  0.807000, -1.970100
  0.809000, -1.936200
  0.811000, -1.902600
  0.813000, -1.869500
  0.815000, -1.837000
  0.817000, -1.804300
  0.819000, -1.771700
  0.821000, -1.739000
  0.823000, -1.705900
  0.825000, -1.673100
  0.827000, -1.640300
  0.829000, -1.607100
  0.831000, -1.573900
  0.833000, -1.540200
  0.835000, -1.506200
  0.837000, -1.471800
  0.839000, -1.436900
  0.841000, -1.401900
  0.843000, -1.365900
  0.845000, -1.328900
  0.847000, -1.291400
  0.849000, -1.253300
  0.851000, -1.214900
  0.853000, -1.175800
  0.855000, -1.135600
  0.857000, -1.095200
  0.859000, -1.054300
  0.861000, -1.012700
  0.863000, -0.970800
  0.865000, -0.928600
  0.867000, -0.885900
  0.869000, -0.842800
  0.871000, -0.799800
  0.873000, -0.756900
  0.875000, -0.714000
  0.877000, -0.670900
  0.879000, -0.627700
  0.881000, -0.585100
  0.883000, -0.542900
  0.885000, -0.500800
  0.887000, -0.459500
  0.889000, -0.418800
  0.891000, -0.378300
  0.893000, -0.338800
  0.895000, -0.300400
  0.897000, -0.263300
  0.899000, -0.227300
  0.901000, -0.192400
  0.903000, -0.158600
  0.905000, -0.126300
  0.907000, -0.095900
  0.909000, -0.066900
  0.911000, -0.039400
  0.913000, -0.013700
  0.915000,  0.010000
  0.917000,  0.031900
  0.919000,  0.052000
  0.921000,  0.070400
  0.923000,  0.086500
  0.925000,  0.100400
  0.927000,  0.112400
  0.929000,  0.122500
  0.931000,  0.130700
  0.933000,  0.136700
  0.935000,  0.141100
  0.937000,  0.143500
  0.939000,  0.143600
  0.941000,  0.142200
  0.943000,  0.139400
  0.945000,  0.134700
  0.947000,  0.128100
  0.949000,  0.120400
  0.951000,  0.111300
  0.953000,  0.100400
  0.955000,  0.087600
  0.957000,  0.073400
  0.959000,  0.058400
  0.961000,  0.042600
  0.963000,  0.025800
  0.965000,  0.008100
  0.967000, -0.010600
  0.969000, -0.030200
  0.971000, -0.050000
  0.973000, -0.070200
  0.975000, -0.091400
  0.977000, -0.112500
  0.979000, -0.133500
  0.981000, -0.155300
  0.983000, -0.177300
  0.985000, -0.199300
  0.987000, -0.221400
  0.989000, -0.243300
  0.991000, -0.264600
  0.993000, -0.286000
  0.995000, -0.307700
  0.997000, -0.328800
  0.999000, -0.348900
  1.001000, -0.368400
  1.003000, -0.387800
  1.005000, -0.406800
  1.007000, -0.425000
  1.009000, -0.442600
  1.011000, -0.459800
  1.013000, -0.476400
  1.015000, -0.492300
  1.017000, -0.507300
  1.019000, -0.521500
  1.021000, -0.535100
  1.023000, -0.548000
  1.025000, -0.560400
  1.027000, -0.572000
  1.029000, -0.582800
  1.031000, -0.592900
  1.033000, -0.602200
  1.035000, -0.610700
  1.037000, -0.618600
  1.039000, -0.626000
  1.041000, -0.632800
  1.043000, -0.639000
  1.045000, -0.644500
  1.047000, -0.649400
  1.049000, -0.653600
  1.051000, -0.657200
  1.053000, -0.660200
  1.055000, -0.662700
  1.057000, -0.664700
  1.059000, -0.666200
  1.061000, -0.667100
  1.063000, -0.667600
  1.065000, -0.667500
  1.067000, -0.667100
  1.069000, -0.666300
  1.071000, -0.665100
  1.073000, -0.663400
  1.075000, -0.661100
  1.077000, -0.658600
  1.079000, -0.655800
  1.081000, -0.652500
  1.083000, -0.648900
  1.085000, -0.645000
  1.087000, -0.640800
  1.089000, -0.636300
  1.091000, -0.631400
  1.093000, -0.625900
  1.095000, -0.620300
  1.097000, -0.614400
  1.099000, -0.608000
  1.101000, -0.601500
  1.103000, -0.594600
  1.105000, -0.587300
  1.107000, -0.579700
  1.109000, -0.571700
  1.111000, -0.563500
  1.113000, -0.555100
  1.115000, -0.546400
  1.117000, -0.537500
  1.119000, -0.528300
  1.121000, -0.518800
  1.123000, -0.509000
  1.125000, -0.499100
  1.127000, -0.488800
  1.129000, -0.478300
  1.131000, -0.467900
  1.133000, -0.457200
  1.135000, -0.446200
  1.137000, -0.435300
  1.139000, -0.424000
  1.141000, -0.412600
  1.143000, -0.401100
  1.145000, -0.389300
  1.147000, -0.377500
  1.149000, -0.365900
  1.151000, -0.354300
  1.153000, -0.342300
  1.155000, -0.329900
  1.157000, -0.317900
  1.159000, -0.305900
  1.161000, -0.293800
  1.163000, -0.281800
  1.165000, -0.270000
  1.167000, -0.258200
  1.169000, -0.246300
  1.171000, -0.235000
  1.173000, -0.223800
  1.175000, -0.212400
  1.177000, -0.201100
  1.179000, -0.190100
  1.181000, -0.179300
  1.183000, -0.168400
  1.185000, -0.157800
  1.187000, -0.147600
  1.189000, -0.137700
  1.191000, -0.128000
  1.193000, -0.118400
  1.195000, -0.109300
  1.197000, -0.100400
  1.199000, -0.091700
  1.201000, -0.083500
  1.203000, -0.075400
  1.205000, -0.067500
  1.207000, -0.060100
  1.209000, -0.052900
  1.211000, -0.046000
  1.213000, -0.039500
  1.215000, -0.033300
  1.217000, -0.027300
  1.219000, -0.021600
  1.221000, -0.016200
  1.223000, -0.011200
  1.225000, -0.006600
  1.227000, -0.002300
  1.229000,  0.001900
  1.231000,  0.005800
  1.233000,  0.009300
  1.235000,  0.012400
  1.237000,  0.015400
  1.239000,  0.018300
  1.241000,  0.020700
  1.243000,  0.022800
  1.245000,  0.024800
  1.247000,  0.026500
  1.249000,  0.028100
  1.251000,  0.029300
  1.253000,  0.030300
  1.255000,  0.031000
  1.257000,  0.031600
  1.259000,  0.031900
  1.261000,  0.031900
  1.263000,  0.031800
  1.265000,  0.031500
  1.267000,  0.031000
  1.269000,  0.030300
  1.271000,  0.029600
  1.273000,  0.028600
  1.275000,  0.027300
  1.277000,  0.026000
  1.279000,  0.024600
  1.281000,  0.023100
  1.283000,  0.021600
  1.285000,  0.019800
  1.287000,  0.018000
  1.289000,  0.016100
  1.291000,  0.014200
  1.293000,  0.012100
  1.295000,  0.009900
  1.297000,  0.007700
  1.299000,  0.005400
  1.301000,  0.003200
  1.303000,  0.001000
  1.305000, -0.001300
  1.307000, -0.003500
  1.309000, -0.005900
  1.311000, -0.008300
  1.313000, -0.010400
  1.315000, -0.012500
  1.317000, -0.014500
  1.319000, -0.016300
  1.321000, -0.018300
  1.323000, -0.020100
  1.325000, -0.021700
  1.327000, -0.023300
  1.329000, -0.024900
  1.331000, -0.026300
  1.333000, -0.027600
  1.335000, -0.028800
  1.337000, -0.029600
  1.339000, -0.030100
  1.341000, -0.030400
  1.343000, -0.030500
  1.345000, -0.030500
  1.347000, -0.030300
  1.349000, -0.029800
  1.351000, -0.028900
  1.353000, -0.027700
  1.355000, -0.026400
  1.357000, -0.024500
  1.359000, -0.022400
  1.361000, -0.020200
  1.363000, -0.017500
  1.365000, -0.014500
  1.367000, -0.011100
  1.369000, -0.007500
  1.371000, -0.003600
  1.373000,  0.000800
  1.375000,  0.005600
  1.377000,  0.010700
  1.379000,  0.015900
  1.381000,  0.021400
  1.383000,  0.027100
  1.385000,  0.033200
  1.387000,  0.039300
  1.389000,  0.045500
  1.391000,  0.051800
  1.393000,  0.058200
  1.395000,  0.064700
  1.397000,  0.071000
  1.399000,  0.076700
