# z (nm)   (kJ/mol)
  0.335000, 21.010000
  0.337000, 20.697200
  0.339000, 20.390100
  0.341000, 20.083800
  0.343000, 19.754900
  0.345000, 19.421500
  0.347000, 19.079100
  0.349000, 18.728800
  0.351000, 18.373000
  0.353000, 18.006100
  0.355000, 17.632100
  0.357000, 17.257600
  0.359000, 16.881700
  0.361000, 16.498800
  0.363000, 16.113500
  0.365000, 15.733400
  0.367000, 15.352700
  0.369000, 14.973700
  0.371000, 14.594300
  0.373000, 14.214800
  0.375000, 13.845900
  0.377000, 13.483300
  0.379000, 13.123100
  0.381000, 12.771000
  0.383000, 12.424900
  0.385000, 12.088000
  0.387000, 11.759400
  0.389000, 11.436900
  0.391000, 11.126400
  0.393000, 10.826100
  0.395000, 10.536800
  0.397000, 10.258800
  0.399000,  9.991900
  0.401000,  9.740600
  0.403000,  9.504400
  0.405000,  9.276600
  0.407000,  9.054300
  0.409000,  8.847200
  0.411000,  8.655300
  0.413000,  8.472800
  0.415000,  8.301500
  0.417000,  8.140500
  0.419000,  7.987200
  0.421000,  7.843700
  0.423000,  7.712900
  0.425000,  7.594400
  0.427000,  7.482700
  0.429000,  7.378600
  0.431000,  7.285400
  0.433000,  7.201800
  0.435000,  7.127100
  0.437000,  7.061700
  0.439000,  7.004500
  0.441000,  6.954100
  0.443000,  6.912900
  0.445000,  6.880700
  0.447000,  6.856100
  0.449000,  6.839400
  0.451000,  6.830400
  0.453000,  6.828300
  0.455000,  6.832600
  0.457000,  6.843800
  0.459000,  6.861300
  0.461000,  6.884500
  0.463000,  6.913900
  0.465000,  6.949200
  0.467000,  6.989000
  0.469000,  7.032700
  0.471000,  7.082300
  0.473000,  7.134800
  0.475000,  7.189500
  0.477000,  7.246800
  0.479000,  7.305400
  0.481000,  7.365000
  0.483000,  7.423900
  0.485000,  7.483300
  0.487000,  7.543200
  0.489000,  7.600700
  0.491000,  7.657500
  0.493000,  7.710900
  0.495000,  7.761000
  0.497000,  7.810100
  0.499000,  7.854200
  0.501000,  7.893200
  0.503000,  7.926300
  0.505000,  7.953800
  0.507000,  7.976000
  0.509000,  7.992800
  0.511000,  8.000800
  0.513000,  7.998200
  0.515000,  7.987900
  0.517000,  7.968800
  0.519000,  7.939400
  0.521000,  7.898900
  0.523000,  7.847300
  0.525000,  7.785300
  0.527000,  7.711700
  0.529000,  7.625600
  0.531000,  7.528000
  0.533000,  7.419900
  0.535000,  7.299900
  0.537000,  7.168400
  0.539000,  7.026700
  0.541000,  6.874400
  0.543000,  6.712300
  0.545000,  6.541000
  0.547000,  6.359900
  0.549000,  6.170500
  0.551000,  5.974000
  0.553000,  5.772000
  0.555000,  5.563800
  0.557000,  5.347300
  0.559000,  5.127900
  0.561000,  4.906600
  0.563000,  4.681500
  0.565000,  4.455500
  0.567000,  4.225400
  0.569000,  3.992900
  0.571000,  3.762700
  0.573000,  3.531000
  0.575000,  3.299500
  0.577000,  3.071900
  0.579000,  2.845200
  0.581000,  2.621100
  0.583000,  2.400700
  0.585000,  2.184000
  0.587000,  1.972400
  0.589000,  1.765600
  0.591000,  1.563700
  0.593000,  1.366600
  0.595000,  1.176200
  0.597000,  0.992700
  0.599000,  0.814700
  0.601000,  0.642600
  0.603000,  0.477600
  0.605000,  0.319700
  0.607000,  0.168400
  0.609000,  0.024600
  0.611000, -0.111800
  0.613000, -0.240600
  0.615000, -0.362300
  0.617000, -0.476700
  0.619000, -0.583600
  0.621000, -0.683500
  0.623000, -0.776700
  0.625000, -0.863200
  0.627000, -0.942300
  0.629000, -1.014700
  0.631000, -1.081000
  0.633000, -1.140500
  0.635000, -1.193800
  0.637000, -1.241500
  0.639000, -1.283800
  0.641000, -1.320500
  0.643000, -1.352100
  0.645000, -1.379000
  0.647000, -1.400800
  0.649000, -1.418000
  0.651000, -1.430600
  0.653000, -1.440500
  0.655000, -1.447700
  0.657000, -1.450500
  0.659000, -1.450200
  0.661000, -1.447700
  0.663000, -1.442300
  0.665000, -1.433800
  0.667000, -1.423100
  0.669000, -1.410200
  0.671000, -1.395800
  0.673000, -1.380500
  0.675000, -1.363800
  0.677000, -1.345800
  0.679000, -1.326300
  0.681000, -1.305200
  0.683000, -1.282900
  0.685000, -1.259700
  0.687000, -1.235800
  0.689000, -1.211100
  0.691000, -1.185600
  0.693000, -1.159200
  0.695000, -1.131900
  0.697000, -1.103500
  0.699000, -1.074400
  0.701000, -1.044700
  0.703000, -1.014300
  0.705000, -0.982800
  0.707000, -0.950400
  0.709000, -0.917500
  0.711000, -0.883900
  0.713000, -0.849300
  0.715000, -0.813800
  0.717000, -0.777500
  0.719000, -0.740400
  0.721000, -0.702600
  0.723000, -0.663800
  0.725000, -0.624300
  0.727000, -0.584200
  0.729000, -0.543200
  0.731000, -0.501600
  0.733000, -0.459500
  0.735000, -0.416800
  0.737000, -0.373600
  0.739000, -0.329700
  0.741000, -0.285500
  0.743000, -0.240900
  0.745000, -0.196000
  0.747000, -0.151000
  0.749000, -0.105800
  0.751000, -0.060600
  0.753000, -0.015500
  0.755000,  0.029400
  0.757000,  0.074000
  0.759000,  0.118400
  0.761000,  0.162300
  0.763000,  0.205600
  0.765000,  0.248500
  0.767000,  0.290400
  0.769000,  0.331600
  0.771000,  0.372000
  0.773000,  0.411400
  0.775000,  0.449800
  0.777000,  0.486600
  0.779000,  0.522100
  0.781000,  0.556500
  0.783000,  0.589500
  0.785000,  0.621300
  0.787000,  0.651600
  0.789000,  0.680200
  0.791000,  0.707200
  0.793000,  0.732900
  0.795000,  0.756800
  0.797000,  0.778900
  0.799000,  0.799300
  0.801000,  0.817900
  0.803000,  0.834700
  0.805000,  0.849700
  0.807000,  0.863000
  0.809000,  0.874500
  0.811000,  0.884200
  0.813000,  0.892300
  0.815000,  0.898700
  0.817000,  0.903200
  0.819000,  0.905800
  0.821000,  0.906700
  0.823000,  0.906000
  0.825000,  0.903500
  0.827000,  0.899300
  0.829000,  0.893600
  0.831000,  0.886400
  0.833000,  0.877600
  0.835000,  0.867500
  0.837000,  0.856100
  0.839000,  0.843400
  0.841000,  0.829100
  0.843000,  0.813600
  0.845000,  0.796900
  0.847000,  0.778900
  0.849000,  0.759900
  0.851000,  0.739900
  0.853000,  0.719000
  0.855000,  0.697200
  0.857000,  0.674400
  0.859000,  0.650700
  0.861000,  0.626300
  0.863000,  0.601000
  0.865000,  0.575200
  0.867000,  0.548800
  0.869000,  0.521800
  0.871000,  0.494500
  0.873000,  0.466700
  0.875000,  0.438500
  0.877000,  0.409900
  0.879000,  0.381100
  0.881000,  0.352000
  0.883000,  0.322700
  0.885000,  0.293300
  0.887000,  0.263800
  0.889000,  0.234500
  0.891000,  0.205100
  0.893000,  0.175700
  0.895000,  0.146400
  0.897000,  0.117200
  0.899000,  0.088400
  0.901000,  0.059700
  0.903000,  0.031200
  0.905000,  0.003300
  0.907000, -0.024200
  0.909000, -0.051300
  0.911000, -0.077900
  0.913000, -0.104100
  0.915000, -0.129700
  0.917000, -0.154700
  0.919000, -0.179300
  0.921000, -0.203200
  0.923000, -0.226400
  0.925000, -0.249100
  0.927000, -0.270800
  0.929000, -0.291700
  0.931000, -0.311900
  0.933000, -0.331400
  0.935000, -0.350000
  0.937000, -0.367700
  0.939000, -0.384600
  0.941000, -0.400500
  0.943000, -0.415700
  0.945000, -0.429900
  0.947000, -0.443200
  0.949000, -0.455700
  0.951000, -0.467400
  0.953000, -0.478100
  0.955000, -0.487800
  0.957000, -0.496600
  0.959000, -0.504400
  0.961000, -0.511300
  0.963000, -0.517300
  0.965000, -0.522400
  0.967000, -0.526600
  0.969000, -0.529900
  0.971000, -0.532300
  0.973000, -0.533800
  0.975000, -0.534500
  0.977000, -0.534300
  0.979000, -0.533400
  0.981000, -0.531500
  0.983000, -0.528800
  0.985000, -0.525400
  0.987000, -0.521300
  0.989000, -0.516500
  0.991000, -0.510900
  0.993000, -0.504700
  0.995000, -0.497800
  0.997000, -0.490200
  0.999000, -0.482100
  1.001000, -0.473300
  1.003000, -0.464000
  1.005000, -0.454100
  1.007000, -0.443700
  1.009000, -0.432700
  1.011000, -0.421300
  1.013000, -0.409600
  1.015000, -0.397500
  1.017000, -0.385100
  1.019000, -0.372200
  1.021000, -0.359100
  1.023000, -0.345600
  1.025000, -0.331800
  1.027000, -0.317800
  1.029000, -0.303500
  1.031000, -0.289000
  1.033000, -0.274500
  1.035000, -0.259800
  1.037000, -0.244700
  1.039000, -0.229500
  1.041000, -0.214400
  1.043000, -0.199300
  1.045000, -0.184100
  1.047000, -0.169000
  1.049000, -0.154000
  1.051000, -0.139000
  1.053000, -0.124100
  1.055000, -0.109200
  1.057000, -0.094500
  1.059000, -0.080000
  1.061000, -0.065700
  1.063000, -0.051400
  1.065000, -0.037300
  1.067000, -0.023500
  1.069000, -0.010000
  1.071000,  0.003200
  1.073000,  0.016100
  1.075000,  0.028700
  1.077000,  0.041000
  1.079000,  0.052800
  1.081000,  0.064200
  1.083000,  0.075300
  1.085000,  0.086100
  1.087000,  0.096500
  1.089000,  0.106200
  1.091000,  0.115600
  1.093000,  0.124500
  1.095000,  0.132800
  1.097000,  0.140800
  1.099000,  0.148200
  1.101000,  0.155100
  1.103000,  0.161600
  1.105000,  0.167500
  1.107000,  0.172900
  1.109000,  0.177800
  1.111000,  0.182000
  1.113000,  0.185600
  1.115000,  0.188900
  1.117000,  0.191700
  1.119000,  0.194000
  1.121000,  0.195800
  1.123000,  0.197100
  1.125000,  0.197900
  1.127000,  0.198200
  1.129000,  0.197900
  1.131000,  0.197300
  1.133000,  0.196300
  1.135000,  0.194800
  1.137000,  0.193000
  1.139000,  0.190900
  1.141000,  0.188300
  1.143000,  0.185300
  1.145000,  0.182100
  1.147000,  0.178600
  1.149000,  0.174900
  1.151000,  0.170900
  1.153000,  0.166800
  1.155000,  0.162500
  1.157000,  0.157800
  1.159000,  0.153000
  1.161000,  0.148100
  1.163000,  0.143100
  1.165000,  0.138200
  1.167000,  0.133100
  1.169000,  0.127900
  1.171000,  0.122700
  1.173000,  0.117300
  1.175000,  0.112100
  1.177000,  0.106800
  1.179000,  0.101500
  1.181000,  0.096300
  1.183000,  0.091100
  1.185000,  0.086000
  1.187000,  0.080900
  1.189000,  0.075800
  1.191000,  0.070800
  1.193000,  0.066000
  1.195000,  0.061100
  1.197000,  0.056300
  1.199000,  0.051700
  1.201000,  0.047000
  1.203000,  0.042400
  1.205000,  0.037900
  1.207000,  0.033600
  1.209000,  0.029400
  1.211000,  0.025200
  1.213000,  0.021200
  1.215000,  0.017200
  1.217000,  0.013200
  1.219000,  0.009400
  1.221000,  0.005700
  1.223000,  0.002000
  1.225000, -0.001600
  1.227000, -0.005100
  1.229000, -0.008500
  1.231000, -0.011900
  1.233000, -0.015200
  1.235000, -0.018400
  1.237000, -0.021600
  1.239000, -0.024900
  1.241000, -0.028000
  1.243000, -0.030800
  1.245000, -0.033600
  1.247000, -0.036300
  1.249000, -0.038800
  1.251000, -0.041300
  1.253000, -0.043600
  1.255000, -0.045900
  1.257000, -0.047900
  1.259000, -0.049900
  1.261000, -0.051900
  1.263000, -0.053700
  1.265000, -0.055500
  1.267000, -0.057000
  1.269000, -0.058300
  1.271000, -0.059500
  1.273000, -0.060600
  1.275000, -0.061600
  1.277000, -0.062300
  1.279000, -0.062800
  1.281000, -0.063400
  1.283000, -0.063800
  1.285000, -0.064100
  1.287000, -0.064200
  1.289000, -0.064000
  1.291000, -0.063500
  1.293000, -0.063000
  1.295000, -0.062400
  1.297000, -0.061600
  1.299000, -0.060500
  1.301000, -0.059300
  1.303000, -0.057900
  1.305000, -0.056300
  1.307000, -0.054600
  1.309000, -0.052700
  1.311000, -0.050600
  1.313000, -0.048400
  1.315000, -0.046100
  1.317000, -0.043300
  1.319000, -0.040500
  1.321000, -0.037800
  1.323000, -0.034900
  1.325000, -0.031600
  1.327000, -0.028200
  1.329000, -0.024700
  1.331000, -0.021000
  1.333000, -0.017100
  1.335000, -0.013100
  1.337000, -0.009100
  1.339000, -0.004800
  1.341000, -0.000500
  1.343000,  0.004100
  1.345000,  0.008700
  1.347000,  0.013400
  1.349000,  0.018200
  1.351000,  0.023100
  1.353000,  0.028000
  1.355000,  0.033000
  1.357000,  0.038200
  1.359000,  0.043500
  1.361000,  0.048800
  1.363000,  0.054400
  1.365000,  0.059900
  1.367000,  0.065600
  1.369000,  0.071300
  1.371000,  0.076800
  1.373000,  0.082100
  1.375000,  0.087800
  1.377000,  0.093500
  1.379000,  0.099000
  1.381000,  0.104500
  1.383000,  0.109800
  1.385000,  0.115200
  1.387000,  0.120500
  1.389000,  0.125300
  1.391000,  0.129800
  1.393000,  0.134200
  1.395000,  0.138400
  1.397000,  0.142100
  1.399000,  0.145400
