# z (nm)   (kJ/mol)
  0.373000, 23.987500
  0.375000, 23.768900
  0.377000, 23.556600
  0.379000, 23.353300
  0.381000, 23.127800
  0.383000, 22.886200
  0.385000, 22.629600
  0.387000, 22.362000
  0.389000, 22.088900
  0.391000, 21.809500
  0.393000, 21.526200
  0.395000, 21.239800
  0.397000, 20.942800
  0.399000, 20.635800
  0.401000, 20.322200
  0.403000, 20.003800
  0.405000, 19.679200
  0.407000, 19.343400
  0.409000, 19.006100
  0.411000, 18.666100
  0.413000, 18.319600
  0.415000, 17.969800
  0.417000, 17.611100
  0.419000, 17.251500
  0.421000, 16.902600
  0.423000, 16.567800
  0.425000, 16.235800
  0.427000, 15.888400
  0.429000, 15.540600
  0.431000, 15.202500
  0.433000, 14.866000
  0.435000, 14.538300
  0.437000, 14.218000
  0.439000, 13.899600
  0.441000, 13.585900
  0.443000, 13.277500
  0.445000, 12.980500
  0.447000, 12.694900
  0.449000, 12.416900
  0.451000, 12.148200
  0.453000, 11.885000
  0.455000, 11.638400
  0.457000, 11.408000
  0.459000, 11.183600
  0.461000, 10.971200
  0.463000, 10.770100
  0.465000, 10.581200
  0.467000, 10.400500
  0.469000, 10.227900
  0.471000, 10.068400
  0.473000,  9.919500
  0.475000,  9.780700
  0.477000,  9.650800
  0.479000,  9.529400
  0.481000,  9.416700
  0.483000,  9.312500
  0.485000,  9.218400
  0.487000,  9.133800
  0.489000,  9.058200
  0.491000,  8.991200
  0.493000,  8.931000
  0.495000,  8.878000
  0.497000,  8.831200
  0.499000,  8.791000
  0.501000,  8.757700
  0.503000,  8.730700
  0.505000,  8.709500
  0.507000,  8.693300
  0.509000,  8.681800
  0.511000,  8.674300
  0.513000,  8.670900
  0.515000,  8.670600
  0.517000,  8.672900
  0.519000,  8.678100
  0.521000,  8.683400
  0.523000,  8.689200
  0.525000,  8.696600
  0.527000,  8.703100
  0.529000,  8.708000
  0.531000,  8.711300
  0.533000,  8.712300
  0.535000,  8.711500
  0.537000,  8.705100
  0.539000,  8.691200
  0.541000,  8.673000
  0.543000,  8.650500
  0.545000,  8.620500
  0.547000,  8.580500
  0.549000,  8.533700
  0.551000,  8.480600
  0.553000,  8.418400
  0.555000,  8.347000
  0.557000,  8.266300
  0.559000,  8.175800
  0.561000,  8.074400
  0.563000,  7.962500
  0.565000,  7.840700
  0.567000,  7.710800
  0.569000,  7.572600
  0.571000,  7.418700
  0.573000,  7.254600
  0.575000,  7.086600
  0.577000,  6.907400
  0.579000,  6.714700
  0.581000,  6.512500
  0.583000,  6.305100
  0.585000,  6.092500
  0.587000,  5.872600
  0.589000,  5.647500
  0.591000,  5.417000
  0.593000,  5.183400
  0.595000,  4.947100
  0.597000,  4.705700
  0.599000,  4.463000
  0.601000,  4.218300
  0.603000,  3.972400
  0.605000,  3.727100
  0.607000,  3.482400
  0.609000,  3.238500
  0.611000,  2.995000
  0.613000,  2.753300
  0.615000,  2.514800
  0.617000,  2.278400
  0.619000,  2.045600
  0.621000,  1.820400
  0.623000,  1.601800
  0.625000,  1.387300
  0.627000,  1.178300
  0.629000,  0.977000
  0.631000,  0.781300
  0.633000,  0.589800
  0.635000,  0.405500
  0.637000,  0.227500
  0.639000,  0.056700
  0.641000, -0.107500
  0.643000, -0.265200
  0.645000, -0.416000
  0.647000, -0.559500
  0.649000, -0.694700
  0.651000, -0.822700
  0.653000, -0.942900
  0.655000, -1.054500
  0.657000, -1.158200
  0.659000, -1.254700
  0.661000, -1.344600
  0.663000, -1.427900
  0.665000, -1.504200
  0.667000, -1.573600
  0.669000, -1.636500
  0.671000, -1.692500
  0.673000, -1.741800
  0.675000, -1.785000
  0.677000, -1.821800
  0.679000, -1.853000
  0.681000, -1.879100
  0.683000, -1.899300
  0.685000, -1.913900
  0.687000, -1.923800
  0.689000, -1.929500
  0.691000, -1.931600
  0.693000, -1.929600
  0.695000, -1.922800
  0.697000, -1.912400
  0.699000, -1.898900
  0.701000, -1.882300
  0.703000, -1.863300
  0.705000, -1.841500
  0.707000, -1.817000
  0.709000, -1.790700
  0.711000, -1.762200
  0.713000, -1.731600
  0.715000, -1.699600
  0.717000, -1.666400
  0.719000, -1.631800
  0.721000, -1.596100
  0.723000, -1.559500
  0.725000, -1.522000
  0.727000, -1.483400
  0.729000, -1.443900
  0.731000, -1.403800
  0.733000, -1.363400
  0.735000, -1.322600
  0.737000, -1.281300
  0.739000, -1.239800
  0.741000, -1.197800
  0.743000, -1.155500
  0.745000, -1.113100
  0.747000, -1.070300
  0.749000, -1.027300
  0.751000, -0.984300
  0.753000, -0.941100
  0.755000, -0.897900
  0.757000, -0.854400
  0.759000, -0.810600
  0.761000, -0.766800
  0.763000, -0.722900
  0.765000, -0.678700
  0.767000, -0.634400
  0.769000, -0.590000
  0.771000, -0.545600
  0.773000, -0.501100
  0.775000, -0.456400
  0.777000, -0.411800
  0.779000, -0.367100
  0.781000, -0.322500
  0.783000, -0.278000
  0.785000, -0.233500
  0.787000, -0.189100
  0.789000, -0.144900
  0.791000, -0.101000
  0.793000, -0.057300
  0.795000, -0.013900
  0.797000,  0.028900
  0.799000,  0.071300
  0.801000,  0.113300
  0.803000,  0.154900
  0.805000,  0.195800
  0.807000,  0.236300
  0.809000,  0.276500
  0.811000,  0.315500
  0.813000,  0.353400
  0.815000,  0.390300
  0.817000,  0.426500
  0.819000,  0.462000
  0.821000,  0.496000
  0.823000,  0.528600
  0.825000,  0.560200
  0.827000,  0.590600
  0.829000,  0.619700
  0.831000,  0.647700
  0.833000,  0.674300
  0.835000,  0.699400
  0.837000,  0.722800
  0.839000,  0.744700
  0.841000,  0.764700
  0.843000,  0.783100
  0.845000,  0.800000
  0.847000,  0.815000
  0.849000,  0.828200
  0.851000,  0.839700
  0.853000,  0.849400
  0.855000,  0.857100
  0.857000,  0.862900
  0.859000,  0.866700
  0.861000,  0.868800
  0.863000,  0.869000
  0.865000,  0.867500
  0.867000,  0.864400
  0.869000,  0.859300
  0.871000,  0.852400
  0.873000,  0.843900
  0.875000,  0.833600
  0.877000,  0.821700
  0.879000,  0.808200
  0.881000,  0.793200
  0.883000,  0.776700
  0.885000,  0.758800
  0.887000,  0.739500
  0.889000,  0.718700
  0.891000,  0.696800
  0.893000,  0.673700
  0.895000,  0.649400
  0.897000,  0.623900
  0.899000,  0.597400
  0.901000,  0.570200
  0.903000,  0.542100
  0.905000,  0.513300
  0.907000,  0.483900
  0.909000,  0.453800
  0.911000,  0.423100
  0.913000,  0.391700
  0.915000,  0.360200
  0.917000,  0.328500
  0.919000,  0.296300
  0.921000,  0.264200
  0.923000,  0.232200
  0.925000,  0.200100
  0.927000,  0.167900
  0.929000,  0.135600
  0.931000,  0.103700
  0.933000,  0.072100
  0.935000,  0.040700
  0.937000,  0.009600
  0.939000, -0.020900
  0.941000, -0.051000
  0.943000, -0.080500
  0.945000, -0.109200
  0.947000, -0.137300
  0.949000, -0.164800
  0.951000, -0.191500
  0.953000, -0.217600
  0.955000, -0.242800
  0.957000, -0.267200
  0.959000, -0.290600
  0.961000, -0.313000
  0.963000, -0.334600
  0.965000, -0.355400
  0.967000, -0.375100
  0.969000, -0.393800
  0.971000, -0.411600
  0.973000, -0.428400
  0.975000, -0.444000
  0.977000, -0.458600
  0.979000, -0.472200
  0.981000, -0.484700
  0.983000, -0.496300
  0.985000, -0.506800
  0.987000, -0.516300
  0.989000, -0.524600
  0.991000, -0.531800
  0.993000, -0.538100
  0.995000, -0.543300
  0.997000, -0.547400
  0.999000, -0.550600
  1.001000, -0.552800
  1.003000, -0.554200
  1.005000, -0.554500
  1.007000, -0.553900
  1.009000, -0.552600
  1.011000, -0.550400
  1.013000, -0.547200
  1.015000, -0.543200
  1.017000, -0.538400
  1.019000, -0.532800
  1.021000, -0.526500
  1.023000, -0.519400
  1.025000, -0.511700
  1.027000, -0.503400
  1.029000, -0.494400
  1.031000, -0.484700
  1.033000, -0.474500
  1.035000, -0.463800
  1.037000, -0.452400
  1.039000, -0.440500
  1.041000, -0.428200
  1.043000, -0.415700
  1.045000, -0.402600
  1.047000, -0.389200
  1.049000, -0.375300
  1.051000, -0.361200
  1.053000, -0.346900
  1.055000, -0.332500
  1.057000, -0.317700
  1.059000, -0.302700
  1.061000, -0.287400
  1.063000, -0.272100
  1.065000, -0.256700
  1.067000, -0.241300
  1.069000, -0.225900
  1.071000, -0.210500
  1.073000, -0.194900
  1.075000, -0.179400
  1.077000, -0.164000
  1.079000, -0.148700
  1.081000, -0.133500
  1.083000, -0.118400
  1.085000, -0.103600
  1.087000, -0.088800
  1.089000, -0.074300
  1.091000, -0.059900
  1.093000, -0.045900
  1.095000, -0.032100
  1.097000, -0.018500
  1.099000, -0.005300
  1.101000,  0.007800
  1.103000,  0.020500
  1.105000,  0.032800
  1.107000,  0.044700
  1.109000,  0.056400
  1.111000,  0.067800
  1.113000,  0.078600
  1.115000,  0.089100
  1.117000,  0.099200
  1.119000,  0.108900
  1.121000,  0.118200
  1.123000,  0.127100
  1.125000,  0.135600
  1.127000,  0.143600
  1.129000,  0.151200
  1.131000,  0.158400
  1.133000,  0.165300
  1.135000,  0.171600
  1.137000,  0.177500
  1.139000,  0.183100
  1.141000,  0.188200
  1.143000,  0.192900
  1.145000,  0.197200
  1.147000,  0.201000
  1.149000,  0.204400
  1.151000,  0.207400
  1.153000,  0.210100
  1.155000,  0.212400
  1.157000,  0.214200
  1.159000,  0.215700
  1.161000,  0.216700
  1.163000,  0.217400
  1.165000,  0.217600
  1.167000,  0.217600
  1.169000,  0.217300
  1.171000,  0.216500
  1.173000,  0.215300
  1.175000,  0.214000
  1.177000,  0.212300
  1.179000,  0.210300
  1.181000,  0.208000
  1.183000,  0.205500
  1.185000,  0.202800
  1.187000,  0.199700
  1.189000,  0.196300
  1.191000,  0.192800
  1.193000,  0.189000
  1.195000,  0.185100
  1.197000,  0.181000
  1.199000,  0.176600
  1.201000,  0.172200
  1.203000,  0.167600
  1.205000,  0.162800
  1.207000,  0.158100
  1.209000,  0.153200
  1.211000,  0.148300
  1.213000,  0.143400
  1.215000,  0.138400
  1.217000,  0.133100
  1.219000,  0.127700
  1.221000,  0.122400
  1.223000,  0.117100
  1.225000,  0.111700
  1.227000,  0.106300
  1.229000,  0.100800
  1.231000,  0.095100
  1.233000,  0.089500
  1.235000,  0.083800
  1.237000,  0.078200
  1.239000,  0.072600
  1.241000,  0.067000
  1.243000,  0.061400
  1.245000,  0.056000
  1.247000,  0.050500
  1.249000,  0.045100
  1.251000,  0.039600
  1.253000,  0.034300
  1.255000,  0.029000
  1.257000,  0.023800
  1.259000,  0.018600
  1.261000,  0.013300
  1.263000,  0.008300
  1.265000,  0.003300
  1.267000, -0.001700
  1.269000, -0.006600
  1.271000, -0.011400
  1.273000, -0.016200
  1.275000, -0.020800
  1.277000, -0.025400
  1.279000, -0.029800
  1.281000, -0.034100
  1.283000, -0.038300
  1.285000, -0.042500
  1.287000, -0.046500
  1.289000, -0.050500
  1.291000, -0.054400
  1.293000, -0.058100
  1.295000, -0.061700
  1.297000, -0.065100
  1.299000, -0.068300
  1.301000, -0.071400
  1.303000, -0.074300
  1.305000, -0.076900
  1.307000, -0.079400
  1.309000, -0.081800
  1.311000, -0.084000
  1.313000, -0.086000
  1.315000, -0.087800
  1.317000, -0.089300
  1.319000, -0.090600
  1.321000, -0.091600
  1.323000, -0.092500
  1.325000, -0.093100
  1.327000, -0.093500
  1.329000, -0.093500
  1.331000, -0.093400
  1.333000, -0.092900
  1.335000, -0.092100
  1.337000, -0.090900
  1.339000, -0.089300
  1.341000, -0.087500
  1.343000, -0.085500
  1.345000, -0.083100
  1.347000, -0.080500
  1.349000, -0.077700
  1.351000, -0.074500
  1.353000, -0.070900
  1.355000, -0.066900
  1.357000, -0.062600
  1.359000, -0.058000
  1.361000, -0.053200
  1.363000, -0.048300
  1.365000, -0.043000
  1.367000, -0.037300
  1.369000, -0.031400
  1.371000, -0.025200
  1.373000, -0.018600
  1.375000, -0.011800
  1.377000, -0.004800
  1.379000,  0.002300
  1.381000,  0.009100
  1.383000,  0.016100
  1.385000,  0.023500
  1.387000,  0.031000
  1.389000,  0.038300
  1.391000,  0.045200
  1.393000,  0.052100
  1.395000,  0.059200
  1.397000,  0.065600
  1.399000,  0.071500
