# z (nm)   (kJ/mol)
  0.597000, 14.591100
  0.599000, 13.946100
  0.601000, 13.333700
  0.603000, 12.724900
  0.605000, 12.087500
  0.607000, 11.443500
  0.609000, 10.816100
  0.611000, 10.193400
  0.613000,  9.594800
  0.615000,  9.021500
  0.617000,  8.455000
  0.619000,  7.900000
  0.621000,  7.357300
  0.623000,  6.828100
  0.625000,  6.317500
  0.627000,  5.824500
  0.629000,  5.347400
  0.631000,  4.891200
  0.633000,  4.455100
  0.635000,  4.038600
  0.637000,  3.644300
  0.639000,  3.273100
  0.641000,  2.917500
  0.643000,  2.576600
  0.645000,  2.254100
  0.647000,  1.948400
  0.649000,  1.662000
  0.651000,  1.394800
  0.653000,  1.143800
  0.655000,  0.907300
  0.657000,  0.685000
  0.659000,  0.478500
  0.661000,  0.287200
  0.663000,  0.109200
  0.665000, -0.054700
  0.667000, -0.204500
  0.669000, -0.342600
  0.671000, -0.469100
  0.673000, -0.583800
  0.675000, -0.687000
  0.677000, -0.779000
  0.679000, -0.860700
  0.681000, -0.933400
  0.683000, -0.996900
  0.685000, -1.053200
  0.687000, -1.103100
  0.689000, -1.147300
  0.691000, -1.185200
  0.693000, -1.217300
  0.695000, -1.243700
  0.697000, -1.262900
  0.699000, -1.277900
  0.701000, -1.291800
  0.703000, -1.303300
  0.705000, -1.310800
  0.707000, -1.316300
  0.709000, -1.321700
  0.711000, -1.326300
  0.713000, -1.331100
  0.715000, -1.336600
  0.717000, -1.340900
  0.719000, -1.347200
  0.721000, -1.356600
  0.723000, -1.367700
  0.725000, -1.382600
  0.727000, -1.398400
  0.729000, -1.416300
  0.731000, -1.436800
  0.733000, -1.459300
  0.735000, -1.484600
  0.737000, -1.511000
  0.739000, -1.539200
  0.741000, -1.569700
  0.743000, -1.602500
  0.745000, -1.636800
  0.747000, -1.672200
  0.749000, -1.708900
  0.751000, -1.747000
  0.753000, -1.785400
  0.755000, -1.823700
  0.757000, -1.862000
  0.759000, -1.899700
  0.761000, -1.937200
  0.763000, -1.974200
  0.765000, -2.010200
  0.767000, -2.044400
  0.769000, -2.075900
  0.771000, -2.105500
  0.773000, -2.134000
  0.775000, -2.159800
  0.777000, -2.183100
  0.779000, -2.203800
  0.781000, -2.222000
  0.783000, -2.238000
  0.785000, -2.250700
  0.787000, -2.260700
  0.789000, -2.268200
  0.791000, -2.272300
  0.793000, -2.273500
  0.795000, -2.271900
  0.797000, -2.268200
  0.799000, -2.262000
  0.801000, -2.252600
  0.803000, -2.240500
  0.805000, -2.225900
  0.807000, -2.209300
  0.809000, -2.190700
  0.811000, -2.169700
  0.813000, -2.147100
  0.815000, -2.122900
  0.817000, -2.097300
  0.819000, -2.070500
  0.821000, -2.042400
  0.823000, -2.013500
  0.825000, -1.984000
  0.827000, -1.953300
  0.829000, -1.922200
  0.831000, -1.891000
  0.833000, -1.859500
  0.835000, -1.827800
  0.837000, -1.796000
  0.839000, -1.764200
  0.841000, -1.732500
  0.843000, -1.701200
  0.845000, -1.670000
  0.847000, -1.639200
  0.849000, -1.608900
  0.851000, -1.578800
  0.853000, -1.549100
  0.855000, -1.519600
  0.857000, -1.490700
  0.859000, -1.462400
  0.861000, -1.434500
  0.863000, -1.407300
  0.865000, -1.380400
  0.867000, -1.353700
  0.869000, -1.327300
  0.871000, -1.301200
  0.873000, -1.275200
  0.875000, -1.249500
  0.877000, -1.223800
  0.879000, -1.198300
  0.881000, -1.173000
  0.883000, -1.147800
  0.885000, -1.122400
  0.887000, -1.097100
  0.889000, -1.072000
  0.891000, -1.046800
  0.893000, -1.021500
  0.895000, -0.996200
  0.897000, -0.970800
  0.899000, -0.945100
  0.901000, -0.919200
  0.903000, -0.893300
  0.905000, -0.867200
  0.907000, -0.840700
  0.909000, -0.814300
  0.911000, -0.788000
  0.913000, -0.761500
  0.915000, -0.734900
  0.917000, -0.708000
  0.919000, -0.681100
  0.921000, -0.653800
  0.923000, -0.626600
  0.925000, -0.599500
  0.927000, -0.572600
  0.929000, -0.546200
  0.931000, -0.519800
  0.933000, -0.493500
  0.935000, -0.467400
  0.937000, -0.441500
  0.939000, -0.416100
  0.941000, -0.391100
  0.943000, -0.366600
  0.945000, -0.342500
  0.947000, -0.318900
  0.949000, -0.296000
  0.951000, -0.273700
  0.953000, -0.252000
  0.955000, -0.231000
  0.957000, -0.210600
  0.959000, -0.190900
  0.961000, -0.172100
  0.963000, -0.154200
  0.965000, -0.137300
  0.967000, -0.120800
  0.969000, -0.105200
  0.971000, -0.090400
  0.973000, -0.076300
  0.975000, -0.063200
  0.977000, -0.051300
  0.979000, -0.040300
  0.981000, -0.030200
  0.983000, -0.021000
  0.985000, -0.012600
  0.987000, -0.004900
  0.989000,  0.001700
  0.991000,  0.007300
  0.993000,  0.012100
  0.995000,  0.015900
  0.997000,  0.018900
  0.999000,  0.021300
  1.001000,  0.023000
  1.003000,  0.023600
  1.005000,  0.023400
  1.007000,  0.022400
  1.009000,  0.020500
  1.011000,  0.017900
  1.013000,  0.014600
  1.015000,  0.010400
  1.017000,  0.005800
  1.019000,  0.000600
  1.021000, -0.005200
  1.023000, -0.011600
  1.025000, -0.018500
  1.027000, -0.026000
  1.029000, -0.034100
  1.031000, -0.042700
  1.033000, -0.051600
  1.035000, -0.061000
  1.037000, -0.070800
  1.039000, -0.080900
  1.041000, -0.091500
  1.043000, -0.102400
  1.045000, -0.113400
  1.047000, -0.124600
  1.049000, -0.136000
  1.051000, -0.147600
  1.053000, -0.159200
  1.055000, -0.171000
  1.057000, -0.182900
  1.059000, -0.195100
  1.061000, -0.207200
  1.063000, -0.219000
  1.065000, -0.231000
  1.067000, -0.243200
  1.069000, -0.255200
  1.071000, -0.266900
  1.073000, -0.278400
  1.075000, -0.289700
  1.077000, -0.300800
  1.079000, -0.311600
  1.081000, -0.322000
  1.083000, -0.332200
  1.085000, -0.342200
  1.087000, -0.351900
  1.089000, -0.361100
  1.091000, -0.370100
  1.093000, -0.378700
  1.095000, -0.386800
  1.097000, -0.394600
  1.099000, -0.402000
  1.101000, -0.408800
  1.103000, -0.415200
  1.105000, -0.421200
  1.107000, -0.426800
  1.109000, -0.431900
  1.111000, -0.436400
  1.113000, -0.440600
  1.115000, -0.444200
  1.117000, -0.447300
  1.119000, -0.449900
  1.121000, -0.452000
  1.123000, -0.453500
  1.125000, -0.454600
  1.127000, -0.455100
  1.129000, -0.455200
  1.131000, -0.454800
  1.133000, -0.454100
  1.135000, -0.452700
  1.137000, -0.450900
  1.139000, -0.448700
  1.141000, -0.446000
  1.143000, -0.442800
  1.145000, -0.439400
  1.147000, -0.435700
  1.149000, -0.431600
  1.151000, -0.427100
  1.153000, -0.422100
  1.155000, -0.416800
  1.157000, -0.411000
  1.159000, -0.404900
  1.161000, -0.398600
  1.163000, -0.391900
  1.165000, -0.384900
  1.167000, -0.377700
  1.169000, -0.370300
  1.171000, -0.362600
  1.173000, -0.354700
  1.175000, -0.346600
  1.177000, -0.338400
  1.179000, -0.330000
  1.181000, -0.321300
  1.183000, -0.312500
  1.185000, -0.303500
  1.187000, -0.294400
  1.189000, -0.285100
  1.191000, -0.275700
  1.193000, -0.266000
  1.195000, -0.256400
  1.197000, -0.246600
  1.199000, -0.236800
  1.201000, -0.226900
  1.203000, -0.217000
  1.205000, -0.207100
  1.207000, -0.197000
  1.209000, -0.187100
  1.211000, -0.177200
  1.213000, -0.167300
  1.215000, -0.157400
  1.217000, -0.147600
  1.219000, -0.137800
  1.221000, -0.128200
  1.223000, -0.118600
  1.225000, -0.109000
  1.227000, -0.099700
  1.229000, -0.090300
  1.231000, -0.081100
  1.233000, -0.072000
  1.235000, -0.063100
  1.237000, -0.054400
  1.239000, -0.045900
  1.241000, -0.037600
  1.243000, -0.029600
  1.245000, -0.021900
  1.247000, -0.014400
  1.249000, -0.007200
  1.251000, -0.000100
  1.253000,  0.006600
  1.255000,  0.013100
  1.257000,  0.019300
  1.259000,  0.025100
  1.261000,  0.030600
  1.263000,  0.035800
  1.265000,  0.040800
  1.267000,  0.045500
  1.269000,  0.049800
  1.271000,  0.053600
  1.273000,  0.057100
  1.275000,  0.060400
  1.277000,  0.063300
  1.279000,  0.065700
  1.281000,  0.067800
  1.283000,  0.069600
  1.285000,  0.071200
  1.287000,  0.072600
  1.289000,  0.073600
  1.291000,  0.074200
  1.293000,  0.074600
  1.295000,  0.074600
  1.297000,  0.074300
  1.299000,  0.073900
  1.301000,  0.073200
  1.303000,  0.072200
  1.305000,  0.071100
  1.307000,  0.069700
  1.309000,  0.068200
  1.311000,  0.066500
  1.313000,  0.064700
  1.315000,  0.062800
  1.317000,  0.060700
  1.319000,  0.058500
  1.321000,  0.056100
  1.323000,  0.053800
  1.325000,  0.051200
  1.327000,  0.048500
  1.329000,  0.045700
  1.331000,  0.042900
  1.333000,  0.040300
  1.335000,  0.038000
  1.337000,  0.035600
  1.339000,  0.033100
  1.341000,  0.030700
  1.343000,  0.028400
  1.345000,  0.026100
  1.347000,  0.024000
  1.349000,  0.022000
  1.351000,  0.020200
  1.353000,  0.018700
  1.355000,  0.017100
  1.357000,  0.015600
  1.359000,  0.014300
  1.361000,  0.013300
  1.363000,  0.012400
  1.365000,  0.011600
  1.367000,  0.011100
  1.369000,  0.011000
  1.371000,  0.011100
  1.373000,  0.011100
  1.375000,  0.011300
  1.377000,  0.011700
  1.379000,  0.012200
  1.381000,  0.012800
  1.383000,  0.014000
  1.385000,  0.015100
  1.387000,  0.016300
  1.389000,  0.017800
  1.391000,  0.019100
  1.393000,  0.020600
  1.395000,  0.021800
  1.397000,  0.022600
  1.399000,  0.023000
