# z (nm)   (kJ/mol)
  0.495000, 29.133700
  0.503000, 29.066100
  0.509000, 28.852900
  0.513000, 28.554700
  0.515000, 28.375200
  0.519000, 28.138300
  0.521000, 27.963900
  0.523000, 27.789700
  0.525000, 27.614200
  0.527000, 27.431700
  0.529000, 27.237400
  0.531000, 27.034900
  0.533000, 26.818200
  0.535000, 26.593500
  0.537000, 26.366200
  0.539000, 26.132600
  0.541000, 25.893700
  0.543000, 25.642900
  0.545000, 25.381600
  0.547000, 25.114000
  0.549000, 24.837300
  0.551000, 24.553300
  0.553000, 24.256900
  0.555000, 23.949900
  0.557000, 23.639800
  0.559000, 23.323400
  0.561000, 22.999900
  0.563000, 22.662400
  0.565000, 22.317100
  0.567000, 21.968200
  0.569000, 21.608800
  0.571000, 21.240600
  0.573000, 20.860900
  0.575000, 20.471400
  0.577000, 20.078600
  0.579000, 19.676300
  0.581000, 19.269900
  0.583000, 18.853100
  0.585000, 18.422200
  0.587000, 17.987700
  0.589000, 17.553300
  0.591000, 17.121900
  0.593000, 16.679500
  0.595000, 16.219900
  0.597000, 15.756800
  0.599000, 15.295700
  0.601000, 14.839300
  0.603000, 14.383700
  0.605000, 13.917100
  0.607000, 13.439400
  0.609000, 12.956300
  0.611000, 12.478600
  0.613000, 11.999100
  0.615000, 11.506400
  0.617000, 11.015800
  0.619000, 10.537400
  0.621000, 10.063600
  0.623000,  9.585800
  0.625000,  9.110800
  0.627000,  8.640100
  0.629000,  8.170400
  0.631000,  7.713100
  0.633000,  7.265700
  0.635000,  6.822400
  0.637000,  6.385900
  0.639000,  5.960300
  0.641000,  5.543600
  0.643000,  5.135700
  0.645000,  4.740100
  0.647000,  4.356800
  0.649000,  3.983900
  0.651000,  3.621200
  0.653000,  3.269600
  0.655000,  2.929700
  0.657000,  2.600500
  0.659000,  2.280400
  0.661000,  1.971500
  0.663000,  1.674900
  0.665000,  1.390100
  0.667000,  1.116600
  0.669000,  0.856600
  0.671000,  0.609800
  0.673000,  0.373000
  0.675000,  0.146700
  0.677000, -0.066600
  0.679000, -0.269200
  0.681000, -0.461700
  0.683000, -0.641100
  0.685000, -0.808600
  0.687000, -0.965000
  0.689000, -1.110400
  0.691000, -1.245400
  0.693000, -1.369900
  0.695000, -1.483000
  0.697000, -1.584600
  0.699000, -1.676600
  0.701000, -1.759200
  0.703000, -1.831200
  0.705000, -1.893100
  0.707000, -1.945400
  0.709000, -1.988600
  0.711000, -2.022900
  0.713000, -2.048100
  0.715000, -2.066500
  0.717000, -2.077500
  0.719000, -2.081300
  0.721000, -2.078200
  0.723000, -2.067200
  0.725000, -2.049600
  0.727000, -2.026900
  0.729000, -1.999700
  0.731000, -1.966200
  0.733000, -1.927400
  0.735000, -1.884400
  0.737000, -1.837400
  0.739000, -1.786900
  0.741000, -1.733000
  0.743000, -1.676500
  0.745000, -1.616500
  0.747000, -1.553900
  0.749000, -1.489400
  0.751000, -1.423300
  0.753000, -1.355600
  0.755000, -1.286900
  0.757000, -1.216900
  0.759000, -1.145100
  0.761000, -1.072100
  0.763000, -0.998400
  0.765000, -0.924000
  0.767000, -0.849500
  0.769000, -0.774800
  0.771000, -0.700300
  0.773000, -0.625400
  0.775000, -0.549900
  0.777000, -0.474600
  0.779000, -0.399700
  0.781000, -0.325100
  0.783000, -0.250800
  0.785000, -0.176700
  0.787000, -0.103100
  0.789000, -0.030000
  0.791000,  0.042200
  0.793000,  0.113800
  0.795000,  0.185300
  0.797000,  0.256100
  0.799000,  0.326100
  0.801000,  0.395600
  0.803000,  0.463800
  0.805000,  0.531200
  0.807000,  0.597500
  0.809000,  0.662800
  0.811000,  0.726800
  0.813000,  0.789900
  0.815000,  0.851800
  0.817000,  0.912500
  0.819000,  0.971800
  0.821000,  1.029800
  0.823000,  1.086500
  0.825000,  1.141600
  0.827000,  1.194900
  0.829000,  1.246600
  0.831000,  1.296400
  0.833000,  1.344500
  0.835000,  1.390700
  0.837000,  1.434700
  0.839000,  1.476600
  0.841000,  1.516300
  0.843000,  1.553700
  0.845000,  1.589000
  0.847000,  1.622000
  0.849000,  1.652700
  0.851000,  1.680900
  0.853000,  1.706800
  0.855000,  1.729900
  0.857000,  1.750200
  0.859000,  1.768000
  0.861000,  1.782800
  0.863000,  1.795000
  0.865000,  1.804600
  0.867000,  1.811300
  0.869000,  1.815400
  0.871000,  1.816700
  0.873000,  1.815100
  0.875000,  1.810700
  0.877000,  1.803700
  0.879000,  1.794000
  0.881000,  1.781600
  0.883000,  1.766600
  0.885000,  1.749000
  0.887000,  1.728600
  0.889000,  1.705800
  0.891000,  1.680600
  0.893000,  1.653100
  0.895000,  1.623300
  0.897000,  1.591200
  0.899000,  1.556800
  0.901000,  1.520400
  0.903000,  1.482100
  0.905000,  1.441900
  0.907000,  1.399600
  0.909000,  1.356000
  0.911000,  1.310900
  0.913000,  1.264300
  0.915000,  1.216100
  0.917000,  1.166600
  0.919000,  1.116500
  0.921000,  1.065400
  0.923000,  1.013400
  0.925000,  0.960700
  0.927000,  0.907400
  0.929000,  0.853700
  0.931000,  0.799600
  0.933000,  0.745400
  0.935000,  0.691200
  0.937000,  0.636900
  0.939000,  0.582700
  0.941000,  0.528700
  0.943000,  0.475300
  0.945000,  0.422400
  0.947000,  0.370000
  0.949000,  0.318500
  0.951000,  0.267900
  0.953000,  0.218200
  0.955000,  0.169600
  0.957000,  0.121900
  0.959000,  0.075000
  0.961000,  0.029200
  0.963000, -0.015200
  0.965000, -0.058300
  0.967000, -0.099900
  0.969000, -0.140200
  0.971000, -0.178900
  0.973000, -0.216300
  0.975000, -0.252200
  0.977000, -0.286500
  0.979000, -0.319300
  0.981000, -0.350500
  0.983000, -0.380000
  0.985000, -0.407800
  0.987000, -0.434000
  0.989000, -0.458700
  0.991000, -0.481700
  0.993000, -0.503200
  0.995000, -0.523100
  0.997000, -0.541300
  0.999000, -0.558000
  1.001000, -0.573200
  1.003000, -0.586900
  1.005000, -0.599200
  1.007000, -0.609900
  1.009000, -0.619100
  1.011000, -0.627000
  1.013000, -0.633700
  1.015000, -0.638900
  1.017000, -0.642900
  1.019000, -0.645700
  1.021000, -0.647200
  1.023000, -0.647600
  1.025000, -0.646900
  1.027000, -0.645200
  1.029000, -0.642500
  1.031000, -0.638700
  1.033000, -0.634000
  1.035000, -0.628500
  1.037000, -0.622100
  1.039000, -0.614900
  1.041000, -0.606900
  1.043000, -0.598200
  1.045000, -0.588900
  1.047000, -0.578800
  1.049000, -0.568100
  1.051000, -0.556800
  1.053000, -0.545000
  1.055000, -0.532500
  1.057000, -0.519400
  1.059000, -0.506000
  1.061000, -0.492200
  1.063000, -0.477900
  1.065000, -0.463200
  1.067000, -0.448200
  1.069000, -0.432900
  1.071000, -0.417300
  1.073000, -0.401400
  1.075000, -0.385300
  1.077000, -0.368900
  1.079000, -0.352300
  1.081000, -0.335500
  1.083000, -0.318600
  1.085000, -0.301600
  1.087000, -0.284400
  1.089000, -0.267100
  1.091000, -0.249700
  1.093000, -0.232300
  1.095000, -0.214900
  1.097000, -0.197600
  1.099000, -0.180200
  1.101000, -0.162900
  1.103000, -0.145600
  1.105000, -0.128400
  1.107000, -0.111300
  1.109000, -0.094600
  1.111000, -0.077900
  1.113000, -0.061300
  1.115000, -0.045000
  1.117000, -0.029000
  1.119000, -0.013000
  1.121000,  0.002600
  1.123000,  0.017700
  1.125000,  0.032500
  1.127000,  0.047000
  1.129000,  0.061100
  1.131000,  0.074800
  1.133000,  0.088100
  1.135000,  0.101100
  1.137000,  0.113700
  1.139000,  0.125700
  1.141000,  0.137200
  1.143000,  0.148300
  1.145000,  0.158800
  1.147000,  0.168700
  1.149000,  0.178200
  1.151000,  0.187100
  1.153000,  0.195500
  1.155000,  0.203300
  1.157000,  0.210600
  1.159000,  0.217300
  1.161000,  0.223500
  1.163000,  0.229100
  1.165000,  0.234200
  1.167000,  0.238700
  1.169000,  0.242700
  1.171000,  0.246100
  1.173000,  0.248900
  1.175000,  0.251200
  1.177000,  0.252900
  1.179000,  0.254100
  1.181000,  0.254700
  1.183000,  0.254900
  1.185000,  0.254600
  1.187000,  0.253800
  1.189000,  0.252500
  1.191000,  0.250800
  1.193000,  0.248800
  1.195000,  0.246200
  1.197000,  0.243300
  1.199000,  0.240100
  1.201000,  0.236500
  1.203000,  0.232500
  1.205000,  0.228000
  1.207000,  0.223200
  1.209000,  0.218200
  1.211000,  0.212900
  1.213000,  0.207300
  1.215000,  0.201400
  1.217000,  0.195300
  1.219000,  0.189300
  1.221000,  0.183000
  1.223000,  0.176500
  1.225000,  0.169900
  1.227000,  0.163100
  1.229000,  0.156100
  1.231000,  0.149200
  1.233000,  0.142200
  1.235000,  0.135100
  1.237000,  0.128000
  1.239000,  0.120900
  1.241000,  0.113700
  1.243000,  0.106700
  1.245000,  0.099700
  1.247000,  0.092700
  1.249000,  0.085600
  1.251000,  0.078700
  1.253000,  0.071700
  1.255000,  0.064800
  1.257000,  0.058000
  1.259000,  0.051200
  1.261000,  0.044600
  1.263000,  0.037900
  1.265000,  0.031500
  1.267000,  0.025200
  1.269000,  0.019000
  1.271000,  0.012800
  1.273000,  0.006700
  1.275000,  0.000800
  1.277000, -0.004800
  1.279000, -0.010400
  1.281000, -0.015900
  1.283000, -0.021400
  1.285000, -0.026800
  1.287000, -0.032000
  1.289000, -0.037100
  1.291000, -0.042200
  1.293000, -0.047100
  1.295000, -0.051900
  1.297000, -0.056600
  1.299000, -0.061200
  1.301000, -0.065700
  1.303000, -0.070000
  1.305000, -0.074300
  1.307000, -0.078400
  1.309000, -0.082300
  1.311000, -0.086000
  1.313000, -0.089600
  1.315000, -0.093100
  1.317000, -0.096400
  1.319000, -0.099600
  1.321000, -0.102600
  1.323000, -0.105300
  1.325000, -0.107900
  1.327000, -0.110400
  1.329000, -0.112600
  1.331000, -0.114500
  1.333000, -0.116300
  1.335000, -0.117800
  1.337000, -0.118900
  1.339000, -0.119800
  1.341000, -0.120400
  1.343000, -0.120700
  1.345000, -0.120900
  1.347000, -0.120700
  1.349000, -0.120000
  1.351000, -0.119100
  1.353000, -0.118000
  1.355000, -0.116400
  1.357000, -0.114400
  1.359000, -0.112000
  1.361000, -0.109300
  1.363000, -0.106300
  1.365000, -0.103000
  1.367000, -0.099300
  1.369000, -0.095100
  1.371000, -0.090600
  1.373000, -0.085800
  1.375000, -0.080600
  1.377000, -0.075000
  1.379000, -0.069200
  1.381000, -0.063100
  1.383000, -0.056800
  1.385000, -0.050300
  1.387000, -0.043500
  1.389000, -0.036300
  1.391000, -0.029000
  1.393000, -0.021800
  1.395000, -0.014400
  1.397000, -0.006800
  1.399000,  0.000400
