# z (nm)   (kJ/mol)
  0.385000, 13.249500
  0.387000, 12.807300
  0.389000, 12.345000
  0.391000, 11.842600
  0.393000, 11.339900
  0.395000, 10.844400
  0.397000, 10.346100
  0.399000,  9.839500
  0.401000,  9.337900
  0.403000,  8.841400
  0.405000,  8.339500
  0.407000,  7.835000
  0.409000,  7.339300
  0.411000,  6.847400
  0.413000,  6.353800
  0.415000,  5.867100
  0.417000,  5.392700
  0.419000,  4.931400
  0.421000,  4.484200
  0.423000,  4.050100
  0.425000,  3.624000
  0.427000,  3.208800
  0.429000,  2.809200
  0.431000,  2.425600
  0.433000,  2.051800
  0.435000,  1.690700
  0.437000,  1.350600
  0.439000,  1.026800
  0.441000,  0.715500
  0.443000,  0.421500
  0.445000,  0.145300
  0.447000, -0.117100
  0.449000, -0.364200
  0.451000, -0.597400
  0.453000, -0.814600
  0.455000, -1.016400
  0.457000, -1.202200
  0.459000, -1.371100
  0.461000, -1.525300
  0.463000, -1.663900
  0.465000, -1.787300
  0.467000, -1.896700
  0.469000, -1.992700
  0.471000, -2.074500
  0.473000, -2.141700
  0.475000, -2.195200
  0.477000, -2.235700
  0.479000, -2.263200
  0.481000, -2.278100
  0.483000, -2.281100
  0.485000, -2.272000
  0.487000, -2.251900
  0.489000, -2.221200
  0.491000, -2.179100
  0.493000, -2.126000
  0.495000, -2.063400
  0.497000, -1.991900
  0.499000, -1.910800
  0.501000, -1.822100
  0.503000, -1.726500
  0.505000, -1.625900
  0.507000, -1.520900
  0.509000, -1.410200
  0.511000, -1.293400
  0.513000, -1.172300
  0.515000, -1.048700
  0.517000, -0.922700
  0.519000, -0.795200
  0.521000, -0.667300
  0.523000, -0.540000
  0.525000, -0.414000
  0.527000, -0.288600
  0.529000, -0.163600
  0.531000, -0.040300
  0.533000,  0.081800
  0.535000,  0.201300
  0.537000,  0.316900
  0.539000,  0.429800
  0.541000,  0.538900
  0.543000,  0.643800
  0.545000,  0.744400
  0.547000,  0.840100
  0.549000,  0.930900
  0.551000,  1.016800
  0.553000,  1.098000
  0.555000,  1.173900
  0.557000,  1.245000
  0.559000,  1.311100
  0.561000,  1.372100
  0.563000,  1.428700
  0.565000,  1.479700
  0.567000,  1.526300
  0.569000,  1.568300
  0.571000,  1.604600
  0.573000,  1.636600
  0.575000,  1.664400
  0.577000,  1.688100
  0.579000,  1.708000
  0.581000,  1.723500
  0.583000,  1.735400
  0.585000,  1.744200
  0.587000,  1.749500
  0.589000,  1.751600
  0.591000,  1.749800
  0.593000,  1.744900
  0.595000,  1.737600
  0.597000,  1.727400
  0.599000,  1.715000
  0.601000,  1.700500
  0.603000,  1.683500
  0.605000,  1.664000
  0.607000,  1.642300
  0.609000,  1.618700
  0.611000,  1.592900
  0.613000,  1.565400
  0.615000,  1.536900
  0.617000,  1.506900
  0.619000,  1.475500
  0.621000,  1.442600
  0.623000,  1.408200
  0.625000,  1.372700
  0.627000,  1.335500
  0.629000,  1.297700
  0.631000,  1.258800
  0.633000,  1.218600
  0.635000,  1.177300
  0.637000,  1.135100
  0.639000,  1.091800
  0.641000,  1.047900
  0.643000,  1.003200
  0.645000,  0.957200
  0.647000,  0.910500
  0.649000,  0.863100
  0.651000,  0.815100
  0.653000,  0.766600
  0.655000,  0.717400
  0.657000,  0.667400
  0.659000,  0.616400
  0.661000,  0.564900
  0.663000,  0.513100
  0.665000,  0.460900
  0.667000,  0.408200
  0.669000,  0.355300
  0.671000,  0.302100
  0.673000,  0.248700
  0.675000,  0.195300
  0.677000,  0.142300
  0.679000,  0.089100
  0.681000,  0.035500
  0.683000, -0.017800
  0.685000, -0.071000
  0.687000, -0.124000
  0.689000, -0.176500
  0.691000, -0.228600
  0.693000, -0.280000
  0.695000, -0.331000
  0.697000, -0.381200
  0.699000, -0.430400
  0.701000, -0.478700
  0.703000, -0.526200
  0.705000, -0.573000
  0.707000, -0.618500
  0.709000, -0.662700
  0.711000, -0.705700
  0.713000, -0.747800
  0.715000, -0.788500
  0.717000, -0.827900
  0.719000, -0.866000
  0.721000, -0.902500
  0.723000, -0.937400
  0.725000, -0.971000
  0.727000, -1.002900
  0.729000, -1.033200
  0.731000, -1.061800
  0.733000, -1.088800
  0.735000, -1.114200
  0.737000, -1.137700
  0.739000, -1.159500
  0.741000, -1.179800
  0.743000, -1.198400
  0.745000, -1.215300
  0.747000, -1.230700
  0.749000, -1.244400
  0.751000, -1.256500
  0.753000, -1.267100
  0.755000, -1.276100
  0.757000, -1.283600
  0.759000, -1.289700
  0.761000, -1.294300
  0.763000, -1.297700
  0.765000, -1.299800
  0.767000, -1.300500
  0.769000, -1.300000
  0.771000, -1.298300
  0.773000, -1.295400
  0.775000, -1.291500
  0.777000, -1.286500
  0.779000, -1.280400
  0.781000, -1.273500
  0.783000, -1.265800
  0.785000, -1.257200
  0.787000, -1.247900
  0.789000, -1.238000
  0.791000, -1.227100
  0.793000, -1.215800
  0.795000, -1.204300
  0.797000, -1.192200
  0.799000, -1.179400
  0.801000, -1.165900
  0.803000, -1.152400
  0.805000, -1.138300
  0.807000, -1.123600
  0.809000, -1.108700
  0.811000, -1.093400
  0.813000, -1.077700
  0.815000, -1.061800
  0.817000, -1.045600
  0.819000, -1.029000
  0.821000, -1.012200
  0.823000, -0.995200
  0.825000, -0.977800
  0.827000, -0.960200
  0.829000, -0.942400
  0.831000, -0.924400
  0.833000, -0.906300
  0.835000, -0.887900
  0.837000, -0.869300
  0.839000, -0.850500
  0.841000, -0.831500
  0.843000, -0.812300
  0.845000, -0.792800
  0.847000, -0.773100
  0.849000, -0.753200
  0.851000, -0.733000
  0.853000, -0.712700
  0.855000, -0.692300
  0.857000, -0.671700
  0.859000, -0.650900
  0.861000, -0.630000
  0.863000, -0.609000
  0.865000, -0.587800
  0.867000, -0.566600
  0.869000, -0.545200
  0.871000, -0.523800
  0.873000, -0.502300
  0.875000, -0.480800
  0.877000, -0.459500
  0.879000, -0.438100
  0.881000, -0.416800
  0.883000, -0.395500
  0.885000, -0.374400
  0.887000, -0.353600
  0.889000, -0.332900
  0.891000, -0.312500
  0.893000, -0.292400
  0.895000, -0.272600
  0.897000, -0.253100
  0.899000, -0.234000
  0.901000, -0.215300
  0.903000, -0.196900
  0.905000, -0.178900
  0.907000, -0.161600
  0.909000, -0.144700
  0.911000, -0.128400
  0.913000, -0.112600
  0.915000, -0.097500
  0.917000, -0.083000
  0.919000, -0.069300
  0.921000, -0.056100
  0.923000, -0.043600
  0.925000, -0.031900
  0.927000, -0.020800
  0.929000, -0.010200
  0.931000, -0.000500
  0.933000,  0.008400
  0.935000,  0.016500
  0.937000,  0.023900
  0.939000,  0.030500
  0.941000,  0.036400
  0.943000,  0.041400
  0.945000,  0.045800
  0.947000,  0.049300
  0.949000,  0.052000
  0.951000,  0.054000
  0.953000,  0.055200
  0.955000,  0.055800
  0.957000,  0.055800
  0.959000,  0.055000
  0.961000,  0.053500
  0.963000,  0.051400
  0.965000,  0.048800
  0.967000,  0.045500
  0.969000,  0.041600
  0.971000,  0.037000
  0.973000,  0.031800
  0.975000,  0.026000
  0.977000,  0.019800
  0.979000,  0.013100
  0.981000,  0.005900
  0.983000, -0.001500
  0.985000, -0.009400
  0.987000, -0.017700
  0.989000, -0.026300
  0.991000, -0.035400
  0.993000, -0.044700
  0.995000, -0.054100
  0.997000, -0.063600
  0.999000, -0.073500
  1.001000, -0.083600
  1.003000, -0.093700
  1.005000, -0.104000
  1.007000, -0.114500
  1.009000, -0.125000
  1.011000, -0.135600
  1.013000, -0.146300
  1.015000, -0.157000
  1.017000, -0.167500
  1.019000, -0.177900
  1.021000, -0.188300
  1.023000, -0.198700
  1.025000, -0.208900
  1.027000, -0.218700
  1.029000, -0.228200
  1.031000, -0.237600
  1.033000, -0.246800
  1.035000, -0.255800
  1.037000, -0.264700
  1.039000, -0.273300
  1.041000, -0.281600
  1.043000, -0.289600
  1.045000, -0.297200
  1.047000, -0.304400
  1.049000, -0.311200
  1.051000, -0.317700
  1.053000, -0.323700
  1.055000, -0.329300
  1.057000, -0.334600
  1.059000, -0.339600
  1.061000, -0.344100
  1.063000, -0.348300
  1.065000, -0.352000
  1.067000, -0.355400
  1.069000, -0.358300
  1.071000, -0.360800
  1.073000, -0.363000
  1.075000, -0.364800
  1.077000, -0.366100
  1.079000, -0.367100
  1.081000, -0.367700
  1.083000, -0.368100
  1.085000, -0.368000
  1.087000, -0.367600
  1.089000, -0.366900
  1.091000, -0.366000
  1.093000, -0.364800
  1.095000, -0.363200
  1.097000, -0.361400
  1.099000, -0.359100
  1.101000, -0.356700
  1.103000, -0.354100
  1.105000, -0.351300
  1.107000, -0.348200
  1.109000, -0.344900
  1.111000, -0.341500
  1.113000, -0.338000
  1.115000, -0.334300
  1.117000, -0.330400
  1.119000, -0.326400
  1.121000, -0.322300
  1.123000, -0.318100
  1.125000, -0.313800
  1.127000, -0.309300
  1.129000, -0.304800
  1.131000, -0.300200
  1.133000, -0.295500
  1.135000, -0.290700
  1.137000, -0.285800
  1.139000, -0.281000
  1.141000, -0.276000
  1.143000, -0.270900
  1.145000, -0.265800
  1.147000, -0.260700
  1.149000, -0.255600
  1.151000, -0.250300
  1.153000, -0.244900
  1.155000, -0.239600
  1.157000, -0.234300
  1.159000, -0.228900
  1.161000, -0.223400
  1.163000, -0.217900
  1.165000, -0.212300
  1.167000, -0.206700
  1.169000, -0.201000
  1.171000, -0.195100
  1.173000, -0.189200
  1.175000, -0.183200
  1.177000, -0.177300
  1.179000, -0.171200
  1.181000, -0.165000
  1.183000, -0.158700
  1.185000, -0.152500
  1.187000, -0.146300
  1.189000, -0.139900
  1.191000, -0.133400
  1.193000, -0.127000
  1.195000, -0.120600
  1.197000, -0.114100
  1.199000, -0.107700
  1.201000, -0.101300
  1.203000, -0.094900
  1.205000, -0.088600
  1.207000, -0.082200
  1.209000, -0.075800
  1.211000, -0.069500
  1.213000, -0.063100
  1.215000, -0.057000
  1.217000, -0.050900
  1.219000, -0.045000
  1.221000, -0.039100
  1.223000, -0.033300
  1.225000, -0.027600
  1.227000, -0.022200
  1.229000, -0.016800
  1.231000, -0.011700
  1.233000, -0.006900
  1.235000, -0.002100
  1.237000,  0.002400
  1.239000,  0.006700
  1.241000,  0.010700
  1.243000,  0.014600
  1.245000,  0.018100
  1.247000,  0.021300
  1.249000,  0.024400
  1.251000,  0.027200
  1.253000,  0.029800
  1.255000,  0.032100
  1.257000,  0.034000
  1.259000,  0.035700
  1.261000,  0.037100
  1.263000,  0.038300
  1.265000,  0.039100
  1.267000,  0.039700
  1.269000,  0.040100
  1.271000,  0.040200
  1.273000,  0.039900
  1.275000,  0.039300
  1.277000,  0.038500
  1.279000,  0.037500
  1.281000,  0.036300
  1.283000,  0.034900
  1.285000,  0.033300
  1.287000,  0.031400
  1.289000,  0.029300
  1.291000,  0.027100
  1.293000,  0.024800
  1.295000,  0.022400
  1.297000,  0.019800
  1.299000,  0.017100
  1.301000,  0.014400
  1.303000,  0.011700
  1.305000,  0.009000
  1.307000,  0.006200
  1.309000,  0.003400
  1.311000,  0.000700
  1.313000, -0.002000
  1.315000, -0.004700
  1.317000, -0.007300
  1.319000, -0.009900
  1.321000, -0.012300
  1.323000, -0.014600
  1.325000, -0.016700
  1.327000, -0.018700
  1.329000, -0.020500
  1.331000, -0.022000
  1.333000, -0.023400
  1.335000, -0.024500
  1.337000, -0.025200
  1.339000, -0.025700
  1.341000, -0.026000
  1.343000, -0.026100
  1.345000, -0.025900
  1.347000, -0.025300
  1.349000, -0.024500
  1.351000, -0.023500
  1.353000, -0.022000
  1.355000, -0.020200
  1.357000, -0.018100
  1.359000, -0.015800
  1.361000, -0.013300
  1.363000, -0.010400
  1.365000, -0.007300
  1.367000, -0.004000
  1.369000, -0.000500
  1.371000,  0.003200
  1.373000,  0.007200
  1.375000,  0.011400
  1.377000,  0.015600
  1.379000,  0.019900
  1.381000,  0.024100
  1.383000,  0.028600
  1.385000,  0.033200
  1.387000,  0.037600
  1.389000,  0.041900
  1.391000,  0.046200
  1.393000,  0.050400
  1.395000,  0.054500
  1.397000,  0.058200
  1.399000,  0.061500
