# z (nm)   (kJ/mol)
  0.447000,  8.779600
  0.449000,  8.210400
  0.451000,  7.590900
  0.453000,  6.994900
  0.455000,  6.431800
  0.457000,  5.861400
  0.459000,  5.273600
  0.461000,  4.695400
  0.463000,  4.146900
  0.465000,  3.614700
  0.467000,  3.091600
  0.469000,  2.586100
  0.471000,  2.095500
  0.473000,  1.622800
  0.475000,  1.167300
  0.477000,  0.729100
  0.479000,  0.307000
  0.481000, -0.094100
  0.483000, -0.472700
  0.485000, -0.832100
  0.487000, -1.173200
  0.489000, -1.492100
  0.491000, -1.792100
  0.493000, -2.074700
  0.495000, -2.334400
  0.497000, -2.574100
  0.499000, -2.796000
  0.501000, -2.999600
  0.503000, -3.186100
  0.505000, -3.351700
  0.507000, -3.498100
  0.509000, -3.627900
  0.511000, -3.740600
  0.513000, -3.835600
  0.515000, -3.914700
  0.517000, -3.978200
  0.519000, -4.025900
  0.521000, -4.059600
  0.523000, -4.079400
  0.525000, -4.084300
  0.527000, -4.075000
  0.529000, -4.053000
  0.531000, -4.018500
  0.533000, -3.971200
  0.535000, -3.913200
  0.537000, -3.844700
  0.539000, -3.765200
  0.541000, -3.676400
  0.543000, -3.578500
  0.545000, -3.473600
  0.547000, -3.360200
  0.549000, -3.238600
  0.551000, -3.111200
  0.553000, -2.980200
  0.555000, -2.845600
  0.557000, -2.705000
  0.559000, -2.563100
  0.561000, -2.420900
  0.563000, -2.275400
  0.565000, -2.128700
  0.567000, -1.981000
  0.569000, -1.833500
  0.571000, -1.687200
  0.573000, -1.542900
  0.575000, -1.402200
  0.577000, -1.264400
  0.579000, -1.128100
  0.581000, -0.994500
  0.583000, -0.865800
  0.585000, -0.741900
  0.587000, -0.623500
  0.589000, -0.509800
  0.591000, -0.400200
  0.593000, -0.295500
  0.595000, -0.196100
  0.597000, -0.101900
  0.599000, -0.012700
  0.601000,  0.071200
  0.603000,  0.149900
  0.605000,  0.223200
  0.607000,  0.290700
  0.609000,  0.352700
  0.611000,  0.409700
  0.613000,  0.461800
  0.615000,  0.508600
  0.617000,  0.550300
  0.619000,  0.587000
  0.621000,  0.619000
  0.623000,  0.646400
  0.625000,  0.669300
  0.627000,  0.687700
  0.629000,  0.701600
  0.631000,  0.711000
  0.633000,  0.716400
  0.635000,  0.717900
  0.637000,  0.715400
  0.639000,  0.708900
  0.641000,  0.698800
  0.643000,  0.685600
  0.645000,  0.669400
  0.647000,  0.649700
  0.649000,  0.626300
  0.651000,  0.599600
  0.653000,  0.570300
  0.655000,  0.537900
  0.657000,  0.502700
  0.659000,  0.464900
  0.661000,  0.425000
  0.663000,  0.382400
  0.665000,  0.337500
  0.667000,  0.290200
  0.669000,  0.240600
  0.671000,  0.188400
  0.673000,  0.134100
  0.675000,  0.077900
  0.677000,  0.020200
  0.679000, -0.039100
  0.681000, -0.100400
  0.683000, -0.163500
  0.685000, -0.227600
  0.687000, -0.292600
  0.689000, -0.359000
  0.691000, -0.426100
  0.693000, -0.493600
  0.695000, -0.561800
  0.697000, -0.630600
  0.699000, -0.699900
  0.701000, -0.769800
  0.703000, -0.839400
  0.705000, -0.909200
  0.707000, -0.979200
  0.709000, -1.048700
  0.711000, -1.117900
  0.713000, -1.187000
  0.715000, -1.255600
  0.717000, -1.323200
  0.719000, -1.389800
  0.721000, -1.455400
  0.723000, -1.519900
  0.725000, -1.583400
  0.727000, -1.645800
  0.729000, -1.706500
  0.731000, -1.765600
  0.733000, -1.823200
  0.735000, -1.879000
  0.737000, -1.933300
  0.739000, -1.985500
  0.741000, -2.035800
  0.743000, -2.084100
  0.745000, -2.130300
  0.747000, -2.174400
  0.749000, -2.216500
  0.751000, -2.256300
  0.753000, -2.293900
  0.755000, -2.329100
  0.757000, -2.362000
  0.759000, -2.392500
  0.761000, -2.420700
  0.763000, -2.446400
  0.765000, -2.469800
  0.767000, -2.490800
  0.769000, -2.509300
  0.771000, -2.525300
  0.773000, -2.538700
  0.775000, -2.549700
  0.777000, -2.558500
  0.779000, -2.565000
  0.781000, -2.569100
  0.783000, -2.570900
  0.785000, -2.570400
  0.787000, -2.567500
  0.789000, -2.562300
  0.791000, -2.554800
  0.793000, -2.545300
  0.795000, -2.533700
  0.797000, -2.519900
  0.799000, -2.504300
  0.801000, -2.486800
  0.803000, -2.467200
  0.805000, -2.445800
  0.807000, -2.422500
  0.809000, -2.397400
  0.811000, -2.370700
  0.813000, -2.342200
  0.815000, -2.312200
  0.817000, -2.280900
  0.819000, -2.248400
  0.821000, -2.214600
  0.823000, -2.179200
  0.825000, -2.142700
  0.827000, -2.105100
  0.829000, -2.066700
  0.831000, -2.027100
  0.833000, -1.986600
  0.835000, -1.945300
  0.837000, -1.903300
  0.839000, -1.860600
  0.841000, -1.817300
  0.843000, -1.773800
  0.845000, -1.729800
  0.847000, -1.685400
  0.849000, -1.640900
  0.851000, -1.596100
  0.853000, -1.551100
  0.855000, -1.506300
  0.857000, -1.461500
  0.859000, -1.416700
  0.861000, -1.372100
  0.863000, -1.327800
  0.865000, -1.283800
  0.867000, -1.240100
  0.869000, -1.196800
  0.871000, -1.153900
  0.873000, -1.111700
  0.875000, -1.070200
  0.877000, -1.029200
  0.879000, -0.988900
  0.881000, -0.949300
  0.883000, -0.910600
  0.885000, -0.872800
  0.887000, -0.835700
  0.889000, -0.799400
  0.891000, -0.764000
  0.893000, -0.729600
  0.895000, -0.696200
  0.897000, -0.663900
  0.899000, -0.632600
  0.901000, -0.602300
  0.903000, -0.573000
  0.905000, -0.544700
  0.907000, -0.517600
  0.909000, -0.491600
  0.911000, -0.466600
  0.913000, -0.442700
  0.915000, -0.419900
  0.917000, -0.398300
  0.919000, -0.377700
  0.921000, -0.358100
  0.923000, -0.339800
  0.925000, -0.322300
  0.927000, -0.306000
  0.929000, -0.290700
  0.931000, -0.276200
  0.933000, -0.263000
  0.935000, -0.251000
  0.937000, -0.240000
  0.939000, -0.229900
  0.941000, -0.220800
  0.943000, -0.212600
  0.945000, -0.205300
  0.947000, -0.198900
  0.949000, -0.193500
  0.951000, -0.189100
  0.953000, -0.185600
  0.955000, -0.183100
  0.957000, -0.181400
  0.959000, -0.180600
  0.961000, -0.180700
  0.963000, -0.181500
  0.965000, -0.183000
  0.967000, -0.185200
  0.969000, -0.188200
  0.971000, -0.192000
  0.973000, -0.196400
  0.975000, -0.201600
  0.977000, -0.207500
  0.979000, -0.214000
  0.981000, -0.221000
  0.983000, -0.228800
  0.985000, -0.237000
  0.987000, -0.245800
  0.989000, -0.255300
  0.991000, -0.265200
  0.993000, -0.275400
  0.995000, -0.286100
  0.997000, -0.297200
  0.999000, -0.308500
  1.001000, -0.320300
  1.003000, -0.332500
  1.005000, -0.344800
  1.007000, -0.357400
  1.009000, -0.370100
  1.011000, -0.382900
  1.013000, -0.395800
  1.015000, -0.408700
  1.017000, -0.421800
  1.019000, -0.434900
  1.021000, -0.448000
  1.023000, -0.461000
  1.025000, -0.474000
  1.027000, -0.486800
  1.029000, -0.499400
  1.031000, -0.511700
  1.033000, -0.523900
  1.035000, -0.535900
  1.037000, -0.547600
  1.039000, -0.559100
  1.041000, -0.570300
  1.043000, -0.581100
  1.045000, -0.591400
  1.047000, -0.601500
  1.049000, -0.611100
  1.051000, -0.620000
  1.053000, -0.628500
  1.055000, -0.636500
  1.057000, -0.644000
  1.059000, -0.651100
  1.061000, -0.657600
  1.063000, -0.663700
  1.065000, -0.669300
  1.067000, -0.674200
  1.069000, -0.678700
  1.071000, -0.682700
  1.073000, -0.686100
  1.075000, -0.688800
  1.077000, -0.691000
  1.079000, -0.692600
  1.081000, -0.693600
  1.083000, -0.694000
  1.085000, -0.693900
  1.087000, -0.693200
  1.089000, -0.691900
  1.091000, -0.690100
  1.093000, -0.687800
  1.095000, -0.685000
  1.097000, -0.681800
  1.099000, -0.677900
  1.101000, -0.673600
  1.103000, -0.668900
  1.105000, -0.663700
  1.107000, -0.658300
  1.109000, -0.652400
  1.111000, -0.646100
  1.113000, -0.639500
  1.115000, -0.632400
  1.117000, -0.624900
  1.119000, -0.617200
  1.121000, -0.609200
  1.123000, -0.600800
  1.125000, -0.592300
  1.127000, -0.583600
  1.129000, -0.574800
  1.131000, -0.565700
  1.133000, -0.556400
  1.135000, -0.546900
  1.137000, -0.537100
  1.139000, -0.527300
  1.141000, -0.517400
  1.143000, -0.507400
  1.145000, -0.497300
  1.147000, -0.487100
  1.149000, -0.476900
  1.151000, -0.466500
  1.153000, -0.456000
  1.155000, -0.445500
  1.157000, -0.435000
  1.159000, -0.424500
  1.161000, -0.413900
  1.163000, -0.403300
  1.165000, -0.392800
  1.167000, -0.382300
  1.169000, -0.371700
  1.171000, -0.361100
  1.173000, -0.350600
  1.175000, -0.340100
  1.177000, -0.329900
  1.179000, -0.319700
  1.181000, -0.309500
  1.183000, -0.299400
  1.185000, -0.289400
  1.187000, -0.279400
  1.189000, -0.269500
  1.191000, -0.259800
  1.193000, -0.250300
  1.195000, -0.240900
  1.197000, -0.231500
  1.199000, -0.222300
  1.201000, -0.213200
  1.203000, -0.204300
  1.205000, -0.195400
  1.207000, -0.186500
  1.209000, -0.177800
  1.211000, -0.169300
  1.213000, -0.161000
  1.215000, -0.152900
  1.217000, -0.144900
  1.219000, -0.137000
  1.221000, -0.129100
  1.223000, -0.121500
  1.225000, -0.114000
  1.227000, -0.106700
  1.229000, -0.099700
  1.231000, -0.092700
  1.233000, -0.085700
  1.235000, -0.078900
  1.237000, -0.072200
  1.239000, -0.065600
  1.241000, -0.059300
  1.243000, -0.053300
  1.245000, -0.047300
  1.247000, -0.041400
  1.249000, -0.035800
  1.251000, -0.030200
  1.253000, -0.024900
  1.255000, -0.019700
  1.257000, -0.014700
  1.259000, -0.009800
  1.261000, -0.005000
  1.263000, -0.000400
  1.265000,  0.003800
  1.267000,  0.008000
  1.269000,  0.012100
  1.271000,  0.015900
  1.273000,  0.019500
  1.275000,  0.023000
  1.277000,  0.026300
  1.279000,  0.029400
  1.281000,  0.032300
  1.283000,  0.034900
  1.285000,  0.037500
  1.287000,  0.039800
  1.289000,  0.041900
  1.291000,  0.043800
  1.293000,  0.045500
  1.295000,  0.047000
  1.297000,  0.048400
  1.299000,  0.049500
  1.301000,  0.050500
  1.303000,  0.051200
  1.305000,  0.051800
  1.307000,  0.052300
  1.309000,  0.052700
  1.311000,  0.053000
  1.313000,  0.053000
  1.315000,  0.052800
  1.317000,  0.052600
  1.319000,  0.052200
  1.321000,  0.051700
  1.323000,  0.051200
  1.325000,  0.050500
  1.327000,  0.049800
  1.329000,  0.049000
  1.331000,  0.048300
  1.333000,  0.047500
  1.335000,  0.046600
  1.337000,  0.045900
  1.339000,  0.045200
  1.341000,  0.044300
  1.343000,  0.043600
  1.345000,  0.042900
  1.347000,  0.042400
  1.349000,  0.042000
  1.351000,  0.041700
  1.353000,  0.041600
  1.355000,  0.041700
  1.357000,  0.041800
  1.359000,  0.042100
  1.361000,  0.042800
  1.363000,  0.043500
  1.365000,  0.044400
  1.367000,  0.045600
  1.369000,  0.046800
  1.371000,  0.048300
  1.373000,  0.050200
  1.375000,  0.052200
  1.377000,  0.054300
  1.379000,  0.056800
  1.381000,  0.059400
  1.383000,  0.062100
  1.385000,  0.065000
  1.387000,  0.068100
  1.389000,  0.071200
  1.391000,  0.074400
  1.393000,  0.077600
  1.395000,  0.080400
  1.397000,  0.083100
  1.399000,  0.085700
