# z (nm)   (kJ/mol)
  0.371000, 11.240400
  0.373000, 10.591400
  0.375000,  9.946800
  0.377000,  9.341300
  0.379000,  8.732200
  0.381000,  8.110600
  0.383000,  7.509400
  0.385000,  6.910600
  0.387000,  6.313200
  0.389000,  5.720200
  0.391000,  5.141200
  0.393000,  4.583500
  0.395000,  4.031400
  0.397000,  3.484700
  0.399000,  2.952800
  0.401000,  2.441000
  0.403000,  1.943300
  0.405000,  1.455800
  0.407000,  0.982600
  0.409000,  0.527700
  0.411000,  0.086600
  0.413000, -0.336400
  0.415000, -0.739800
  0.417000, -1.130800
  0.419000, -1.511900
  0.421000, -1.879400
  0.423000, -2.233200
  0.425000, -2.571200
  0.427000, -2.892200
  0.429000, -3.195400
  0.431000, -3.483600
  0.433000, -3.757600
  0.435000, -4.014100
  0.437000, -4.257600
  0.439000, -4.483100
  0.441000, -4.689400
  0.443000, -4.879200
  0.445000, -5.051900
  0.447000, -5.207600
  0.449000, -5.347600
  0.451000, -5.470900
  0.453000, -5.578300
  0.455000, -5.672600
  0.457000, -5.750700
  0.459000, -5.812900
  0.461000, -5.861200
  0.463000, -5.893400
  0.465000, -5.911200
  0.467000, -5.915700
  0.469000, -5.908300
  0.471000, -5.889400
  0.473000, -5.857800
  0.475000, -5.814200
  0.477000, -5.759200
  0.479000, -5.694400
  0.481000, -5.620500
  0.483000, -5.538200
  0.485000, -5.446300
  0.487000, -5.345300
  0.489000, -5.239100
  0.491000, -5.128900
  0.493000, -5.012500
  0.495000, -4.891300
  0.497000, -4.766900
  0.499000, -4.637900
  0.501000, -4.506900
  0.503000, -4.376900
  0.505000, -4.245800
  0.507000, -4.111900
  0.509000, -3.976700
  0.511000, -3.839600
  0.513000, -3.703600
  0.515000, -3.568800
  0.517000, -3.435100
  0.519000, -3.305200
  0.521000, -3.179500
  0.523000, -3.055900
  0.525000, -2.933700
  0.527000, -2.815100
  0.529000, -2.699100
  0.531000, -2.586300
  0.533000, -2.477200
  0.535000, -2.372200
  0.537000, -2.272600
  0.539000, -2.177300
  0.541000, -2.085600
  0.543000, -1.997500
  0.545000, -1.913300
  0.547000, -1.834600
  0.549000, -1.758900
  0.551000, -1.686200
  0.553000, -1.618000
  0.555000, -1.553900
  0.557000, -1.493400
  0.559000, -1.436600
  0.561000, -1.383500
  0.563000, -1.333500
  0.565000, -1.286000
  0.567000, -1.240600
  0.569000, -1.197700
  0.571000, -1.157600
  0.573000, -1.119100
  0.575000, -1.081900
  0.577000, -1.047000
  0.579000, -1.014200
  0.581000, -0.983000
  0.583000, -0.953600
  0.585000, -0.925900
  0.587000, -0.899000
  0.589000, -0.873300
  0.591000, -0.848800
  0.593000, -0.825700
  0.595000, -0.803100
  0.597000, -0.780300
  0.599000, -0.759200
  0.601000, -0.739300
  0.603000, -0.720300
  0.605000, -0.701600
  0.607000, -0.683400
  0.609000, -0.665800
  0.611000, -0.648700
  0.613000, -0.632900
  0.615000, -0.617600
  0.617000, -0.603300
  0.619000, -0.589100
  0.621000, -0.575500
  0.623000, -0.562800
  0.625000, -0.550800
  0.627000, -0.539400
  0.629000, -0.528000
  0.631000, -0.516900
  0.633000, -0.506700
  0.635000, -0.497300
  0.637000, -0.488600
  0.639000, -0.480500
  0.641000, -0.472700
  0.643000, -0.466100
  0.645000, -0.460000
  0.647000, -0.454100
  0.649000, -0.449500
  0.651000, -0.446100
  0.653000, -0.442800
  0.655000, -0.440200
  0.657000, -0.438300
  0.659000, -0.437100
  0.661000, -0.437000
  0.663000, -0.437700
  0.665000, -0.438900
  0.667000, -0.440100
  0.669000, -0.441900
  0.671000, -0.444200
  0.673000, -0.447000
  0.675000, -0.450000
  0.677000, -0.453400
  0.679000, -0.457500
  0.681000, -0.461600
  0.683000, -0.465700
  0.685000, -0.470500
  0.687000, -0.475600
  0.689000, -0.480900
  0.691000, -0.486500
  0.693000, -0.492200
  0.695000, -0.498100
  0.697000, -0.504200
  0.699000, -0.510200
  0.701000, -0.516000
  0.703000, -0.522200
  0.705000, -0.528500
  0.707000, -0.534900
  0.709000, -0.541000
  0.711000, -0.547200
  0.713000, -0.553400
  0.715000, -0.559400
  0.717000, -0.565500
  0.719000, -0.571700
  0.721000, -0.577400
  0.723000, -0.582900
  0.725000, -0.588600
  0.727000, -0.594500
  0.729000, -0.600400
  0.731000, -0.606200
  0.733000, -0.611800
  0.735000, -0.617600
  0.737000, -0.623400
  0.739000, -0.629100
  0.741000, -0.634600
  0.743000, -0.640100
  0.745000, -0.645400
  0.747000, -0.650800
  0.749000, -0.655800
  0.751000, -0.660800
  0.753000, -0.665900
  0.755000, -0.670800
  0.757000, -0.675800
  0.759000, -0.680400
  0.761000, -0.684700
  0.763000, -0.689000
  0.765000, -0.693300
  0.767000, -0.697300
  0.769000, -0.700800
  0.771000, -0.704300
  0.773000, -0.707300
  0.775000, -0.709500
  0.777000, -0.711300
  0.779000, -0.712900
  0.781000, -0.714300
  0.783000, -0.715300
  0.785000, -0.716000
  0.787000, -0.716200
  0.789000, -0.716000
  0.791000, -0.715300
  0.793000, -0.714100
  0.795000, -0.712100
  0.797000, -0.709500
  0.799000, -0.706200
  0.801000, -0.702200
  0.803000, -0.697600
  0.805000, -0.692500
  0.807000, -0.686700
  0.809000, -0.680200
  0.811000, -0.673300
  0.813000, -0.665700
  0.815000, -0.657400
  0.817000, -0.648400
  0.819000, -0.638900
  0.821000, -0.628900
  0.823000, -0.618200
  0.825000, -0.606600
  0.827000, -0.594300
  0.829000, -0.581500
  0.831000, -0.568400
  0.833000, -0.554700
  0.835000, -0.540400
  0.837000, -0.525600
  0.839000, -0.510300
  0.841000, -0.494600
  0.843000, -0.478600
  0.845000, -0.462700
  0.847000, -0.446400
  0.849000, -0.429600
  0.851000, -0.412200
  0.853000, -0.394500
  0.855000, -0.376700
  0.857000, -0.359000
  0.859000, -0.341400
  0.861000, -0.323800
  0.863000, -0.306100
  0.865000, -0.288400
  0.867000, -0.270800
  0.869000, -0.253500
  0.871000, -0.236400
  0.873000, -0.219600
  0.875000, -0.203300
  0.877000, -0.187200
  0.879000, -0.171300
  0.881000, -0.155500
  0.883000, -0.140300
  0.885000, -0.125800
  0.887000, -0.111500
  0.889000, -0.097800
  0.891000, -0.084600
  0.893000, -0.071900
  0.895000, -0.059700
  0.897000, -0.048000
  0.899000, -0.036800
  0.901000, -0.026400
  0.903000, -0.016400
  0.905000, -0.006900
  0.907000,  0.001900
  0.909000,  0.010000
  0.911000,  0.017400
  0.913000,  0.024200
  0.915000,  0.030500
  0.917000,  0.036100
  0.919000,  0.041400
  0.921000,  0.046100
  0.923000,  0.050200
  0.925000,  0.053700
  0.927000,  0.056400
  0.929000,  0.058800
  0.931000,  0.060600
  0.933000,  0.062000
  0.935000,  0.062900
  0.937000,  0.063400
  0.939000,  0.063300
  0.941000,  0.062900
  0.943000,  0.062100
  0.945000,  0.060900
  0.947000,  0.059500
  0.949000,  0.057700
  0.951000,  0.055600
  0.953000,  0.053200
  0.955000,  0.050400
  0.957000,  0.047500
  0.959000,  0.044300
  0.961000,  0.040800
  0.963000,  0.037100
  0.965000,  0.033200
  0.967000,  0.029100
  0.969000,  0.024900
  0.971000,  0.020500
  0.973000,  0.016000
  0.975000,  0.011400
  0.977000,  0.006600
  0.979000,  0.001800
  0.981000, -0.003000
  0.983000, -0.007900
  0.985000, -0.012900
  0.987000, -0.017900
  0.989000, -0.023000
  0.991000, -0.028300
  0.993000, -0.033400
  0.995000, -0.038700
  0.997000, -0.043900
  0.999000, -0.049000
  1.001000, -0.054200
  1.003000, -0.059200
  1.005000, -0.064100
  1.007000, -0.069200
  1.009000, -0.073900
  1.011000, -0.078500
  1.013000, -0.083300
  1.015000, -0.088100
  1.017000, -0.092700
  1.019000, -0.097200
  1.021000, -0.101500
  1.023000, -0.105600
  1.025000, -0.109700
  1.027000, -0.113800
  1.029000, -0.117700
  1.031000, -0.121400
  1.033000, -0.124800
  1.035000, -0.128000
  1.037000, -0.131200
  1.039000, -0.134200
  1.041000, -0.136900
  1.043000, -0.139400
  1.045000, -0.141900
  1.047000, -0.144200
  1.049000, -0.146200
  1.051000, -0.148100
  1.053000, -0.149900
  1.055000, -0.151400
  1.057000, -0.152800
  1.059000, -0.154000
  1.061000, -0.155000
  1.063000, -0.155800
  1.065000, -0.156500
  1.067000, -0.156900
  1.069000, -0.157200
  1.071000, -0.157500
  1.073000, -0.157500
  1.075000, -0.157300
  1.077000, -0.157100
  1.079000, -0.156600
  1.081000, -0.155900
  1.083000, -0.155200
  1.085000, -0.154500
  1.087000, -0.153700
  1.089000, -0.152600
  1.091000, -0.151600
  1.093000, -0.150600
  1.095000, -0.149500
  1.097000, -0.148100
  1.099000, -0.146700
  1.101000, -0.145200
  1.103000, -0.143800
  1.105000, -0.142300
  1.107000, -0.140900
  1.109000, -0.139400
  1.111000, -0.137800
  1.113000, -0.136200
  1.115000, -0.134700
  1.117000, -0.133200
  1.119000, -0.131700
  1.121000, -0.130000
  1.123000, -0.128400
  1.125000, -0.126900
  1.127000, -0.125500
  1.129000, -0.124100
  1.131000, -0.122600
  1.133000, -0.121100
  1.135000, -0.119700
  1.137000, -0.118300
  1.139000, -0.116900
  1.141000, -0.115600
  1.143000, -0.114300
  1.145000, -0.113000
  1.147000, -0.111600
  1.149000, -0.110100
  1.151000, -0.108700
  1.153000, -0.107300
  1.155000, -0.106100
  1.157000, -0.104700
  1.159000, -0.103200
  1.161000, -0.101900
  1.163000, -0.100500
  1.165000, -0.099100
  1.167000, -0.097800
  1.169000, -0.096500
  1.171000, -0.095200
  1.173000, -0.093700
  1.175000, -0.092200
  1.177000, -0.090800
  1.179000, -0.089300
  1.181000, -0.087700
  1.183000, -0.086100
  1.185000, -0.084600
  1.187000, -0.083000
  1.189000, -0.081300
  1.191000, -0.079500
  1.193000, -0.077700
  1.195000, -0.075900
  1.197000, -0.074100
  1.199000, -0.072200
  1.201000, -0.070200
  1.203000, -0.068200
  1.205000, -0.066300
  1.207000, -0.064300
  1.209000, -0.062300
  1.211000, -0.060300
  1.213000, -0.058400
  1.215000, -0.056300
  1.217000, -0.054100
  1.219000, -0.051900
  1.221000, -0.049700
  1.223000, -0.047600
  1.225000, -0.045300
  1.227000, -0.043100
  1.229000, -0.040900
  1.231000, -0.038500
  1.233000, -0.036200
  1.235000, -0.033800
  1.237000, -0.031500
  1.239000, -0.029100
  1.241000, -0.026900
  1.243000, -0.024700
  1.245000, -0.022500
  1.247000, -0.020200
  1.249000, -0.017900
  1.251000, -0.015700
  1.253000, -0.013400
  1.255000, -0.011200
  1.257000, -0.009000
  1.259000, -0.007000
  1.261000, -0.005000
  1.263000, -0.003100
  1.265000, -0.001200
  1.267000,  0.000600
  1.269000,  0.002400
  1.271000,  0.004100
  1.273000,  0.005800
  1.275000,  0.007400
  1.277000,  0.008900
  1.279000,  0.010400
  1.281000,  0.011800
  1.283000,  0.013200
  1.285000,  0.014400
  1.287000,  0.015600
  1.289000,  0.016600
  1.291000,  0.017500
  1.293000,  0.018300
  1.295000,  0.018900
  1.297000,  0.019600
  1.299000,  0.020100
  1.301000,  0.020600
  1.303000,  0.021000
  1.305000,  0.021400
  1.307000,  0.021700
  1.309000,  0.022000
  1.311000,  0.022200
  1.313000,  0.022400
  1.315000,  0.022400
  1.317000,  0.022400
  1.319000,  0.022300
  1.321000,  0.022100
  1.323000,  0.021900
  1.325000,  0.021600
  1.327000,  0.021300
  1.329000,  0.021000
  1.331000,  0.020700
  1.333000,  0.020400
  1.335000,  0.020200
  1.337000,  0.019900
  1.339000,  0.019600
  1.341000,  0.019300
  1.343000,  0.018900
  1.345000,  0.018600
  1.347000,  0.018500
  1.349000,  0.018300
  1.351000,  0.018200
  1.353000,  0.018100
  1.355000,  0.017900
  1.357000,  0.017800
  1.359000,  0.017800
  1.361000,  0.017800
  1.363000,  0.017800
  1.365000,  0.018000
  1.367000,  0.018200
  1.369000,  0.018400
  1.371000,  0.018800
  1.373000,  0.019400
  1.375000,  0.019800
  1.377000,  0.020100
  1.379000,  0.020500
  1.381000,  0.021000
  1.383000,  0.021500
  1.385000,  0.022100
  1.387000,  0.022700
  1.389000,  0.023300
  1.391000,  0.023600
  1.393000,  0.023600
  1.395000,  0.023600
  1.397000,  0.023400
  1.399000,  0.022600
