# z (nm)   (kJ/mol)
  0.377000, 14.985500
  0.383000, 14.288500
  0.385000, 13.893200
  0.387000, 13.473700
  0.389000, 13.049800
  0.391000, 12.620700
  0.393000, 12.187700
  0.395000, 11.754600
  0.397000, 11.336800
  0.399000, 10.928100
  0.401000, 10.518000
  0.403000, 10.117700
  0.405000,  9.732800
  0.407000,  9.353100
  0.409000,  8.982100
  0.411000,  8.618600
  0.413000,  8.259900
  0.415000,  7.915100
  0.417000,  7.581500
  0.419000,  7.258900
  0.421000,  6.947600
  0.423000,  6.649100
  0.425000,  6.364400
  0.427000,  6.090100
  0.429000,  5.827200
  0.431000,  5.577100
  0.433000,  5.339100
  0.435000,  5.114200
  0.437000,  4.902600
  0.439000,  4.698300
  0.441000,  4.502600
  0.443000,  4.319400
  0.445000,  4.148500
  0.447000,  3.987800
  0.449000,  3.837300
  0.451000,  3.697400
  0.453000,  3.566300
  0.455000,  3.444000
  0.457000,  3.331400
  0.459000,  3.228800
  0.461000,  3.135100
  0.463000,  3.050400
  0.465000,  2.973600
  0.467000,  2.903700
  0.469000,  2.841300
  0.471000,  2.786300
  0.473000,  2.738200
  0.475000,  2.696700
  0.477000,  2.661500
  0.479000,  2.633300
  0.481000,  2.611300
  0.483000,  2.594300
  0.485000,  2.581400
  0.487000,  2.573200
  0.489000,  2.570100
  0.491000,  2.571700
  0.493000,  2.575600
  0.495000,  2.580800
  0.497000,  2.590100
  0.499000,  2.603300
  0.501000,  2.619600
  0.503000,  2.638800
  0.505000,  2.659800
  0.507000,  2.681500
  0.509000,  2.704600
  0.511000,  2.728200
  0.513000,  2.752300
  0.515000,  2.776600
  0.517000,  2.801400
  0.519000,  2.826900
  0.521000,  2.852000
  0.523000,  2.876300
  0.525000,  2.899400
  0.527000,  2.921500
  0.529000,  2.943500
  0.531000,  2.965200
  0.533000,  2.985900
  0.535000,  3.005300
  0.537000,  3.023000
  0.539000,  3.039100
  0.541000,  3.054200
  0.543000,  3.068300
  0.545000,  3.080500
  0.547000,  3.091200
  0.549000,  3.100800
  0.551000,  3.109100
  0.553000,  3.116100
  0.555000,  3.121800
  0.557000,  3.126000
  0.559000,  3.128600
  0.561000,  3.129800
  0.563000,  3.129600
  0.565000,  3.128000
  0.567000,  3.125000
  0.569000,  3.120600
  0.571000,  3.114800
  0.573000,  3.107500
  0.575000,  3.098900
  0.577000,  3.088900
  0.579000,  3.077500
  0.581000,  3.064700
  0.583000,  3.050700
  0.585000,  3.035300
  0.587000,  3.018700
  0.589000,  3.000600
  0.591000,  2.980900
  0.593000,  2.959900
  0.595000,  2.937300
  0.597000,  2.913300
  0.599000,  2.887800
  0.601000,  2.860800
  0.603000,  2.832300
  0.605000,  2.802200
  0.607000,  2.770300
  0.609000,  2.736700
  0.611000,  2.701600
  0.613000,  2.664800
  0.615000,  2.626300
  0.617000,  2.586100
  0.619000,  2.544400
  0.621000,  2.501100
  0.623000,  2.456100
  0.625000,  2.409600
  0.627000,  2.361500
  0.629000,  2.311600
  0.631000,  2.259900
  0.633000,  2.206200
  0.635000,  2.151300
  0.637000,  2.095100
  0.639000,  2.037800
  0.641000,  1.979200
  0.643000,  1.919000
  0.645000,  1.857600
  0.647000,  1.794800
  0.649000,  1.730900
  0.651000,  1.666300
  0.653000,  1.600900
  0.655000,  1.534200
  0.657000,  1.466900
  0.659000,  1.399000
  0.661000,  1.330600
  0.663000,  1.261700
  0.665000,  1.192100
  0.667000,  1.122600
  0.669000,  1.053500
  0.671000,  0.984100
  0.673000,  0.914900
  0.675000,  0.846300
  0.677000,  0.777700
  0.679000,  0.709400
  0.681000,  0.641500
  0.683000,  0.574000
  0.685000,  0.507400
  0.687000,  0.441300
  0.689000,  0.376300
  0.691000,  0.312700
  0.693000,  0.250100
  0.695000,  0.188900
  0.697000,  0.128800
  0.699000,  0.070100
  0.701000,  0.012700
  0.703000, -0.043000
  0.705000, -0.097200
  0.707000, -0.149700
  0.709000, -0.200600
  0.711000, -0.249900
  0.713000, -0.297400
  0.715000, -0.342900
  0.717000, -0.386500
  0.719000, -0.428200
  0.721000, -0.468000
  0.723000, -0.505900
  0.725000, -0.541700
  0.727000, -0.575700
  0.729000, -0.607500
  0.731000, -0.637300
  0.733000, -0.665200
  0.735000, -0.690900
  0.737000, -0.714900
  0.739000, -0.737100
  0.741000, -0.757300
  0.743000, -0.775200
  0.745000, -0.791400
  0.747000, -0.805900
  0.749000, -0.818600
  0.751000, -0.829400
  0.753000, -0.838600
  0.755000, -0.846100
  0.757000, -0.852200
  0.759000, -0.856500
  0.761000, -0.859400
  0.763000, -0.860800
  0.765000, -0.860800
  0.767000, -0.859300
  0.769000, -0.856200
  0.771000, -0.851700
  0.773000, -0.846200
  0.775000, -0.839500
  0.777000, -0.831700
  0.779000, -0.822700
  0.781000, -0.812600
  0.783000, -0.801700
  0.785000, -0.789900
  0.787000, -0.777100
  0.789000, -0.763400
  0.791000, -0.748900
  0.793000, -0.733700
  0.795000, -0.717800
  0.797000, -0.701300
  0.799000, -0.684200
  0.801000, -0.666500
  0.803000, -0.648200
  0.805000, -0.629400
  0.807000, -0.610000
  0.809000, -0.590200
  0.811000, -0.570000
  0.813000, -0.549500
  0.815000, -0.528600
  0.817000, -0.507500
  0.819000, -0.486200
  0.821000, -0.464500
  0.823000, -0.442400
  0.825000, -0.420100
  0.827000, -0.397600
  0.829000, -0.374900
  0.831000, -0.352300
  0.833000, -0.329500
  0.835000, -0.306500
  0.837000, -0.283500
  0.839000, -0.260500
  0.841000, -0.237600
  0.843000, -0.214500
  0.845000, -0.191500
  0.847000, -0.168700
  0.849000, -0.146000
  0.851000, -0.123200
  0.853000, -0.100700
  0.855000, -0.078300
  0.857000, -0.056100
  0.859000, -0.034100
  0.861000, -0.012400
  0.863000,  0.008900
  0.865000,  0.029800
  0.867000,  0.050500
  0.869000,  0.070900
  0.871000,  0.090800
  0.873000,  0.110200
  0.875000,  0.129100
  0.877000,  0.147500
  0.879000,  0.165300
  0.881000,  0.182600
  0.883000,  0.199300
  0.885000,  0.215300
  0.887000,  0.230700
  0.889000,  0.245400
  0.891000,  0.259400
  0.893000,  0.272700
  0.895000,  0.285100
  0.897000,  0.296800
  0.899000,  0.307700
  0.901000,  0.317800
  0.903000,  0.327100
  0.905000,  0.335600
  0.907000,  0.343300
  0.909000,  0.350100
  0.911000,  0.356100
  0.913000,  0.361300
  0.915000,  0.365500
  0.917000,  0.369000
  0.919000,  0.371600
  0.921000,  0.373300
  0.923000,  0.374000
  0.925000,  0.374000
  0.927000,  0.373200
  0.929000,  0.371600
  0.931000,  0.369300
  0.933000,  0.366000
  0.935000,  0.362100
  0.937000,  0.357300
  0.939000,  0.351800
  0.941000,  0.345500
  0.943000,  0.338600
  0.945000,  0.330900
  0.947000,  0.322500
  0.949000,  0.313600
  0.951000,  0.304300
  0.953000,  0.294600
  0.955000,  0.284300
  0.957000,  0.273400
  0.959000,  0.262000
  0.961000,  0.250400
  0.963000,  0.238500
  0.965000,  0.226300
  0.967000,  0.213800
  0.969000,  0.201000
  0.971000,  0.188100
  0.973000,  0.174900
  0.975000,  0.161500
  0.977000,  0.147800
  0.979000,  0.134000
  0.981000,  0.120200
  0.983000,  0.106400
  0.985000,  0.092600
  0.987000,  0.078900
  0.989000,  0.065300
  0.991000,  0.051800
  0.993000,  0.038300
  0.995000,  0.024900
  0.997000,  0.011700
  0.999000, -0.001300
  1.001000, -0.014100
  1.003000, -0.026700
  1.005000, -0.039100
  1.007000, -0.051200
  1.009000, -0.063100
  1.011000, -0.074700
  1.013000, -0.085900
  1.015000, -0.096900
  1.017000, -0.107600
  1.019000, -0.118000
  1.021000, -0.128000
  1.023000, -0.137600
  1.025000, -0.146700
  1.027000, -0.155400
  1.029000, -0.163700
  1.031000, -0.171700
  1.033000, -0.179400
  1.035000, -0.186700
  1.037000, -0.193500
  1.039000, -0.199800
  1.041000, -0.205800
  1.043000, -0.211400
  1.045000, -0.216500
  1.047000, -0.221200
  1.049000, -0.225700
  1.051000, -0.229700
  1.053000, -0.233400
  1.055000, -0.236700
  1.057000, -0.239500
  1.059000, -0.241900
  1.061000, -0.243900
  1.063000, -0.245600
  1.065000, -0.246800
  1.067000, -0.247800
  1.069000, -0.248500
  1.071000, -0.248600
  1.073000, -0.248400
  1.075000, -0.247800
  1.077000, -0.247000
  1.079000, -0.245800
  1.081000, -0.244200
  1.083000, -0.242300
  1.085000, -0.240000
  1.087000, -0.237400
  1.089000, -0.234600
  1.091000, -0.231600
  1.093000, -0.228200
  1.095000, -0.224600
  1.097000, -0.220800
  1.099000, -0.216700
  1.101000, -0.212300
  1.103000, -0.207800
  1.105000, -0.203000
  1.107000, -0.198100
  1.109000, -0.193000
  1.111000, -0.187800
  1.113000, -0.182500
  1.115000, -0.177000
  1.117000, -0.171400
  1.119000, -0.165800
  1.121000, -0.160200
  1.123000, -0.154600
  1.125000, -0.148800
  1.127000, -0.142900
  1.129000, -0.137000
  1.131000, -0.131200
  1.133000, -0.125400
  1.135000, -0.119500
  1.137000, -0.113700
  1.139000, -0.108000
  1.141000, -0.102400
  1.143000, -0.096900
  1.145000, -0.091300
  1.147000, -0.085900
  1.149000, -0.080600
  1.151000, -0.075300
  1.153000, -0.070100
  1.155000, -0.065000
  1.157000, -0.060100
  1.159000, -0.055200
  1.161000, -0.050400
  1.163000, -0.045800
  1.165000, -0.041400
  1.167000, -0.037100
  1.169000, -0.032800
  1.171000, -0.028800
  1.173000, -0.024900
  1.175000, -0.021000
  1.177000, -0.017400
  1.179000, -0.013800
  1.181000, -0.010300
  1.183000, -0.007000
  1.185000, -0.003600
  1.187000, -0.000300
  1.189000,  0.002700
  1.191000,  0.005600
  1.193000,  0.008500
  1.195000,  0.011400
  1.197000,  0.013900
  1.199000,  0.016400
  1.201000,  0.018800
  1.203000,  0.021200
  1.205000,  0.023600
  1.207000,  0.025800
  1.209000,  0.028000
  1.211000,  0.030100
  1.213000,  0.032100
  1.215000,  0.034100
  1.217000,  0.035900
  1.219000,  0.037800
  1.221000,  0.039500
  1.223000,  0.041000
  1.225000,  0.042400
  1.227000,  0.043900
  1.229000,  0.045100
  1.231000,  0.046300
  1.233000,  0.047300
  1.235000,  0.048200
  1.237000,  0.049000
  1.239000,  0.049500
  1.241000,  0.049900
  1.243000,  0.050200
  1.245000,  0.050300
  1.247000,  0.050300
  1.249000,  0.050200
  1.251000,  0.050000
  1.253000,  0.049600
  1.255000,  0.049100
  1.257000,  0.048400
  1.259000,  0.047500
  1.261000,  0.046300
  1.263000,  0.045100
  1.265000,  0.043700
  1.267000,  0.042000
  1.269000,  0.040300
  1.271000,  0.038300
  1.273000,  0.036200
  1.275000,  0.034000
  1.277000,  0.031700
  1.279000,  0.029200
  1.281000,  0.026600
  1.283000,  0.023900
  1.285000,  0.021100
  1.287000,  0.018100
  1.289000,  0.015000
  1.291000,  0.011900
  1.293000,  0.008600
  1.295000,  0.005400
  1.297000,  0.002100
  1.299000, -0.001300
  1.301000, -0.004600
  1.303000, -0.008100
  1.305000, -0.011700
  1.307000, -0.015100
  1.309000, -0.018600
  1.311000, -0.022000
  1.313000, -0.025400
  1.315000, -0.028900
  1.317000, -0.032100
  1.319000, -0.035300
  1.321000, -0.038400
  1.323000, -0.041400
  1.325000, -0.044200
  1.327000, -0.046900
  1.329000, -0.049500
  1.331000, -0.051800
  1.333000, -0.053900
  1.335000, -0.055800
  1.337000, -0.057500
  1.339000, -0.059100
  1.341000, -0.060300
  1.343000, -0.061200
  1.345000, -0.061800
  1.347000, -0.062200
  1.349000, -0.062300
  1.351000, -0.062200
  1.353000, -0.061700
  1.355000, -0.060900
  1.357000, -0.059700
  1.359000, -0.058200
  1.361000, -0.056400
  1.363000, -0.054400
  1.365000, -0.052200
  1.367000, -0.049600
  1.369000, -0.046600
  1.371000, -0.043200
  1.373000, -0.039600
  1.375000, -0.035800
  1.377000, -0.031800
  1.379000, -0.027400
  1.381000, -0.022700
  1.383000, -0.017800
  1.385000, -0.012800
  1.387000, -0.007700
  1.389000, -0.002800
  1.391000,  0.002100
  1.393000,  0.007300
  1.395000,  0.012600
  1.397000,  0.017600
  1.399000,  0.022300
