# z (nm)   (kJ/mol)
  0.347000,  5.774100
  0.349000,  5.162600
  0.351000,  4.455300
  0.353000,  3.794700
  0.355000,  3.126000
  0.357000,  2.454000
  0.359000,  1.811300
  0.361000,  1.180200
  0.363000,  0.553100
  0.365000, -0.062800
  0.367000, -0.665300
  0.369000, -1.249600
  0.371000, -1.818300
  0.373000, -2.363700
  0.375000, -2.885400
  0.377000, -3.393100
  0.379000, -3.881400
  0.381000, -4.347900
  0.383000, -4.791900
  0.385000, -5.210200
  0.387000, -5.604200
  0.389000, -5.976900
  0.391000, -6.327000
  0.393000, -6.654700
  0.395000, -6.962300
  0.397000, -7.250100
  0.399000, -7.514500
  0.401000, -7.755500
  0.403000, -7.975000
  0.405000, -8.171800
  0.407000, -8.348300
  0.409000, -8.505200
  0.411000, -8.640400
  0.413000, -8.753300
  0.415000, -8.845000
  0.417000, -8.916600
  0.419000, -8.969200
  0.421000, -9.002700
  0.423000, -9.017400
  0.425000, -9.013100
  0.427000, -8.990500
  0.429000, -8.950900
  0.431000, -8.894900
  0.433000, -8.823500
  0.435000, -8.736900
  0.437000, -8.635000
  0.439000, -8.518500
  0.441000, -8.387900
  0.443000, -8.245400
  0.445000, -8.092000
  0.447000, -7.928100
  0.449000, -7.755700
  0.451000, -7.575700
  0.453000, -7.385300
  0.455000, -7.188800
  0.457000, -6.988100
  0.459000, -6.781700
  0.461000, -6.571500
  0.463000, -6.358700
  0.465000, -6.140500
  0.467000, -5.920200
  0.469000, -5.701200
  0.471000, -5.480700
  0.473000, -5.261800
  0.475000, -5.043200
  0.477000, -4.825200
  0.479000, -4.610700
  0.481000, -4.400300
  0.483000, -4.194900
  0.485000, -3.991400
  0.487000, -3.791900
  0.489000, -3.598100
  0.491000, -3.408400
  0.493000, -3.224800
  0.495000, -3.047000
  0.497000, -2.874500
  0.499000, -2.708600
  0.501000, -2.548900
  0.503000, -2.395000
  0.505000, -2.248200
  0.507000, -2.108600
  0.509000, -1.975400
  0.511000, -1.849500
  0.513000, -1.730100
  0.515000, -1.616900
  0.517000, -1.510800
  0.519000, -1.411500
  0.521000, -1.318700
  0.523000, -1.232600
  0.525000, -1.152800
  0.527000, -1.079500
  0.529000, -1.012600
  0.531000, -0.952000
  0.533000, -0.897500
  0.535000, -0.848900
  0.537000, -0.806100
  0.539000, -0.768800
  0.541000, -0.736700
  0.543000, -0.710000
  0.545000, -0.688200
  0.547000, -0.671400
  0.549000, -0.659800
  0.551000, -0.652800
  0.553000, -0.650000
  0.555000, -0.651900
  0.557000, -0.658700
  0.559000, -0.669900
  0.561000, -0.684600
  0.563000, -0.703000
  0.565000, -0.725000
  0.567000, -0.750400
  0.569000, -0.779000
  0.571000, -0.811200
  0.573000, -0.846900
  0.575000, -0.885200
  0.577000, -0.925800
  0.579000, -0.969000
  0.581000, -1.014600
  0.583000, -1.062200
  0.585000, -1.111500
  0.587000, -1.162700
  0.589000, -1.215700
  0.591000, -1.270200
  0.593000, -1.325700
  0.595000, -1.381800
  0.597000, -1.438700
  0.599000, -1.496200
  0.601000, -1.554200
  0.603000, -1.612300
  0.605000, -1.670400
  0.607000, -1.728300
  0.609000, -1.785300
  0.611000, -1.841800
  0.613000, -1.897800
  0.615000, -1.953100
  0.617000, -2.007100
  0.619000, -2.059600
  0.621000, -2.110500
  0.623000, -2.159900
  0.625000, -2.207500
  0.627000, -2.253100
  0.629000, -2.296400
  0.631000, -2.337300
  0.633000, -2.376000
  0.635000, -2.412600
  0.637000, -2.446700
  0.639000, -2.478300
  0.641000, -2.507200
  0.643000, -2.533500
  0.645000, -2.557000
  0.647000, -2.577800
  0.649000, -2.595800
  0.651000, -2.611000
  0.653000, -2.623200
  0.655000, -2.632700
  0.657000, -2.639400
  0.659000, -2.643300
  0.661000, -2.644200
  0.663000, -2.642600
  0.665000, -2.638400
  0.667000, -2.631600
  0.669000, -2.622300
  0.671000, -2.610500
  0.673000, -2.596300
  0.675000, -2.579700
  0.677000, -2.560900
  0.679000, -2.540100
  0.681000, -2.517500
  0.683000, -2.492800
  0.685000, -2.466100
  0.687000, -2.437700
  0.689000, -2.407800
  0.691000, -2.376400
  0.693000, -2.343900
  0.695000, -2.310400
  0.697000, -2.276000
  0.699000, -2.240900
  0.701000, -2.205000
  0.703000, -2.168300
  0.705000, -2.131200
  0.707000, -2.093400
  0.709000, -2.055400
  0.711000, -2.017500
  0.713000, -1.979400
  0.715000, -1.941200
  0.717000, -1.903200
  0.719000, -1.865400
  0.721000, -1.827800
  0.723000, -1.790400
  0.725000, -1.753600
  0.727000, -1.717200
  0.729000, -1.681400
  0.731000, -1.646300
  0.733000, -1.612200
  0.735000, -1.578600
  0.737000, -1.545600
  0.739000, -1.513600
  0.741000, -1.482400
  0.743000, -1.452100
  0.745000, -1.422700
  0.747000, -1.394100
  0.749000, -1.366400
  0.751000, -1.339800
  0.753000, -1.314000
  0.755000, -1.289000
  0.757000, -1.264700
  0.759000, -1.241400
  0.761000, -1.218900
  0.763000, -1.197100
  0.765000, -1.176300
  0.767000, -1.156300
  0.769000, -1.137100
  0.771000, -1.118600
  0.773000, -1.100800
  0.775000, -1.083700
  0.777000, -1.067400
  0.779000, -1.051900
  0.781000, -1.037100
  0.783000, -1.022800
  0.785000, -1.009200
  0.787000, -0.996300
  0.789000, -0.984000
  0.791000, -0.972200
  0.793000, -0.960900
  0.795000, -0.950200
  0.797000, -0.939800
  0.799000, -0.929800
  0.801000, -0.920400
  0.803000, -0.911500
  0.805000, -0.903100
  0.807000, -0.895200
  0.809000, -0.887800
  0.811000, -0.880600
  0.813000, -0.873800
  0.815000, -0.867400
  0.817000, -0.861400
  0.819000, -0.855600
  0.821000, -0.850100
  0.823000, -0.845000
  0.825000, -0.840300
  0.827000, -0.836000
  0.829000, -0.831900
  0.831000, -0.828000
  0.833000, -0.824400
  0.835000, -0.820900
  0.837000, -0.817700
  0.839000, -0.814800
  0.841000, -0.812100
  0.843000, -0.809500
  0.845000, -0.807000
  0.847000, -0.804800
  0.849000, -0.802700
  0.851000, -0.800500
  0.853000, -0.798500
  0.855000, -0.796600
  0.857000, -0.794900
  0.859000, -0.793200
  0.861000, -0.791500
  0.863000, -0.789800
  0.865000, -0.788000
  0.867000, -0.786200
  0.869000, -0.784400
  0.871000, -0.782600
  0.873000, -0.780700
  0.875000, -0.778600
  0.877000, -0.776400
  0.879000, -0.774000
  0.881000, -0.771700
  0.883000, -0.769200
  0.885000, -0.766400
  0.887000, -0.763400
  0.889000, -0.760300
  0.891000, -0.757000
  0.893000, -0.753300
  0.895000, -0.749600
  0.897000, -0.745800
  0.899000, -0.741600
  0.901000, -0.737200
  0.903000, -0.732500
  0.905000, -0.727700
  0.907000, -0.722600
  0.909000, -0.717400
  0.911000, -0.712000
  0.913000, -0.706500
  0.915000, -0.700800
  0.917000, -0.694800
  0.919000, -0.688800
  0.921000, -0.682500
  0.923000, -0.676100
  0.925000, -0.669600
  0.927000, -0.663000
  0.929000, -0.656300
  0.931000, -0.649500
  0.933000, -0.642800
  0.935000, -0.635900
  0.937000, -0.628800
  0.939000, -0.621800
  0.941000, -0.614800
  0.943000, -0.607900
  0.945000, -0.601100
  0.947000, -0.594200
  0.949000, -0.587300
  0.951000, -0.580500
  0.953000, -0.573800
  0.955000, -0.567100
  0.957000, -0.560400
  0.959000, -0.554000
  0.961000, -0.547700
  0.963000, -0.541500
  0.965000, -0.535400
  0.967000, -0.529600
  0.969000, -0.523900
  0.971000, -0.518400
  0.973000, -0.513100
  0.975000, -0.507900
  0.977000, -0.502700
  0.979000, -0.497800
  0.981000, -0.493100
  0.983000, -0.488600
  0.985000, -0.484300
  0.987000, -0.480100
  0.989000, -0.476100
  0.991000, -0.472300
  0.993000, -0.468700
  0.995000, -0.465300
  0.997000, -0.462100
  0.999000, -0.459100
  1.001000, -0.456200
  1.003000, -0.453400
  1.005000, -0.450700
  1.007000, -0.448200
  1.009000, -0.445900
  1.011000, -0.443900
  1.013000, -0.441900
  1.015000, -0.439800
  1.017000, -0.437800
  1.019000, -0.436000
  1.021000, -0.434400
  1.023000, -0.432800
  1.025000, -0.431400
  1.027000, -0.429800
  1.029000, -0.428500
  1.031000, -0.427100
  1.033000, -0.425700
  1.035000, -0.424600
  1.037000, -0.423500
  1.039000, -0.422300
  1.041000, -0.421200
  1.043000, -0.419900
  1.045000, -0.418500
  1.047000, -0.417300
  1.049000, -0.416100
  1.051000, -0.414700
  1.053000, -0.413300
  1.055000, -0.411900
  1.057000, -0.410400
  1.059000, -0.409000
  1.061000, -0.407500
  1.063000, -0.405800
  1.065000, -0.404100
  1.067000, -0.402300
  1.069000, -0.400400
  1.071000, -0.398300
  1.073000, -0.396200
  1.075000, -0.394000
  1.077000, -0.391700
  1.079000, -0.389300
  1.081000, -0.386900
  1.083000, -0.384200
  1.085000, -0.381500
  1.087000, -0.378800
  1.089000, -0.375900
  1.091000, -0.372700
  1.093000, -0.369500
  1.095000, -0.366200
  1.097000, -0.362700
  1.099000, -0.359100
  1.101000, -0.355600
  1.103000, -0.351800
  1.105000, -0.347900
  1.107000, -0.343800
  1.109000, -0.339800
  1.111000, -0.335400
  1.113000, -0.331000
  1.115000, -0.326400
  1.117000, -0.321700
  1.119000, -0.316900
  1.121000, -0.312100
  1.123000, -0.307100
  1.125000, -0.302000
  1.127000, -0.297000
  1.129000, -0.292000
  1.131000, -0.287000
  1.133000, -0.281800
  1.135000, -0.276400
  1.137000, -0.271000
  1.139000, -0.265700
  1.141000, -0.260300
  1.143000, -0.254900
  1.145000, -0.249400
  1.147000, -0.244000
  1.149000, -0.238400
  1.151000, -0.233000
  1.153000, -0.227600
  1.155000, -0.222100
  1.157000, -0.216500
  1.159000, -0.211100
  1.161000, -0.205600
  1.163000, -0.200300
  1.165000, -0.195200
  1.167000, -0.190100
  1.169000, -0.185100
  1.171000, -0.180000
  1.173000, -0.174900
  1.175000, -0.169900
  1.177000, -0.165100
  1.179000, -0.160500
  1.181000, -0.155800
  1.183000, -0.150900
  1.185000, -0.146100
  1.187000, -0.141700
  1.189000, -0.137500
  1.191000, -0.133200
  1.193000, -0.128900
  1.195000, -0.124600
  1.197000, -0.120600
  1.199000, -0.116800
  1.201000, -0.113100
  1.203000, -0.109300
  1.205000, -0.105600
  1.207000, -0.102000
  1.209000, -0.098400
  1.211000, -0.095000
  1.213000, -0.091500
  1.215000, -0.088200
  1.217000, -0.085100
  1.219000, -0.082100
  1.221000, -0.079100
  1.223000, -0.076200
  1.225000, -0.073400
  1.227000, -0.070700
  1.229000, -0.068100
  1.231000, -0.065600
  1.233000, -0.063300
  1.235000, -0.061100
  1.237000, -0.058900
  1.239000, -0.056700
  1.241000, -0.054600
  1.243000, -0.052600
  1.245000, -0.050800
  1.247000, -0.049200
  1.249000, -0.047600
  1.251000, -0.046200
  1.253000, -0.044700
  1.255000, -0.043400
  1.257000, -0.042200
  1.259000, -0.041200
  1.261000, -0.040100
  1.263000, -0.039100
  1.265000, -0.038200
  1.267000, -0.037300
  1.269000, -0.036500
  1.271000, -0.035700
  1.273000, -0.035100
  1.275000, -0.034400
  1.277000, -0.033900
  1.279000, -0.033300
  1.281000, -0.032700
  1.283000, -0.032200
  1.285000, -0.031600
  1.287000, -0.031100
  1.289000, -0.030600
  1.291000, -0.030000
  1.293000, -0.029500
  1.295000, -0.028900
  1.297000, -0.028100
  1.299000, -0.027300
  1.301000, -0.026500
  1.303000, -0.025600
  1.305000, -0.024400
  1.307000, -0.023100
  1.309000, -0.021700
  1.311000, -0.020300
  1.313000, -0.018700
  1.315000, -0.017000
  1.317000, -0.015100
  1.319000, -0.013100
  1.321000, -0.011000
  1.323000, -0.008700
  1.325000, -0.006100
  1.327000, -0.003300
  1.329000, -0.000500
  1.331000,  0.002600
  1.333000,  0.005900
  1.335000,  0.009400
  1.337000,  0.013200
  1.339000,  0.017100
  1.341000,  0.021300
  1.343000,  0.025600
  1.345000,  0.030300
  1.347000,  0.035100
  1.349000,  0.040000
  1.351000,  0.045000
  1.353000,  0.050400
  1.355000,  0.056000
  1.357000,  0.061700
  1.359000,  0.067500
  1.361000,  0.073400
  1.363000,  0.079600
  1.365000,  0.085900
  1.367000,  0.092100
  1.369000,  0.098400
  1.371000,  0.104700
  1.373000,  0.111200
  1.375000,  0.117900
  1.377000,  0.124600
  1.379000,  0.131500
  1.381000,  0.138300
  1.383000,  0.145000
  1.385000,  0.151700
  1.387000,  0.158300
  1.389000,  0.164800
  1.391000,  0.171000
  1.393000,  0.177200
  1.395000,  0.183100
  1.397000,  0.188500
  1.399000,  0.193600
