# z (nm)   (kJ/mol)
  0.403000, 11.203200
  0.405000, 10.731700
  0.407000, 10.320700
  0.409000,  9.875800
  0.411000,  9.395600
  0.413000,  8.934900
  0.415000,  8.496500
  0.417000,  8.048500
  0.419000,  7.601100
  0.421000,  7.160200
  0.423000,  6.719800
  0.425000,  6.283700
  0.427000,  5.858600
  0.429000,  5.446500
  0.431000,  5.044400
  0.433000,  4.652000
  0.435000,  4.271300
  0.437000,  3.905300
  0.439000,  3.552600
  0.441000,  3.210800
  0.443000,  2.883700
  0.445000,  2.575700
  0.447000,  2.285900
  0.449000,  2.012600
  0.451000,  1.753400
  0.453000,  1.507900
  0.455000,  1.274300
  0.457000,  1.051700
  0.459000,  0.841400
  0.461000,  0.644900
  0.463000,  0.461900
  0.465000,  0.291300
  0.467000,  0.131000
  0.469000, -0.016500
  0.471000, -0.149700
  0.473000, -0.272600
  0.475000, -0.383300
  0.477000, -0.482500
  0.479000, -0.570200
  0.481000, -0.646200
  0.483000, -0.710700
  0.485000, -0.763400
  0.487000, -0.804700
  0.489000, -0.835500
  0.491000, -0.855800
  0.493000, -0.865500
  0.495000, -0.866300
  0.497000, -0.858800
  0.499000, -0.843400
  0.501000, -0.820900
  0.503000, -0.789600
  0.505000, -0.750700
  0.507000, -0.706500
  0.509000, -0.656900
  0.511000, -0.604000
  0.513000, -0.546600
  0.515000, -0.482900
  0.517000, -0.417400
  0.519000, -0.351600
  0.521000, -0.283600
  0.523000, -0.214300
  0.525000, -0.142700
  0.527000, -0.070800
  0.529000, -0.000400
  0.531000,  0.068700
  0.533000,  0.137500
  0.535000,  0.206300
  0.537000,  0.274100
  0.539000,  0.340900
  0.541000,  0.406200
  0.543000,  0.469000
  0.545000,  0.528700
  0.547000,  0.585800
  0.549000,  0.640200
  0.551000,  0.693400
  0.553000,  0.743900
  0.555000,  0.790900
  0.557000,  0.835100
  0.559000,  0.876400
  0.561000,  0.914800
  0.563000,  0.950100
  0.565000,  0.982500
  0.567000,  1.012200
  0.569000,  1.039400
  0.571000,  1.063900
  0.573000,  1.085800
  0.575000,  1.105100
  0.577000,  1.122200
  0.579000,  1.137100
  0.581000,  1.149800
  0.583000,  1.160500
  0.585000,  1.169300
  0.587000,  1.176100
  0.589000,  1.181000
  0.591000,  1.184500
  0.593000,  1.186300
  0.595000,  1.186700
  0.597000,  1.185800
  0.599000,  1.183400
  0.601000,  1.179600
  0.603000,  1.174900
  0.605000,  1.169200
  0.607000,  1.162600
  0.609000,  1.155300
  0.611000,  1.146900
  0.613000,  1.137400
  0.615000,  1.127000
  0.617000,  1.115800
  0.619000,  1.103900
  0.621000,  1.091600
  0.623000,  1.078600
  0.625000,  1.065000
  0.627000,  1.050900
  0.629000,  1.036100
  0.631000,  1.020400
  0.633000,  1.004200
  0.635000,  0.987200
  0.637000,  0.969400
  0.639000,  0.951200
  0.641000,  0.932200
  0.643000,  0.912600
  0.645000,  0.892000
  0.647000,  0.870700
  0.649000,  0.848700
  0.651000,  0.825900
  0.653000,  0.802200
  0.655000,  0.777700
  0.657000,  0.752800
  0.659000,  0.727000
  0.661000,  0.700100
  0.663000,  0.672500
  0.665000,  0.644400
  0.667000,  0.615400
  0.669000,  0.585600
  0.671000,  0.555000
  0.673000,  0.523800
  0.675000,  0.491900
  0.677000,  0.459300
  0.679000,  0.426300
  0.681000,  0.392800
  0.683000,  0.358600
  0.685000,  0.323600
  0.687000,  0.288200
  0.689000,  0.252400
  0.691000,  0.216500
  0.693000,  0.180000
  0.695000,  0.143300
  0.697000,  0.106600
  0.699000,  0.069500
  0.701000,  0.032200
  0.703000, -0.005000
  0.705000, -0.042400
  0.707000, -0.079800
  0.709000, -0.116400
  0.711000, -0.153000
  0.713000, -0.189800
  0.715000, -0.226100
  0.717000, -0.262000
  0.719000, -0.297600
  0.721000, -0.333000
  0.723000, -0.367900
  0.725000, -0.402100
  0.727000, -0.435700
  0.729000, -0.468500
  0.731000, -0.500600
  0.733000, -0.532200
  0.735000, -0.562700
  0.737000, -0.592200
  0.739000, -0.621100
  0.741000, -0.649100
  0.743000, -0.676300
  0.745000, -0.702700
  0.747000, -0.727900
  0.749000, -0.751900
  0.751000, -0.775100
  0.753000, -0.797200
  0.755000, -0.818300
  0.757000, -0.838500
  0.759000, -0.857700
  0.761000, -0.876000
  0.763000, -0.893200
  0.765000, -0.909300
  0.767000, -0.924500
  0.769000, -0.938700
  0.771000, -0.951800
  0.773000, -0.964100
  0.775000, -0.975500
  0.777000, -0.985700
  0.779000, -0.995100
  0.781000, -1.003600
  0.783000, -1.011300
  0.785000, -1.018100
  0.787000, -1.024100
  0.789000, -1.029300
  0.791000, -1.033700
  0.793000, -1.037300
  0.795000, -1.040200
  0.797000, -1.042300
  0.799000, -1.043700
  0.801000, -1.044400
  0.803000, -1.044500
  0.805000, -1.044000
  0.807000, -1.042800
  0.809000, -1.041200
  0.811000, -1.039000
  0.813000, -1.036200
  0.815000, -1.032900
  0.817000, -1.028900
  0.819000, -1.024400
  0.821000, -1.019600
  0.823000, -1.014100
  0.825000, -1.008000
  0.827000, -1.001600
  0.829000, -0.994500
  0.831000, -0.987000
  0.833000, -0.979300
  0.835000, -0.971200
  0.837000, -0.962700
  0.839000, -0.953800
  0.841000, -0.944500
  0.843000, -0.934800
  0.845000, -0.924600
  0.847000, -0.914000
  0.849000, -0.903000
  0.851000, -0.891600
  0.853000, -0.879900
  0.855000, -0.868000
  0.857000, -0.855800
  0.859000, -0.843400
  0.861000, -0.830600
  0.863000, -0.817500
  0.865000, -0.804100
  0.867000, -0.790300
  0.869000, -0.776500
  0.871000, -0.762500
  0.873000, -0.748200
  0.875000, -0.733700
  0.877000, -0.718900
  0.879000, -0.704200
  0.881000, -0.689200
  0.883000, -0.674200
  0.885000, -0.658800
  0.887000, -0.643400
  0.889000, -0.627900
  0.891000, -0.612300
  0.893000, -0.596800
  0.895000, -0.581300
  0.897000, -0.565600
  0.899000, -0.550000
  0.901000, -0.534400
  0.903000, -0.518700
  0.905000, -0.503100
  0.907000, -0.487600
  0.909000, -0.472200
  0.911000, -0.457000
  0.913000, -0.441800
  0.915000, -0.426800
  0.917000, -0.412000
  0.919000, -0.397400
  0.921000, -0.383000
  0.923000, -0.368800
  0.925000, -0.354900
  0.927000, -0.341300
  0.929000, -0.327800
  0.931000, -0.314400
  0.933000, -0.301500
  0.935000, -0.289100
  0.937000, -0.276700
  0.939000, -0.264700
  0.941000, -0.253100
  0.943000, -0.242000
  0.945000, -0.231300
  0.947000, -0.220800
  0.949000, -0.210800
  0.951000, -0.201200
  0.953000, -0.191900
  0.955000, -0.183200
  0.957000, -0.175000
  0.959000, -0.167000
  0.961000, -0.159600
  0.963000, -0.152600
  0.965000, -0.146100
  0.967000, -0.140100
  0.969000, -0.134600
  0.971000, -0.129400
  0.973000, -0.124800
  0.975000, -0.120600
  0.977000, -0.116700
  0.979000, -0.113300
  0.981000, -0.110500
  0.983000, -0.108000
  0.985000, -0.105800
  0.987000, -0.104200
  0.989000, -0.103000
  0.991000, -0.102300
  0.993000, -0.102100
  0.995000, -0.102300
  0.997000, -0.102900
  0.999000, -0.103700
  1.001000, -0.105100
  1.003000, -0.106900
  1.005000, -0.109000
  1.007000, -0.111500
  1.009000, -0.114300
  1.011000, -0.117400
  1.013000, -0.120800
  1.015000, -0.124600
  1.017000, -0.128600
  1.019000, -0.132800
  1.021000, -0.137100
  1.023000, -0.141700
  1.025000, -0.146500
  1.027000, -0.151500
  1.029000, -0.156500
  1.031000, -0.161700
  1.033000, -0.167200
  1.035000, -0.172700
  1.037000, -0.178300
  1.039000, -0.184000
  1.041000, -0.189700
  1.043000, -0.195400
  1.045000, -0.201000
  1.047000, -0.206600
  1.049000, -0.212400
  1.051000, -0.218000
  1.053000, -0.223600
  1.055000, -0.229000
  1.057000, -0.234500
  1.059000, -0.239800
  1.061000, -0.245000
  1.063000, -0.250000
  1.065000, -0.254900
  1.067000, -0.259500
  1.069000, -0.263900
  1.071000, -0.268000
  1.073000, -0.271900
  1.075000, -0.275700
  1.077000, -0.279300
  1.079000, -0.282600
  1.081000, -0.285800
  1.083000, -0.288800
  1.085000, -0.291400
  1.087000, -0.293700
  1.089000, -0.295800
  1.091000, -0.297600
  1.093000, -0.299100
  1.095000, -0.300200
  1.097000, -0.301200
  1.099000, -0.301800
  1.101000, -0.302100
  1.103000, -0.302200
  1.105000, -0.302000
  1.107000, -0.301400
  1.109000, -0.300500
  1.111000, -0.299300
  1.113000, -0.297900
  1.115000, -0.296200
  1.117000, -0.294300
  1.119000, -0.292100
  1.121000, -0.289500
  1.123000, -0.286700
  1.125000, -0.283600
  1.127000, -0.280300
  1.129000, -0.276800
  1.131000, -0.273100
  1.133000, -0.269200
  1.135000, -0.264800
  1.137000, -0.260300
  1.139000, -0.255700
  1.141000, -0.250900
  1.143000, -0.245900
  1.145000, -0.240700
  1.147000, -0.235400
  1.149000, -0.229900
  1.151000, -0.224300
  1.153000, -0.218500
  1.155000, -0.212700
  1.157000, -0.206700
  1.159000, -0.200600
  1.161000, -0.194500
  1.163000, -0.188400
  1.165000, -0.182300
  1.167000, -0.176100
  1.169000, -0.169800
  1.171000, -0.163600
  1.173000, -0.157300
  1.175000, -0.151000
  1.177000, -0.144800
  1.179000, -0.138800
  1.181000, -0.132800
  1.183000, -0.126800
  1.185000, -0.121000
  1.187000, -0.115200
  1.189000, -0.109400
  1.191000, -0.103800
  1.193000, -0.098300
  1.195000, -0.093000
  1.197000, -0.087800
  1.199000, -0.082800
  1.201000, -0.077900
  1.203000, -0.073200
  1.205000, -0.068700
  1.207000, -0.064400
  1.209000, -0.060100
  1.211000, -0.056100
  1.213000, -0.052200
  1.215000, -0.048400
  1.217000, -0.044800
  1.219000, -0.041400
  1.221000, -0.038100
  1.223000, -0.035100
  1.225000, -0.032200
  1.227000, -0.029500
  1.229000, -0.027000
  1.231000, -0.024600
  1.233000, -0.022300
  1.235000, -0.020200
  1.237000, -0.018300
  1.239000, -0.016300
  1.241000, -0.014400
  1.243000, -0.012600
  1.245000, -0.010900
  1.247000, -0.009300
  1.249000, -0.007900
  1.251000, -0.006400
  1.253000, -0.005000
  1.255000, -0.003700
  1.257000, -0.002500
  1.259000, -0.001400
  1.261000, -0.000500
  1.263000,  0.000500
  1.265000,  0.001400
  1.267000,  0.002300
  1.269000,  0.003000
  1.271000,  0.003700
  1.273000,  0.004200
  1.275000,  0.004900
  1.277000,  0.005500
  1.279000,  0.005900
  1.281000,  0.006300
  1.283000,  0.006700
  1.285000,  0.007000
  1.287000,  0.007300
  1.289000,  0.007400
  1.291000,  0.007500
  1.293000,  0.007500
  1.295000,  0.007500
  1.297000,  0.007400
  1.299000,  0.007100
  1.301000,  0.006800
  1.303000,  0.006700
  1.305000,  0.006400
  1.307000,  0.006100
  1.309000,  0.005700
  1.311000,  0.005200
  1.313000,  0.004900
  1.315000,  0.004600
  1.317000,  0.004200
  1.319000,  0.003800
  1.321000,  0.003500
  1.323000,  0.003000
  1.325000,  0.002600
  1.327000,  0.002200
  1.329000,  0.002000
  1.331000,  0.001600
  1.333000,  0.001300
  1.335000,  0.001200
  1.337000,  0.001200
  1.339000,  0.001400
  1.341000,  0.001600
  1.343000,  0.002000
  1.345000,  0.002400
  1.347000,  0.003000
  1.349000,  0.003700
  1.351000,  0.004500
  1.353000,  0.005600
  1.355000,  0.007000
  1.357000,  0.008600
  1.359000,  0.010200
  1.361000,  0.012000
  1.363000,  0.013900
  1.365000,  0.016100
  1.367000,  0.018200
  1.369000,  0.020500
  1.371000,  0.023000
  1.373000,  0.025800
  1.375000,  0.028900
  1.377000,  0.032200
  1.379000,  0.035400
  1.381000,  0.038600
  1.383000,  0.042000
  1.385000,  0.045800
  1.387000,  0.049600
  1.389000,  0.053400
  1.391000,  0.057200
  1.393000,  0.060900
  1.395000,  0.064400
  1.397000,  0.067400
  1.399000,  0.070000
