# z (nm)   (kJ/mol)
  0.401000, 16.750300
  0.403000, 16.281300
  0.405000, 15.796700
  0.407000, 15.270400
  0.409000, 14.774400
  0.411000, 14.293400
  0.413000, 13.816300
  0.415000, 13.328000
  0.417000, 12.824800
  0.419000, 12.328000
  0.421000, 11.837500
  0.423000, 11.342600
  0.425000, 10.851400
  0.427000, 10.370700
  0.429000,  9.892800
  0.431000,  9.416200
  0.433000,  8.941300
  0.435000,  8.476000
  0.437000,  8.019400
  0.439000,  7.565100
  0.441000,  7.115800
  0.443000,  6.681100
  0.445000,  6.256000
  0.447000,  5.834800
  0.449000,  5.425800
  0.451000,  5.028100
  0.453000,  4.638200
  0.455000,  4.256700
  0.457000,  3.885500
  0.459000,  3.522000
  0.461000,  3.169100
  0.463000,  2.831200
  0.465000,  2.502300
  0.467000,  2.183000
  0.469000,  1.872200
  0.471000,  1.573400
  0.473000,  1.287900
  0.475000,  1.012600
  0.477000,  0.751000
  0.479000,  0.504000
  0.481000,  0.273800
  0.483000,  0.056400
  0.485000, -0.150500
  0.487000, -0.344400
  0.489000, -0.524300
  0.491000, -0.690800
  0.493000, -0.841800
  0.495000, -0.977800
  0.497000, -1.100900
  0.499000, -1.209800
  0.501000, -1.305200
  0.503000, -1.388100
  0.505000, -1.457800
  0.507000, -1.514000
  0.509000, -1.557900
  0.511000, -1.589200
  0.513000, -1.607900
  0.515000, -1.614300
  0.517000, -1.609300
  0.519000, -1.593600
  0.521000, -1.566300
  0.523000, -1.527900
  0.525000, -1.479600
  0.527000, -1.421600
  0.529000, -1.354500
  0.531000, -1.279500
  0.533000, -1.195900
  0.535000, -1.106100
  0.537000, -1.011100
  0.539000, -0.907900
  0.541000, -0.797600
  0.543000, -0.683700
  0.545000, -0.565200
  0.547000, -0.442400
  0.549000, -0.316100
  0.551000, -0.186700
  0.553000, -0.056300
  0.555000,  0.075300
  0.557000,  0.206800
  0.559000,  0.337600
  0.561000,  0.468200
  0.563000,  0.598100
  0.565000,  0.726100
  0.567000,  0.851800
  0.569000,  0.974700
  0.571000,  1.094200
  0.573000,  1.210300
  0.575000,  1.322500
  0.577000,  1.430600
  0.579000,  1.534400
  0.581000,  1.633100
  0.583000,  1.726700
  0.585000,  1.814600
  0.587000,  1.897400
  0.589000,  1.974800
  0.591000,  2.046800
  0.593000,  2.113500
  0.595000,  2.174400
  0.597000,  2.229500
  0.599000,  2.278900
  0.601000,  2.322600
  0.603000,  2.360500
  0.605000,  2.392800
  0.607000,  2.420100
  0.609000,  2.442000
  0.611000,  2.458200
  0.613000,  2.470700
  0.615000,  2.479100
  0.617000,  2.482300
  0.619000,  2.481600
  0.621000,  2.476800
  0.623000,  2.467100
  0.625000,  2.452600
  0.627000,  2.434100
  0.629000,  2.412600
  0.631000,  2.388900
  0.633000,  2.361300
  0.635000,  2.329600
  0.637000,  2.296100
  0.639000,  2.261100
  0.641000,  2.222900
  0.643000,  2.181600
  0.645000,  2.139100
  0.647000,  2.094600
  0.649000,  2.047500
  0.651000,  1.998900
  0.653000,  1.948800
  0.655000,  1.897300
  0.657000,  1.845200
  0.659000,  1.791800
  0.661000,  1.737200
  0.663000,  1.681800
  0.665000,  1.626000
  0.667000,  1.569700
  0.669000,  1.512500
  0.671000,  1.454500
  0.673000,  1.395900
  0.675000,  1.336800
  0.677000,  1.277300
  0.679000,  1.217900
  0.681000,  1.158100
  0.683000,  1.097700
  0.685000,  1.037200
  0.687000,  0.976400
  0.689000,  0.915900
  0.691000,  0.855500
  0.693000,  0.795300
  0.695000,  0.735000
  0.697000,  0.675000
  0.699000,  0.615400
  0.701000,  0.555900
  0.703000,  0.496900
  0.705000,  0.438300
  0.707000,  0.380200
  0.709000,  0.322500
  0.711000,  0.265500
  0.713000,  0.209100
  0.715000,  0.153500
  0.717000,  0.098500
  0.719000,  0.044300
  0.721000, -0.009200
  0.723000, -0.061600
  0.725000, -0.113100
  0.727000, -0.163500
  0.729000, -0.212800
  0.731000, -0.261100
  0.733000, -0.308000
  0.735000, -0.353700
  0.737000, -0.398300
  0.739000, -0.441800
  0.741000, -0.483900
  0.743000, -0.524400
  0.745000, -0.563500
  0.747000, -0.601300
  0.749000, -0.637500
  0.751000, -0.672300
  0.753000, -0.705400
  0.755000, -0.737000
  0.757000, -0.767200
  0.759000, -0.795700
  0.761000, -0.822600
  0.763000, -0.847700
  0.765000, -0.871200
  0.767000, -0.893100
  0.769000, -0.913500
  0.771000, -0.932200
  0.773000, -0.949200
  0.775000, -0.964900
  0.777000, -0.978900
  0.779000, -0.991300
  0.781000, -1.002200
  0.783000, -1.011600
  0.785000, -1.019600
  0.787000, -1.026000
  0.789000, -1.030900
  0.791000, -1.034500
  0.793000, -1.037000
  0.795000, -1.038200
  0.797000, -1.038200
  0.799000, -1.036900
  0.801000, -1.034400
  0.803000, -1.030700
  0.805000, -1.025900
  0.807000, -1.020100
  0.809000, -1.013300
  0.811000, -1.005700
  0.813000, -0.997000
  0.815000, -0.987500
  0.817000, -0.977300
  0.819000, -0.966200
  0.821000, -0.954400
  0.823000, -0.941900
  0.825000, -0.928700
  0.827000, -0.915100
  0.829000, -0.900800
  0.831000, -0.885800
  0.833000, -0.870500
  0.835000, -0.854500
  0.837000, -0.837900
  0.839000, -0.821000
  0.841000, -0.803800
  0.843000, -0.786200
  0.845000, -0.768300
  0.847000, -0.750200
  0.849000, -0.731800
  0.851000, -0.713300
  0.853000, -0.694500
  0.855000, -0.675400
  0.857000, -0.656300
  0.859000, -0.636800
  0.861000, -0.617200
  0.863000, -0.597500
  0.865000, -0.577700
  0.867000, -0.557600
  0.869000, -0.537400
  0.871000, -0.517200
  0.873000, -0.496900
  0.875000, -0.476400
  0.877000, -0.456000
  0.879000, -0.435700
  0.881000, -0.415400
  0.883000, -0.395000
  0.885000, -0.374600
  0.887000, -0.354100
  0.889000, -0.333800
  0.891000, -0.313500
  0.893000, -0.293300
  0.895000, -0.273200
  0.897000, -0.253100
  0.899000, -0.233300
  0.901000, -0.213500
  0.903000, -0.193900
  0.905000, -0.174500
  0.907000, -0.155200
  0.909000, -0.136200
  0.911000, -0.117500
  0.913000, -0.099000
  0.915000, -0.081000
  0.917000, -0.063200
  0.919000, -0.045700
  0.921000, -0.028500
  0.923000, -0.012000
  0.925000,  0.004100
  0.927000,  0.020000
  0.929000,  0.035400
  0.931000,  0.050400
  0.933000,  0.064900
  0.935000,  0.078700
  0.937000,  0.091900
  0.939000,  0.104600
  0.941000,  0.116900
  0.943000,  0.128400
  0.945000,  0.139300
  0.947000,  0.149600
  0.949000,  0.159300
  0.951000,  0.168400
  0.953000,  0.177000
  0.955000,  0.184900
  0.957000,  0.192100
  0.959000,  0.198400
  0.961000,  0.204100
  0.963000,  0.209100
  0.965000,  0.213400
  0.967000,  0.217000
  0.969000,  0.220100
  0.971000,  0.222500
  0.973000,  0.224100
  0.975000,  0.225000
  0.977000,  0.225400
  0.979000,  0.225100
  0.981000,  0.224200
  0.983000,  0.222700
  0.985000,  0.220500
  0.987000,  0.217700
  0.989000,  0.214400
  0.991000,  0.210600
  0.993000,  0.206200
  0.995000,  0.201400
  0.997000,  0.196100
  0.999000,  0.190400
  1.001000,  0.184300
  1.003000,  0.177900
  1.005000,  0.171000
  1.007000,  0.163800
  1.009000,  0.156100
  1.011000,  0.148200
  1.013000,  0.140100
  1.015000,  0.131600
  1.017000,  0.122900
  1.019000,  0.114000
  1.021000,  0.105000
  1.023000,  0.095900
  1.025000,  0.086500
  1.027000,  0.077000
  1.029000,  0.067500
  1.031000,  0.057900
  1.033000,  0.048200
  1.035000,  0.038600
  1.037000,  0.028900
  1.039000,  0.019300
  1.041000,  0.009800
  1.043000,  0.000300
  1.045000, -0.009200
  1.047000, -0.018500
  1.049000, -0.027600
  1.051000, -0.036800
  1.053000, -0.045900
  1.055000, -0.054800
  1.057000, -0.063600
  1.059000, -0.072200
  1.061000, -0.080600
  1.063000, -0.088700
  1.065000, -0.096800
  1.067000, -0.104600
  1.069000, -0.112300
  1.071000, -0.119900
  1.073000, -0.127200
  1.075000, -0.134100
  1.077000, -0.140800
  1.079000, -0.147400
  1.081000, -0.153700
  1.083000, -0.159900
  1.085000, -0.165800
  1.087000, -0.171400
  1.089000, -0.176800
  1.091000, -0.181900
  1.093000, -0.186800
  1.095000, -0.191500
  1.097000, -0.195800
  1.099000, -0.200000
  1.101000, -0.203700
  1.103000, -0.207200
  1.105000, -0.210400
  1.107000, -0.213400
  1.109000, -0.216100
  1.111000, -0.218400
  1.113000, -0.220500
  1.115000, -0.222400
  1.117000, -0.224000
  1.119000, -0.225500
  1.121000, -0.226700
  1.123000, -0.227500
  1.125000, -0.228000
  1.127000, -0.228300
  1.129000, -0.228400
  1.131000, -0.228200
  1.133000, -0.227600
  1.135000, -0.226800
  1.137000, -0.225800
  1.139000, -0.224600
  1.141000, -0.223100
  1.143000, -0.221400
  1.145000, -0.219300
  1.147000, -0.216900
  1.149000, -0.214300
  1.151000, -0.211600
  1.153000, -0.208600
  1.155000, -0.205300
  1.157000, -0.201900
  1.159000, -0.198300
  1.161000, -0.194500
  1.163000, -0.190500
  1.165000, -0.186200
  1.167000, -0.181700
  1.169000, -0.177100
  1.171000, -0.172400
  1.173000, -0.167500
  1.175000, -0.162500
  1.177000, -0.157300
  1.179000, -0.152000
  1.181000, -0.146600
  1.183000, -0.141000
  1.185000, -0.135400
  1.187000, -0.129800
  1.189000, -0.124000
  1.191000, -0.118200
  1.193000, -0.112500
  1.195000, -0.106700
  1.197000, -0.100900
  1.199000, -0.094900
  1.201000, -0.088900
  1.203000, -0.083100
  1.205000, -0.077400
  1.207000, -0.071700
  1.209000, -0.066000
  1.211000, -0.060300
  1.213000, -0.054700
  1.215000, -0.049300
  1.217000, -0.044000
  1.219000, -0.038800
  1.221000, -0.033800
  1.223000, -0.029000
  1.225000, -0.024200
  1.227000, -0.019600
  1.229000, -0.015100
  1.231000, -0.010900
  1.233000, -0.006800
  1.235000, -0.002900
  1.237000,  0.000800
  1.239000,  0.004400
  1.241000,  0.007800
  1.243000,  0.011000
  1.245000,  0.014000
  1.247000,  0.016800
  1.249000,  0.019500
  1.251000,  0.022000
  1.253000,  0.024200
  1.255000,  0.026300
  1.257000,  0.028000
  1.259000,  0.029600
  1.261000,  0.030900
  1.263000,  0.032100
  1.265000,  0.033100
  1.267000,  0.034000
  1.269000,  0.034700
  1.271000,  0.035200
  1.273000,  0.035500
  1.275000,  0.035600
  1.277000,  0.035700
  1.279000,  0.035500
  1.281000,  0.035200
  1.283000,  0.034600
  1.285000,  0.033900
  1.287000,  0.033100
  1.289000,  0.032100
  1.291000,  0.031100
  1.293000,  0.029900
  1.295000,  0.028500
  1.297000,  0.027100
  1.299000,  0.025700
  1.301000,  0.024200
  1.303000,  0.022500
  1.305000,  0.020800
  1.307000,  0.019000
  1.309000,  0.017200
  1.311000,  0.015200
  1.313000,  0.013200
  1.315000,  0.011100
  1.317000,  0.009000
  1.319000,  0.007100
  1.321000,  0.005000
  1.323000,  0.002900
  1.325000,  0.000900
  1.327000, -0.001000
  1.329000, -0.003000
  1.331000, -0.004800
  1.333000, -0.006600
  1.335000, -0.008300
  1.337000, -0.009800
  1.339000, -0.011300
  1.341000, -0.012600
  1.343000, -0.013700
  1.345000, -0.014800
  1.347000, -0.015600
  1.349000, -0.016300
  1.351000, -0.016900
  1.353000, -0.017400
  1.355000, -0.017700
  1.357000, -0.017700
  1.359000, -0.017500
  1.361000, -0.016900
  1.363000, -0.016200
  1.365000, -0.015200
  1.367000, -0.014100
  1.369000, -0.012900
  1.371000, -0.011400
  1.373000, -0.009700
  1.375000, -0.007700
  1.377000, -0.005300
  1.379000, -0.002800
  1.381000, -0.000400
  1.383000,  0.002200
  1.385000,  0.005100
  1.387000,  0.008000
  1.389000,  0.010900
  1.391000,  0.014000
  1.393000,  0.017000
  1.395000,  0.020300
  1.397000,  0.023600
  1.399000,  0.026400
