# z (nm)   (kJ/mol)
  0.403000, 13.651700
  0.407000, 12.638000
  0.409000, 12.191600
  0.411000, 11.798300
  0.413000, 11.373300
  0.415000, 10.925600
  0.417000, 10.490800
  0.419000, 10.052000
  0.421000,  9.601600
  0.423000,  9.151600
  0.425000,  8.711000
  0.427000,  8.283900
  0.429000,  7.866000
  0.431000,  7.453600
  0.433000,  7.049800
  0.435000,  6.655200
  0.437000,  6.268700
  0.439000,  5.890200
  0.441000,  5.521900
  0.443000,  5.166400
  0.445000,  4.825200
  0.447000,  4.493800
  0.449000,  4.170200
  0.451000,  3.857200
  0.453000,  3.556000
  0.455000,  3.268800
  0.457000,  2.994500
  0.459000,  2.727900
  0.461000,  2.472300
  0.463000,  2.228700
  0.465000,  1.991100
  0.467000,  1.762600
  0.469000,  1.545400
  0.471000,  1.335000
  0.473000,  1.134200
  0.475000,  0.944800
  0.477000,  0.765300
  0.479000,  0.594800
  0.481000,  0.433100
  0.483000,  0.281500
  0.485000,  0.140600
  0.487000,  0.007400
  0.489000, -0.118400
  0.491000, -0.234000
  0.493000, -0.341200
  0.495000, -0.440200
  0.497000, -0.529800
  0.499000, -0.611200
  0.501000, -0.684700
  0.503000, -0.750200
  0.505000, -0.808000
  0.507000, -0.858000
  0.509000, -0.900500
  0.511000, -0.935700
  0.513000, -0.963600
  0.515000, -0.984300
  0.517000, -0.997800
  0.519000, -1.003900
  0.521000, -1.004400
  0.523000, -0.999200
  0.525000, -0.986800
  0.527000, -0.968200
  0.529000, -0.944000
  0.531000, -0.914100
  0.533000, -0.879000
  0.535000, -0.838600
  0.537000, -0.792300
  0.539000, -0.742500
  0.541000, -0.689200
  0.543000, -0.632300
  0.545000, -0.572400
  0.547000, -0.509200
  0.549000, -0.442900
  0.551000, -0.372300
  0.553000, -0.298400
  0.555000, -0.222900
  0.557000, -0.144700
  0.559000, -0.064400
  0.561000,  0.016400
  0.563000,  0.098400
  0.565000,  0.181200
  0.567000,  0.264200
  0.569000,  0.348100
  0.571000,  0.432400
  0.573000,  0.517300
  0.575000,  0.602000
  0.577000,  0.685800
  0.579000,  0.768500
  0.581000,  0.849600
  0.583000,  0.929300
  0.585000,  1.007900
  0.587000,  1.084700
  0.589000,  1.158800
  0.591000,  1.230800
  0.593000,  1.300100
  0.595000,  1.367000
  0.597000,  1.431200
  0.599000,  1.492500
  0.601000,  1.551400
  0.603000,  1.606700
  0.605000,  1.658300
  0.607000,  1.706900
  0.609000,  1.752200
  0.611000,  1.793200
  0.613000,  1.830200
  0.615000,  1.863600
  0.617000,  1.893100
  0.619000,  1.918700
  0.621000,  1.940400
  0.623000,  1.958400
  0.625000,  1.972100
  0.627000,  1.981700
  0.629000,  1.987300
  0.631000,  1.989000
  0.633000,  1.987200
  0.635000,  1.981600
  0.637000,  1.971900
  0.639000,  1.958100
  0.641000,  1.940900
  0.643000,  1.920300
  0.645000,  1.896200
  0.647000,  1.868500
  0.649000,  1.837600
  0.651000,  1.803700
  0.653000,  1.766500
  0.655000,  1.726500
  0.657000,  1.683900
  0.659000,  1.638600
  0.661000,  1.590900
  0.663000,  1.541000
  0.665000,  1.489300
  0.667000,  1.435100
  0.669000,  1.377900
  0.671000,  1.319200
  0.673000,  1.259400
  0.675000,  1.198000
  0.677000,  1.135500
  0.679000,  1.072000
  0.681000,  1.007500
  0.683000,  0.942000
  0.685000,  0.875700
  0.687000,  0.808500
  0.689000,  0.740700
  0.691000,  0.672200
  0.693000,  0.603200
  0.695000,  0.534000
  0.697000,  0.465000
  0.699000,  0.396400
  0.701000,  0.328500
  0.703000,  0.261000
  0.705000,  0.193800
  0.707000,  0.127400
  0.709000,  0.061600
  0.711000, -0.003200
  0.713000, -0.066900
  0.715000, -0.129800
  0.717000, -0.191800
  0.719000, -0.252400
  0.721000, -0.311600
  0.723000, -0.369600
  0.725000, -0.426400
  0.727000, -0.481700
  0.729000, -0.535800
  0.731000, -0.588200
  0.733000, -0.638800
  0.735000, -0.687800
  0.737000, -0.735100
  0.739000, -0.780700
  0.741000, -0.824600
  0.743000, -0.866700
  0.745000, -0.906800
  0.747000, -0.945000
  0.749000, -0.981400
  0.751000, -1.016200
  0.753000, -1.049200
  0.755000, -1.080300
  0.757000, -1.109400
  0.759000, -1.136700
  0.761000, -1.162200
  0.763000, -1.185900
  0.765000, -1.207800
  0.767000, -1.228000
  0.769000, -1.246500
  0.771000, -1.263400
  0.773000, -1.278600
  0.775000, -1.292300
  0.777000, -1.304300
  0.779000, -1.314400
  0.781000, -1.323100
  0.783000, -1.330600
  0.785000, -1.336600
  0.787000, -1.341400
  0.789000, -1.344700
  0.791000, -1.346600
  0.793000, -1.347300
  0.795000, -1.346900
  0.797000, -1.345200
  0.799000, -1.342400
  0.801000, -1.338600
  0.803000, -1.333800
  0.805000, -1.328100
  0.807000, -1.321100
  0.809000, -1.313400
  0.811000, -1.305000
  0.813000, -1.295800
  0.815000, -1.285900
  0.817000, -1.275200
  0.819000, -1.263600
  0.821000, -1.251300
  0.823000, -1.238600
  0.825000, -1.225200
  0.827000, -1.211300
  0.829000, -1.197200
  0.831000, -1.182400
  0.833000, -1.167000
  0.835000, -1.151300
  0.837000, -1.135400
  0.839000, -1.119100
  0.841000, -1.102200
  0.843000, -1.085100
  0.845000, -1.067800
  0.847000, -1.050300
  0.849000, -1.032300
  0.851000, -1.014100
  0.853000, -0.995600
  0.855000, -0.976900
  0.857000, -0.958100
  0.859000, -0.939100
  0.861000, -0.920000
  0.863000, -0.900700
  0.865000, -0.881500
  0.867000, -0.862200
  0.869000, -0.842800
  0.871000, -0.823200
  0.873000, -0.803500
  0.875000, -0.783700
  0.877000, -0.763900
  0.879000, -0.744100
  0.881000, -0.724300
  0.883000, -0.704500
  0.885000, -0.684700
  0.887000, -0.664900
  0.889000, -0.645100
  0.891000, -0.625300
  0.893000, -0.605500
  0.895000, -0.585700
  0.897000, -0.566100
  0.899000, -0.546700
  0.901000, -0.527500
  0.903000, -0.508200
  0.905000, -0.489000
  0.907000, -0.470100
  0.909000, -0.451300
  0.911000, -0.432700
  0.913000, -0.414200
  0.915000, -0.396000
  0.917000, -0.378000
  0.919000, -0.360300
  0.921000, -0.342800
  0.923000, -0.325600
  0.925000, -0.308700
  0.927000, -0.292100
  0.929000, -0.275800
  0.931000, -0.259900
  0.933000, -0.244400
  0.935000, -0.229300
  0.937000, -0.214600
  0.939000, -0.200200
  0.941000, -0.186400
  0.943000, -0.173100
  0.945000, -0.160300
  0.947000, -0.148000
  0.949000, -0.136100
  0.951000, -0.124800
  0.953000, -0.114000
  0.955000, -0.103600
  0.957000, -0.093800
  0.959000, -0.084500
  0.961000, -0.075900
  0.963000, -0.067800
  0.965000, -0.060200
  0.967000, -0.053200
  0.969000, -0.046900
  0.971000, -0.041200
  0.973000, -0.036000
  0.975000, -0.031300
  0.977000, -0.027300
  0.979000, -0.023900
  0.981000, -0.021000
  0.983000, -0.018600
  0.985000, -0.016900
  0.987000, -0.015600
  0.989000, -0.014900
  0.991000, -0.014700
  0.993000, -0.015000
  0.995000, -0.015900
  0.997000, -0.017300
  0.999000, -0.019000
  1.001000, -0.021200
  1.003000, -0.023700
  1.005000, -0.026700
  1.007000, -0.030100
  1.009000, -0.033800
  1.011000, -0.038000
  1.013000, -0.042500
  1.015000, -0.047300
  1.017000, -0.052400
  1.019000, -0.057700
  1.021000, -0.063200
  1.023000, -0.068900
  1.025000, -0.074800
  1.027000, -0.080800
  1.029000, -0.087000
  1.031000, -0.093400
  1.033000, -0.099800
  1.035000, -0.106300
  1.037000, -0.112900
  1.039000, -0.119400
  1.041000, -0.125800
  1.043000, -0.132200
  1.045000, -0.138500
  1.047000, -0.144800
  1.049000, -0.151000
  1.051000, -0.156900
  1.053000, -0.162600
  1.055000, -0.168300
  1.057000, -0.173800
  1.059000, -0.179200
  1.061000, -0.184300
  1.063000, -0.189100
  1.065000, -0.193800
  1.067000, -0.198300
  1.069000, -0.202600
  1.071000, -0.206600
  1.073000, -0.210500
  1.075000, -0.214100
  1.077000, -0.217400
  1.079000, -0.220500
  1.081000, -0.223300
  1.083000, -0.225800
  1.085000, -0.228000
  1.087000, -0.230000
  1.089000, -0.231700
  1.091000, -0.233300
  1.093000, -0.234500
  1.095000, -0.235500
  1.097000, -0.236200
  1.099000, -0.236700
  1.101000, -0.237000
  1.103000, -0.237100
  1.105000, -0.237100
  1.107000, -0.236800
  1.109000, -0.236500
  1.111000, -0.236000
  1.113000, -0.235300
  1.115000, -0.234300
  1.117000, -0.233300
  1.119000, -0.232000
  1.121000, -0.230500
  1.123000, -0.228900
  1.125000, -0.227100
  1.127000, -0.225400
  1.129000, -0.223500
  1.131000, -0.221300
  1.133000, -0.219100
  1.135000, -0.216700
  1.137000, -0.214200
  1.139000, -0.211700
  1.141000, -0.209200
  1.143000, -0.206500
  1.145000, -0.203700
  1.147000, -0.200800
  1.149000, -0.197900
  1.151000, -0.195000
  1.153000, -0.192000
  1.155000, -0.188900
  1.157000, -0.185900
  1.159000, -0.182800
  1.161000, -0.179700
  1.163000, -0.176500
  1.165000, -0.173300
  1.167000, -0.170000
  1.169000, -0.166600
  1.171000, -0.163200
  1.173000, -0.159900
  1.175000, -0.156600
  1.177000, -0.153200
  1.179000, -0.149800
  1.181000, -0.146500
  1.183000, -0.143200
  1.185000, -0.139800
  1.187000, -0.136400
  1.189000, -0.133100
  1.191000, -0.129700
  1.193000, -0.126300
  1.195000, -0.122900
  1.197000, -0.119500
  1.199000, -0.116000
  1.201000, -0.112500
  1.203000, -0.109100
  1.205000, -0.105900
  1.207000, -0.102600
  1.209000, -0.099300
  1.211000, -0.096000
  1.213000, -0.092700
  1.215000, -0.089300
  1.217000, -0.085800
  1.219000, -0.082200
  1.221000, -0.078600
  1.223000, -0.075100
  1.225000, -0.071600
  1.227000, -0.068100
  1.229000, -0.064700
  1.231000, -0.061200
  1.233000, -0.057800
  1.235000, -0.054500
  1.237000, -0.051000
  1.239000, -0.047400
  1.241000, -0.043900
  1.243000, -0.040500
  1.245000, -0.037000
  1.247000, -0.033500
  1.249000, -0.030000
  1.251000, -0.026700
  1.253000, -0.023500
  1.255000, -0.020300
  1.257000, -0.017100
  1.259000, -0.014000
  1.261000, -0.010900
  1.263000, -0.007800
  1.265000, -0.004900
  1.267000, -0.002200
  1.269000,  0.000600
  1.271000,  0.003100
  1.273000,  0.005600
  1.275000,  0.008000
  1.277000,  0.010300
  1.279000,  0.012300
  1.281000,  0.014200
  1.283000,  0.015900
  1.285000,  0.017500
  1.287000,  0.019000
  1.289000,  0.020300
  1.291000,  0.021500
  1.293000,  0.022700
  1.295000,  0.023600
  1.297000,  0.024400
  1.299000,  0.025000
  1.301000,  0.025500
  1.303000,  0.025800
  1.305000,  0.025800
  1.307000,  0.025800
  1.309000,  0.025700
  1.311000,  0.025500
  1.313000,  0.025100
  1.315000,  0.024700
  1.317000,  0.024300
  1.319000,  0.023700
  1.321000,  0.023100
  1.323000,  0.022400
  1.325000,  0.021700
  1.327000,  0.021000
  1.329000,  0.020200
  1.331000,  0.019600
  1.333000,  0.019000
  1.335000,  0.018500
  1.337000,  0.018100
  1.339000,  0.017900
  1.341000,  0.017800
  1.343000,  0.017900
  1.345000,  0.018000
  1.347000,  0.018300
  1.349000,  0.018800
  1.351000,  0.019500
  1.353000,  0.020500
  1.355000,  0.021500
  1.357000,  0.022700
  1.359000,  0.024200
  1.361000,  0.025900
  1.363000,  0.027900
  1.365000,  0.030100
  1.367000,  0.032500
  1.369000,  0.035200
  1.371000,  0.038100
  1.373000,  0.041200
  1.375000,  0.044600
  1.377000,  0.048200
  1.379000,  0.052100
  1.381000,  0.056200
  1.383000,  0.060300
  1.385000,  0.064300
  1.387000,  0.068400
  1.389000,  0.072800
  1.391000,  0.077300
  1.393000,  0.081600
  1.395000,  0.085900
  1.397000,  0.090000
  1.399000,  0.094000
