# z (nm)   (kJ/mol)
  0.399000, 14.090300
  0.401000, 13.617500
  0.403000, 13.137200
  0.405000, 12.663900
  0.407000, 12.156100
  0.409000, 11.631700
  0.411000, 11.106700
  0.413000, 10.598100
  0.415000, 10.088500
  0.417000,  9.563200
  0.419000,  9.030000
  0.421000,  8.487300
  0.423000,  7.945300
  0.425000,  7.406100
  0.427000,  6.868400
  0.429000,  6.334600
  0.431000,  5.803300
  0.433000,  5.270100
  0.435000,  4.745200
  0.437000,  4.226800
  0.439000,  3.708900
  0.441000,  3.199400
  0.443000,  2.697300
  0.445000,  2.202300
  0.447000,  1.716400
  0.449000,  1.235200
  0.451000,  0.763200
  0.453000,  0.307400
  0.455000, -0.134000
  0.457000, -0.573000
  0.459000, -1.005600
  0.461000, -1.425500
  0.463000, -1.833700
  0.465000, -2.229100
  0.467000, -2.613700
  0.469000, -2.982300
  0.471000, -3.339000
  0.473000, -3.685400
  0.475000, -4.016100
  0.477000, -4.334500
  0.479000, -4.640100
  0.481000, -4.930100
  0.483000, -5.205100
  0.485000, -5.464800
  0.487000, -5.710900
  0.489000, -5.943100
  0.491000, -6.160800
  0.493000, -6.365600
  0.495000, -6.554600
  0.497000, -6.727300
  0.499000, -6.886100
  0.501000, -7.029300
  0.503000, -7.158100
  0.505000, -7.271500
  0.507000, -7.368600
  0.509000, -7.452400
  0.511000, -7.521300
  0.513000, -7.574400
  0.515000, -7.613100
  0.517000, -7.638100
  0.519000, -7.648600
  0.521000, -7.644700
  0.523000, -7.627500
  0.525000, -7.596100
  0.527000, -7.549500
  0.529000, -7.490400
  0.531000, -7.420100
  0.533000, -7.338600
  0.535000, -7.246500
  0.537000, -7.141500
  0.539000, -7.025800
  0.541000, -6.902500
  0.543000, -6.770800
  0.545000, -6.630400
  0.547000, -6.480800
  0.549000, -6.322300
  0.551000, -6.158200
  0.553000, -5.988800
  0.555000, -5.814000
  0.557000, -5.633900
  0.559000, -5.449800
  0.561000, -5.262200
  0.563000, -5.071000
  0.565000, -4.877000
  0.567000, -4.681900
  0.569000, -4.486700
  0.571000, -4.291300
  0.573000, -4.096400
  0.575000, -3.902200
  0.577000, -3.709100
  0.579000, -3.517800
  0.581000, -3.328900
  0.583000, -3.143500
  0.585000, -2.961800
  0.587000, -2.783100
  0.589000, -2.609200
  0.591000, -2.440900
  0.593000, -2.276800
  0.595000, -2.117500
  0.597000, -1.963700
  0.599000, -1.815600
  0.601000, -1.673500
  0.603000, -1.537300
  0.605000, -1.407800
  0.607000, -1.284400
  0.609000, -1.167400
  0.611000, -1.057200
  0.613000, -0.954000
  0.615000, -0.857600
  0.617000, -0.767900
  0.619000, -0.685400
  0.621000, -0.609100
  0.623000, -0.539600
  0.625000, -0.476900
  0.627000, -0.420500
  0.629000, -0.371800
  0.631000, -0.330200
  0.633000, -0.294700
  0.635000, -0.264600
  0.637000, -0.240800
  0.639000, -0.223300
  0.641000, -0.210600
  0.643000, -0.203600
  0.645000, -0.202400
  0.647000, -0.206400
  0.649000, -0.216100
  0.651000, -0.231000
  0.653000, -0.250000
  0.655000, -0.272100
  0.657000, -0.298400
  0.659000, -0.329500
  0.661000, -0.364000
  0.663000, -0.402200
  0.665000, -0.443800
  0.667000, -0.488500
  0.669000, -0.535600
  0.671000, -0.586000
  0.673000, -0.639600
  0.675000, -0.694900
  0.677000, -0.752400
  0.679000, -0.812000
  0.681000, -0.873100
  0.683000, -0.935800
  0.685000, -1.000000
  0.687000, -1.065500
  0.689000, -1.131700
  0.691000, -1.197900
  0.693000, -1.264300
  0.695000, -1.331100
  0.697000, -1.398800
  0.699000, -1.466500
  0.701000, -1.533300
  0.703000, -1.599700
  0.705000, -1.665200
  0.707000, -1.729900
  0.709000, -1.793600
  0.711000, -1.856000
  0.713000, -1.917600
  0.715000, -1.977700
  0.717000, -2.035900
  0.719000, -2.092300
  0.721000, -2.146800
  0.723000, -2.199700
  0.725000, -2.250600
  0.727000, -2.299200
  0.729000, -2.345600
  0.731000, -2.390000
  0.733000, -2.431800
  0.735000, -2.471100
  0.737000, -2.507700
  0.739000, -2.541600
  0.741000, -2.573200
  0.743000, -2.601800
  0.745000, -2.627600
  0.747000, -2.650600
  0.749000, -2.670600
  0.751000, -2.688000
  0.753000, -2.702500
  0.755000, -2.714200
  0.757000, -2.723300
  0.759000, -2.729400
  0.761000, -2.732800
  0.763000, -2.733700
  0.765000, -2.731800
  0.767000, -2.727500
  0.769000, -2.720700
  0.771000, -2.711400
  0.773000, -2.699400
  0.775000, -2.685400
  0.777000, -2.669200
  0.779000, -2.650900
  0.781000, -2.630600
  0.783000, -2.608200
  0.785000, -2.583900
  0.787000, -2.558100
  0.789000, -2.530700
  0.791000, -2.501500
  0.793000, -2.470600
  0.795000, -2.438500
  0.797000, -2.405300
  0.799000, -2.371100
  0.801000, -2.335700
  0.803000, -2.299700
  0.805000, -2.262700
  0.807000, -2.224900
  0.809000, -2.186600
  0.811000, -2.147900
  0.813000, -2.108800
  0.815000, -2.069500
  0.817000, -2.030100
  0.819000, -1.990600
  0.821000, -1.951100
  0.823000, -1.911600
  0.825000, -1.872100
  0.827000, -1.833000
  0.829000, -1.794300
  0.831000, -1.755900
  0.833000, -1.717900
  0.835000, -1.680600
  0.837000, -1.643900
  0.839000, -1.608000
  0.841000, -1.572500
  0.843000, -1.537700
  0.845000, -1.503700
  0.847000, -1.470500
  0.849000, -1.438100
  0.851000, -1.406600
  0.853000, -1.375800
  0.855000, -1.345700
  0.857000, -1.316600
  0.859000, -1.288500
  0.861000, -1.261100
  0.863000, -1.234700
  0.865000, -1.209300
  0.867000, -1.184700
  0.869000, -1.161000
  0.871000, -1.138000
  0.873000, -1.115800
  0.875000, -1.094500
  0.877000, -1.074100
  0.879000, -1.054400
  0.881000, -1.035500
  0.883000, -1.017400
  0.885000, -1.000000
  0.887000, -0.983400
  0.889000, -0.967600
  0.891000, -0.952300
  0.893000, -0.937400
  0.895000, -0.923100
  0.897000, -0.909500
  0.899000, -0.896500
  0.901000, -0.884100
  0.903000, -0.872200
  0.905000, -0.860800
  0.907000, -0.849800
  0.909000, -0.839300
  0.911000, -0.829300
  0.913000, -0.819600
  0.915000, -0.810200
  0.917000, -0.801300
  0.919000, -0.792800
  0.921000, -0.784600
  0.923000, -0.776600
  0.925000, -0.769100
  0.927000, -0.761900
  0.929000, -0.754900
  0.931000, -0.748100
  0.933000, -0.741600
  0.935000, -0.735400
  0.937000, -0.729500
  0.939000, -0.723900
  0.941000, -0.718500
  0.943000, -0.713200
  0.945000, -0.708100
  0.947000, -0.703300
  0.949000, -0.698800
  0.951000, -0.694300
  0.953000, -0.690000
  0.955000, -0.685900
  0.957000, -0.682200
  0.959000, -0.678800
  0.961000, -0.675300
  0.963000, -0.672100
  0.965000, -0.669200
  0.967000, -0.666200
  0.969000, -0.663400
  0.971000, -0.661000
  0.973000, -0.658700
  0.975000, -0.656300
  0.977000, -0.654100
  0.979000, -0.652000
  0.981000, -0.650100
  0.983000, -0.648300
  0.985000, -0.646700
  0.987000, -0.645200
  0.989000, -0.643600
  0.991000, -0.642000
  0.993000, -0.640600
  0.995000, -0.639300
  0.997000, -0.638000
  0.999000, -0.636500
  1.001000, -0.635200
  1.003000, -0.633900
  1.005000, -0.632500
  1.007000, -0.631200
  1.009000, -0.629800
  1.011000, -0.628300
  1.013000, -0.626900
  1.015000, -0.625300
  1.017000, -0.623600
  1.019000, -0.621800
  1.021000, -0.620100
  1.023000, -0.618300
  1.025000, -0.616400
  1.027000, -0.614400
  1.029000, -0.612200
  1.031000, -0.609800
  1.033000, -0.607300
  1.035000, -0.604700
  1.037000, -0.602000
  1.039000, -0.599200
  1.041000, -0.596300
  1.043000, -0.593100
  1.045000, -0.589700
  1.047000, -0.586300
  1.049000, -0.582700
  1.051000, -0.578900
  1.053000, -0.574900
  1.055000, -0.570700
  1.057000, -0.566500
  1.059000, -0.562200
  1.061000, -0.557700
  1.063000, -0.553100
  1.065000, -0.548400
  1.067000, -0.543700
  1.069000, -0.538800
  1.071000, -0.533800
  1.073000, -0.528700
  1.075000, -0.523500
  1.077000, -0.518100
  1.079000, -0.512700
  1.081000, -0.507300
  1.083000, -0.502000
  1.085000, -0.496500
  1.087000, -0.490800
  1.089000, -0.485200
  1.091000, -0.479500
  1.093000, -0.473800
  1.095000, -0.468200
  1.097000, -0.462600
  1.099000, -0.457000
  1.101000, -0.451300
  1.103000, -0.445800
  1.105000, -0.440300
  1.107000, -0.434700
  1.109000, -0.429200
  1.111000, -0.423700
  1.113000, -0.418300
  1.115000, -0.412900
  1.117000, -0.407600
  1.119000, -0.402300
  1.121000, -0.397000
  1.123000, -0.391700
  1.125000, -0.386400
  1.127000, -0.381100
  1.129000, -0.375800
  1.131000, -0.370700
  1.133000, -0.365700
  1.135000, -0.360600
  1.137000, -0.355600
  1.139000, -0.350500
  1.141000, -0.345600
  1.143000, -0.340800
  1.145000, -0.336000
  1.147000, -0.331300
  1.149000, -0.326500
  1.151000, -0.321600
  1.153000, -0.316600
  1.155000, -0.312000
  1.157000, -0.307300
  1.159000, -0.302300
  1.161000, -0.297200
  1.163000, -0.292100
  1.165000, -0.286900
  1.167000, -0.281800
  1.169000, -0.276700
  1.171000, -0.271600
  1.173000, -0.266500
  1.175000, -0.261200
  1.177000, -0.256000
  1.179000, -0.250800
  1.181000, -0.245700
  1.183000, -0.240200
  1.185000, -0.234700
  1.187000, -0.229100
  1.189000, -0.223500
  1.191000, -0.217900
  1.193000, -0.212100
  1.195000, -0.206300
  1.197000, -0.200500
  1.199000, -0.194700
  1.201000, -0.188900
  1.203000, -0.182900
  1.205000, -0.176900
  1.207000, -0.170900
  1.209000, -0.164700
  1.211000, -0.158600
  1.213000, -0.152600
  1.215000, -0.146600
  1.217000, -0.140600
  1.219000, -0.134700
  1.221000, -0.128600
  1.223000, -0.122500
  1.225000, -0.116400
  1.227000, -0.110100
  1.229000, -0.104100
  1.231000, -0.098200
  1.233000, -0.092300
  1.235000, -0.086400
  1.237000, -0.080600
  1.239000, -0.075000
  1.241000, -0.069300
  1.243000, -0.063800
  1.245000, -0.058500
  1.247000, -0.053200
  1.249000, -0.048000
  1.251000, -0.042900
  1.253000, -0.037900
  1.255000, -0.033100
  1.257000, -0.028400
  1.259000, -0.024000
  1.261000, -0.019500
  1.263000, -0.015300
  1.265000, -0.011400
  1.267000, -0.007600
  1.269000, -0.003900
  1.271000, -0.000400
  1.273000,  0.002900
  1.275000,  0.006100
  1.277000,  0.009100
  1.279000,  0.011900
  1.281000,  0.014400
  1.283000,  0.016700
  1.285000,  0.018800
  1.287000,  0.020800
  1.289000,  0.022700
  1.291000,  0.024400
  1.293000,  0.025900
  1.295000,  0.027100
  1.297000,  0.028300
  1.299000,  0.029200
  1.301000,  0.030000
  1.303000,  0.030800
  1.305000,  0.031400
  1.307000,  0.032000
  1.309000,  0.032400
  1.311000,  0.032700
  1.313000,  0.032900
  1.315000,  0.033100
  1.317000,  0.033300
  1.319000,  0.033400
  1.321000,  0.033600
  1.323000,  0.033900
  1.325000,  0.034200
  1.327000,  0.034600
  1.329000,  0.035100
  1.331000,  0.035500
  1.333000,  0.036000
  1.335000,  0.036700
  1.337000,  0.037600
  1.339000,  0.038500
  1.341000,  0.039600
  1.343000,  0.040800
  1.345000,  0.042300
  1.347000,  0.043900
  1.349000,  0.045600
  1.351000,  0.047400
  1.353000,  0.049400
  1.355000,  0.051700
  1.357000,  0.054100
  1.359000,  0.056700
  1.361000,  0.059500
  1.363000,  0.062500
  1.365000,  0.065700
  1.367000,  0.069100
  1.369000,  0.072700
  1.371000,  0.076300
  1.373000,  0.080100
  1.375000,  0.084100
  1.377000,  0.088200
  1.379000,  0.092400
  1.381000,  0.096500
  1.383000,  0.100700
  1.385000,  0.104900
  1.387000,  0.109400
  1.389000,  0.113900
  1.391000,  0.118100
  1.393000,  0.122000
  1.395000,  0.125800
  1.397000,  0.129600
  1.399000,  0.132900
