# z (nm)   (kJ/mol)
  0.431000, 19.563000
  0.433000, 19.208200
  0.435000, 18.828100
  0.437000, 18.470400
  0.439000, 18.116100
  0.441000, 17.719700
  0.443000, 17.323300
  0.445000, 16.923800
  0.447000, 16.528900
  0.449000, 16.145100
  0.451000, 15.765200
  0.453000, 15.373900
  0.455000, 14.985200
  0.457000, 14.595600
  0.459000, 14.209100
  0.461000, 13.832200
  0.463000, 13.459600
  0.465000, 13.092100
  0.467000, 12.722500
  0.469000, 12.358000
  0.471000, 12.006200
  0.473000, 11.662500
  0.475000, 11.324700
  0.477000, 10.998400
  0.479000, 10.686600
  0.481000, 10.383400
  0.483000, 10.087400
  0.485000,  9.799100
  0.487000,  9.520600
  0.489000,  9.254300
  0.491000,  8.995100
  0.493000,  8.744100
  0.495000,  8.505100
  0.497000,  8.275500
  0.499000,  8.052100
  0.501000,  7.835900
  0.503000,  7.632700
  0.505000,  7.443400
  0.507000,  7.261200
  0.509000,  7.086200
  0.511000,  6.920700
  0.513000,  6.764100
  0.515000,  6.614500
  0.517000,  6.471100
  0.519000,  6.336200
  0.521000,  6.210000
  0.523000,  6.091200
  0.525000,  5.982100
  0.527000,  5.879800
  0.529000,  5.782400
  0.531000,  5.693500
  0.533000,  5.611700
  0.535000,  5.535400
  0.537000,  5.465100
  0.539000,  5.400800
  0.541000,  5.341900
  0.543000,  5.287900
  0.545000,  5.238500
  0.547000,  5.193700
  0.549000,  5.153600
  0.551000,  5.118500
  0.553000,  5.088100
  0.555000,  5.061400
  0.557000,  5.037600
  0.559000,  5.017400
  0.561000,  5.001100
  0.563000,  4.988100
  0.565000,  4.978000
  0.567000,  4.970000
  0.569000,  4.963500
  0.571000,  4.958500
  0.573000,  4.954400
  0.575000,  4.951300
  0.577000,  4.949600
  0.579000,  4.949400
  0.581000,  4.949200
  0.583000,  4.949600
  0.585000,  4.950500
  0.587000,  4.952200
  0.589000,  4.953600
  0.591000,  4.954400
  0.593000,  4.955100
  0.595000,  4.953800
  0.597000,  4.951700
  0.599000,  4.948000
  0.601000,  4.942700
  0.603000,  4.937200
  0.605000,  4.930300
  0.607000,  4.921500
  0.609000,  4.911500
  0.611000,  4.900200
  0.613000,  4.886800
  0.615000,  4.871900
  0.617000,  4.855200
  0.619000,  4.836100
  0.621000,  4.815100
  0.623000,  4.792100
  0.625000,  4.767100
  0.627000,  4.740000
  0.629000,  4.710400
  0.631000,  4.678500
  0.633000,  4.644500
  0.635000,  4.608500
  0.637000,  4.570300
  0.639000,  4.529900
  0.641000,  4.487300
  0.643000,  4.442600
  0.645000,  4.395600
  0.647000,  4.346500
  0.649000,  4.294800
  0.651000,  4.240300
  0.653000,  4.183800
  0.655000,  4.125500
  0.657000,  4.064600
  0.659000,  4.002000
  0.661000,  3.937400
  0.663000,  3.870300
  0.665000,  3.800900
  0.667000,  3.729500
  0.669000,  3.656600
  0.671000,  3.581600
  0.673000,  3.504600
  0.675000,  3.425700
  0.677000,  3.344800
  0.679000,  3.262700
  0.681000,  3.178900
  0.683000,  3.093100
  0.685000,  3.006200
  0.687000,  2.918200
  0.689000,  2.828900
  0.691000,  2.738300
  0.693000,  2.646700
  0.695000,  2.553800
  0.697000,  2.459800
  0.699000,  2.365200
  0.701000,  2.269800
  0.703000,  2.174000
  0.705000,  2.078100
  0.707000,  1.982000
  0.709000,  1.885500
  0.711000,  1.788500
  0.713000,  1.692000
  0.715000,  1.595800
  0.717000,  1.499700
  0.719000,  1.404000
  0.721000,  1.309000
  0.723000,  1.214400
  0.725000,  1.120500
  0.727000,  1.028100
  0.729000,  0.937000
  0.731000,  0.846800
  0.733000,  0.757500
  0.735000,  0.669700
  0.737000,  0.583800
  0.739000,  0.499300
  0.741000,  0.416500
  0.743000,  0.335900
  0.745000,  0.257000
  0.747000,  0.179900
  0.749000,  0.105100
  0.751000,  0.032700
  0.753000, -0.037500
  0.755000, -0.105300
  0.757000, -0.170800
  0.759000, -0.234000
  0.761000, -0.294700
  0.763000, -0.353100
  0.765000, -0.409000
  0.767000, -0.462000
  0.769000, -0.512600
  0.771000, -0.560800
  0.773000, -0.606400
  0.775000, -0.649300
  0.777000, -0.689600
  0.779000, -0.727400
  0.781000, -0.762800
  0.783000, -0.795500
  0.785000, -0.825500
  0.787000, -0.853300
  0.789000, -0.879100
  0.791000, -0.902400
  0.793000, -0.923200
  0.795000, -0.941700
  0.797000, -0.958200
  0.799000, -0.972500
  0.801000, -0.985100
  0.803000, -0.995700
  0.805000, -1.004200
  0.807000, -1.010800
  0.809000, -1.015600
  0.811000, -1.018700
  0.813000, -1.020100
  0.815000, -1.019800
  0.817000, -1.017900
  0.819000, -1.014600
  0.821000, -1.009900
  0.823000, -1.003800
  0.825000, -0.996500
  0.827000, -0.988000
  0.829000, -0.978000
  0.831000, -0.967100
  0.833000, -0.955300
  0.835000, -0.942700
  0.837000, -0.929200
  0.839000, -0.914800
  0.841000, -0.899600
  0.843000, -0.883800
  0.845000, -0.867200
  0.847000, -0.850000
  0.849000, -0.831900
  0.851000, -0.813300
  0.853000, -0.794200
  0.855000, -0.774500
  0.857000, -0.754300
  0.859000, -0.733700
  0.861000, -0.712700
  0.863000, -0.691100
  0.865000, -0.669200
  0.867000, -0.646900
  0.869000, -0.624100
  0.871000, -0.601100
  0.873000, -0.578000
  0.875000, -0.554600
  0.877000, -0.530900
  0.879000, -0.506900
  0.881000, -0.482700
  0.883000, -0.458300
  0.885000, -0.433700
  0.887000, -0.409000
  0.889000, -0.384400
  0.891000, -0.359700
  0.893000, -0.334800
  0.895000, -0.309900
  0.897000, -0.284700
  0.899000, -0.259600
  0.901000, -0.234700
  0.903000, -0.209700
  0.905000, -0.184900
  0.907000, -0.160100
  0.909000, -0.135500
  0.911000, -0.110900
  0.913000, -0.086400
  0.915000, -0.062200
  0.917000, -0.038500
  0.919000, -0.015000
  0.921000,  0.008300
  0.923000,  0.031000
  0.925000,  0.053400
  0.927000,  0.075500
  0.929000,  0.097000
  0.931000,  0.117800
  0.933000,  0.138200
  0.935000,  0.158100
  0.937000,  0.177400
  0.939000,  0.195900
  0.941000,  0.213700
  0.943000,  0.231000
  0.945000,  0.247500
  0.947000,  0.263200
  0.949000,  0.278000
  0.951000,  0.292100
  0.953000,  0.305400
  0.955000,  0.317800
  0.957000,  0.329000
  0.959000,  0.339200
  0.961000,  0.348700
  0.963000,  0.357200
  0.965000,  0.364600
  0.967000,  0.371000
  0.969000,  0.376500
  0.971000,  0.380800
  0.973000,  0.384100
  0.975000,  0.386500
  0.977000,  0.387800
  0.979000,  0.388100
  0.981000,  0.387600
  0.983000,  0.386100
  0.985000,  0.383500
  0.987000,  0.380100
  0.989000,  0.375800
  0.991000,  0.370600
  0.993000,  0.364300
  0.995000,  0.357300
  0.997000,  0.349500
  0.999000,  0.341100
  1.001000,  0.331800
  1.003000,  0.321800
  1.005000,  0.311100
  1.007000,  0.299800
  1.009000,  0.288100
  1.011000,  0.275800
  1.013000,  0.262900
  1.015000,  0.249600
  1.017000,  0.236000
  1.019000,  0.222100
  1.021000,  0.207800
  1.023000,  0.193200
  1.025000,  0.178400
  1.027000,  0.163500
  1.029000,  0.148400
  1.031000,  0.133100
  1.033000,  0.117900
  1.035000,  0.102800
  1.037000,  0.087500
  1.039000,  0.072200
  1.041000,  0.057300
  1.043000,  0.042400
  1.045000,  0.027500
  1.047000,  0.012800
  1.049000, -0.001400
  1.051000, -0.015300
  1.053000, -0.029200
  1.055000, -0.042800
  1.057000, -0.056000
  1.059000, -0.068900
  1.061000, -0.081400
  1.063000, -0.093600
  1.065000, -0.105300
  1.067000, -0.116800
  1.069000, -0.127900
  1.071000, -0.138500
  1.073000, -0.148800
  1.075000, -0.158600
  1.077000, -0.167900
  1.079000, -0.176800
  1.081000, -0.185100
  1.083000, -0.193000
  1.085000, -0.200400
  1.087000, -0.207400
  1.089000, -0.213900
  1.091000, -0.220000
  1.093000, -0.225600
  1.095000, -0.230800
  1.097000, -0.235500
  1.099000, -0.239700
  1.101000, -0.243500
  1.103000, -0.246900
  1.105000, -0.249900
  1.107000, -0.252500
  1.109000, -0.254700
  1.111000, -0.256300
  1.113000, -0.257500
  1.115000, -0.258400
  1.117000, -0.258700
  1.119000, -0.258700
  1.121000, -0.258500
  1.123000, -0.257900
  1.125000, -0.256900
  1.127000, -0.255600
  1.129000, -0.253800
  1.131000, -0.251700
  1.133000, -0.249300
  1.135000, -0.246600
  1.137000, -0.243600
  1.139000, -0.240300
  1.141000, -0.236800
  1.143000, -0.233000
  1.145000, -0.228900
  1.147000, -0.224500
  1.149000, -0.219900
  1.151000, -0.215200
  1.153000, -0.210200
  1.155000, -0.204900
  1.157000, -0.199600
  1.159000, -0.194000
  1.161000, -0.188300
  1.163000, -0.182400
  1.165000, -0.176500
  1.167000, -0.170500
  1.169000, -0.164300
  1.171000, -0.158000
  1.173000, -0.151800
  1.175000, -0.145500
  1.177000, -0.139100
  1.179000, -0.132700
  1.181000, -0.126400
  1.183000, -0.120000
  1.185000, -0.113700
  1.187000, -0.107400
  1.189000, -0.101300
  1.191000, -0.095400
  1.193000, -0.089400
  1.195000, -0.083400
  1.197000, -0.077400
  1.199000, -0.071700
  1.201000, -0.066100
  1.203000, -0.060500
  1.205000, -0.055100
  1.207000, -0.049800
  1.209000, -0.044600
  1.211000, -0.039700
  1.213000, -0.034900
  1.215000, -0.030400
  1.217000, -0.025900
  1.219000, -0.021700
  1.221000, -0.017600
  1.223000, -0.013700
  1.225000, -0.009900
  1.227000, -0.006200
  1.229000, -0.002600
  1.231000,  0.000600
  1.233000,  0.003800
  1.235000,  0.006800
  1.237000,  0.009600
  1.239000,  0.012300
  1.241000,  0.014800
  1.243000,  0.017100
  1.245000,  0.019200
  1.247000,  0.021100
  1.249000,  0.022900
  1.251000,  0.024500
  1.253000,  0.026000
  1.255000,  0.027300
  1.257000,  0.028600
  1.259000,  0.029700
  1.261000,  0.030800
  1.263000,  0.031600
  1.265000,  0.032300
  1.267000,  0.032900
  1.269000,  0.033300
  1.271000,  0.033600
  1.273000,  0.033700
  1.275000,  0.033600
  1.277000,  0.033400
  1.279000,  0.033000
  1.281000,  0.032600
  1.283000,  0.032000
  1.285000,  0.031100
  1.287000,  0.030200
  1.289000,  0.029200
  1.291000,  0.027900
  1.293000,  0.026500
  1.295000,  0.025100
  1.297000,  0.023500
  1.299000,  0.021800
  1.301000,  0.019900
  1.303000,  0.018100
  1.305000,  0.016000
  1.307000,  0.013900
  1.309000,  0.011500
  1.311000,  0.009200
  1.313000,  0.006900
  1.315000,  0.004400
  1.317000,  0.002000
  1.319000, -0.000500
  1.321000, -0.003200
  1.323000, -0.005700
  1.325000, -0.008200
  1.327000, -0.010700
  1.329000, -0.013000
  1.331000, -0.015200
  1.333000, -0.017300
  1.335000, -0.019400
  1.337000, -0.021300
  1.339000, -0.023100
  1.341000, -0.024700
  1.343000, -0.026200
  1.345000, -0.027400
  1.347000, -0.028300
  1.349000, -0.029100
  1.351000, -0.029600
  1.353000, -0.030000
  1.355000, -0.030000
  1.357000, -0.029600
  1.359000, -0.029000
  1.361000, -0.028100
  1.363000, -0.026800
  1.365000, -0.025300
  1.367000, -0.023500
  1.369000, -0.021300
  1.371000, -0.019000
  1.373000, -0.016400
  1.375000, -0.013400
  1.377000, -0.009900
  1.379000, -0.006100
  1.381000, -0.002100
  1.383000,  0.002100
  1.385000,  0.006300
  1.387000,  0.010300
  1.389000,  0.014500
  1.391000,  0.019000
  1.393000,  0.023200
  1.395000,  0.027600
  1.397000,  0.032200
  1.399000,  0.036500
