# z (nm)   (kJ/mol)
  0.4230   16.10660
  0.4250   15.67520
  0.4270   15.23780
  0.4290   14.81360
  0.4310   14.40960
  0.4330   14.00140
  0.4350   13.60400
  0.4370   13.20700
  0.4390   12.81570
  0.4410   12.42460
  0.4430   12.04280
  0.4450   11.67940
  0.4470   11.32540
  0.4490   10.98600
  0.4510   10.66070
  0.4530   10.34530
  0.4550   10.04300
  0.4570    9.75160
  0.4590    9.47070
  0.4610    9.20370
  0.4630    8.94720
  0.4650    8.70210
  0.4670    8.46830
  0.4690    8.24760
  0.4710    8.03870
  0.4730    7.83980
  0.4750    7.65260
  0.4770    7.47690
  0.4790    7.31340
  0.4810    7.15810
  0.4830    7.01080
  0.4850    6.87480
  0.4870    6.74530
  0.4890    6.62230
  0.4910    6.50700
  0.4930    6.40030
  0.4950    6.30190
  0.4970    6.20950
  0.4990    6.12340
  0.5010    6.04400
  0.5030    5.96990
  0.5050    5.90110
  0.5070    5.83840
  0.5090    5.78030
  0.5110    5.72710
  0.5130    5.67790
  0.5150    5.63270
  0.5170    5.59150
  0.5190    5.55220
  0.5210    5.51490
  0.5230    5.48050
  0.5250    5.44850
  0.5270    5.41830
  0.5290    5.39000
  0.5310    5.36310
  0.5330    5.33680
  0.5350    5.31090
  0.5370    5.28500
  0.5390    5.25940
  0.5410    5.23460
  0.5430    5.20960
  0.5450    5.18410
  0.5470    5.15820
  0.5490    5.13190
  0.5510    5.10490
  0.5530    5.07680
  0.5550    5.04790
  0.5570    5.01810
  0.5590    4.98730
  0.5610    4.95590
  0.5630    4.92380
  0.5650    4.89050
  0.5670    4.85650
  0.5690    4.82180
  0.5710    4.78660
  0.5730    4.75080
  0.5750    4.71450
  0.5770    4.67800
  0.5790    4.64150
  0.5810    4.60470
  0.5830    4.56780
  0.5850    4.53060
  0.5870    4.49380
  0.5890    4.45740
  0.5910    4.42070
  0.5930    4.38440
  0.5950    4.34900
  0.5970    4.31410
  0.5990    4.27960
  0.6010    4.24570
  0.6030    4.21230
  0.6050    4.17920
  0.6070    4.14670
  0.6090    4.11470
  0.6110    4.08280
  0.6130    4.05130
  0.6150    4.02010
  0.6170    3.98910
  0.6190    3.95840
  0.6210    3.92780
  0.6230    3.89710
  0.6250    3.86620
  0.6270    3.83500
  0.6290    3.80350
  0.6310    3.77170
  0.6330    3.73940
  0.6350    3.70630
  0.6370    3.67220
  0.6390    3.63720
  0.6410    3.60100
  0.6430    3.56390
  0.6450    3.52570
  0.6470    3.48600
  0.6490    3.44470
  0.6510    3.40190
  0.6530    3.35770
  0.6550    3.31180
  0.6570    3.26410
  0.6590    3.21490
  0.6610    3.16390
  0.6630    3.11070
  0.6650    3.05580
  0.6670    2.99960
  0.6690    2.94210
  0.6710    2.88270
  0.6730    2.82170
  0.6750    2.75940
  0.6770    2.69570
  0.6790    2.63090
  0.6810    2.56480
  0.6830    2.49780
  0.6850    2.42970
  0.6870    2.36010
  0.6890    2.28980
  0.6910    2.21930
  0.6930    2.14840
  0.6950    2.07680
  0.6970    2.00520
  0.6990    1.93340
  0.7010    1.86160
  0.7030    1.79010
  0.7050    1.71900
  0.7070    1.64830
  0.7090    1.57820
  0.7110    1.50880
  0.7130    1.43980
  0.7150    1.37140
  0.7170    1.30400
  0.7190    1.23770
  0.7210    1.17280
  0.7230    1.10900
  0.7250    1.04650
  0.7270    0.98540
  0.7290    0.92550
  0.7310    0.86690
  0.7330    0.80990
  0.7350    0.75420
  0.7370    0.69950
  0.7390    0.64620
  0.7410    0.59460
  0.7430    0.54440
  0.7450    0.49550
  0.7470    0.44790
  0.7490    0.40150
  0.7510    0.35650
  0.7530    0.31260
  0.7550    0.26990
  0.7570    0.22860
  0.7590    0.18830
  0.7610    0.14910
  0.7630    0.11090
  0.7650    0.07370
  0.7670    0.03730
  0.7690    0.00180
  0.7710   -0.03290
  0.7730   -0.06700
  0.7750   -0.10060
  0.7770   -0.13350
  0.7790   -0.16570
  0.7810   -0.19750
  0.7830   -0.22860
  0.7850   -0.25940
  0.7870   -0.29010
  0.7890   -0.32030
  0.7910   -0.34980
  0.7930   -0.37910
  0.7950   -0.40820
  0.7970   -0.43660
  0.7990   -0.46470
  0.8010   -0.49240
  0.8030   -0.51980
  0.8050   -0.54700
  0.8070   -0.57370
  0.8090   -0.59980
  0.8110   -0.62570
  0.8130   -0.65130
  0.8150   -0.67630
  0.8170   -0.70080
  0.8190   -0.72480
  0.8210   -0.74780
  0.8230   -0.77010
  0.8250   -0.79200
  0.8270   -0.81330
  0.8290   -0.83380
  0.8310   -0.85350
  0.8330   -0.87210
  0.8350   -0.89000
  0.8370   -0.90720
  0.8390   -0.92350
  0.8410   -0.93890
  0.8430   -0.95320
  0.8450   -0.96650
  0.8470   -0.97910
  0.8490   -0.99050
  0.8510   -1.00100
  0.8530   -1.01030
  0.8550   -1.01820
  0.8570   -1.02520
  0.8590   -1.03120
  0.8610   -1.03620
  0.8630   -1.04000
  0.8650   -1.04250
  0.8670   -1.04390
  0.8690   -1.04420
  0.8710   -1.04350
  0.8730   -1.04170
  0.8750   -1.03880
  0.8770   -1.03470
  0.8790   -1.02950
  0.8810   -1.02320
  0.8830   -1.01590
  0.8850   -1.00770
  0.8870   -0.99850
  0.8890   -0.98820
  0.8910   -0.97700
  0.8930   -0.96480
  0.8950   -0.95170
  0.8970   -0.93780
  0.8990   -0.92300
  0.9010   -0.90740
  0.9030   -0.89100
  0.9050   -0.87380
  0.9070   -0.85580
  0.9090   -0.83710
  0.9110   -0.81780
  0.9130   -0.79810
  0.9150   -0.77760
  0.9170   -0.75660
  0.9190   -0.73520
  0.9210   -0.71320
  0.9230   -0.69090
  0.9250   -0.66820
  0.9270   -0.64520
  0.9290   -0.62190
  0.9310   -0.59840
  0.9330   -0.57470
  0.9350   -0.55090
  0.9370   -0.52700
  0.9390   -0.50300
  0.9410   -0.47900
  0.9430   -0.45490
  0.9450   -0.43100
  0.9470   -0.40710
  0.9490   -0.38330
  0.9510   -0.35980
  0.9530   -0.33640
  0.9550   -0.31320
  0.9570   -0.29030
  0.9590   -0.26780
  0.9610   -0.24580
  0.9630   -0.22410
  0.9650   -0.20290
  0.9670   -0.18220
  0.9690   -0.16190
  0.9710   -0.14210
  0.9730   -0.12290
  0.9750   -0.10410
  0.9770   -0.08590
  0.9790   -0.06840
  0.9810   -0.05160
  0.9830   -0.03540
  0.9850   -0.01990
  0.9870   -0.00510
  0.9890    0.00890
  0.9910    0.02210
  0.9930    0.03470
  0.9950    0.04660
  0.9970    0.05770
  0.9990    0.06810
  1.0010    0.07770
  1.0030    0.08660
  1.0050    0.09500
  1.0070    0.10250
  1.0090    0.10930
  1.0110    0.11530
  1.0130    0.12060
  1.0150    0.12520
  1.0170    0.12930
  1.0190    0.13260
  1.0210    0.13520
  1.0230    0.13690
  1.0250    0.13810
  1.0270    0.13870
  1.0290    0.13870
  1.0310    0.13800
  1.0330    0.13670
  1.0350    0.13500
  1.0370    0.13280
  1.0390    0.13020
  1.0410    0.12700
  1.0430    0.12330
  1.0450    0.11900
  1.0470    0.11430
  1.0490    0.10920
  1.0510    0.10370
  1.0530    0.09800
  1.0550    0.09190
  1.0570    0.08540
  1.0590    0.07870
  1.0610    0.07180
  1.0630    0.06450
  1.0650    0.05690
  1.0670    0.04930
  1.0690    0.04150
  1.0710    0.03350
  1.0730    0.02520
  1.0750    0.01690
  1.0770    0.00830
  1.0790   -0.00030
  1.0810   -0.00900
  1.0830   -0.01770
  1.0850   -0.02640
  1.0870   -0.03520
  1.0890   -0.04400
  1.0910   -0.05280
  1.0930   -0.06160
  1.0950   -0.07040
  1.0970   -0.07910
  1.0990   -0.08780
  1.1010   -0.09630
  1.1030   -0.10470
  1.1050   -0.11300
  1.1070   -0.12110
  1.1090   -0.12920
  1.1110   -0.13710
  1.1130   -0.14490
  1.1150   -0.15250
  1.1170   -0.15990
  1.1190   -0.16720
  1.1210   -0.17440
  1.1230   -0.18140
  1.1250   -0.18800
  1.1270   -0.19430
  1.1290   -0.20040
  1.1310   -0.20640
  1.1330   -0.21200
  1.1350   -0.21730
  1.1370   -0.22230
  1.1390   -0.22710
  1.1410   -0.23160
  1.1430   -0.23580
  1.1450   -0.23970
  1.1470   -0.24340
  1.1490   -0.24670
  1.1510   -0.24970
  1.1530   -0.25250
  1.1550   -0.25490
  1.1570   -0.25700
  1.1590   -0.25890
  1.1610   -0.26050
  1.1630   -0.26170
  1.1650   -0.26260
  1.1670   -0.26320
  1.1690   -0.26350
  1.1710   -0.26350
  1.1730   -0.26330
  1.1750   -0.26290
  1.1770   -0.26210
  1.1790   -0.26110
  1.1810   -0.25980
  1.1830   -0.25820
  1.1850   -0.25640
  1.1870   -0.25430
  1.1890   -0.25190
  1.1910   -0.24930
  1.1930   -0.24660
  1.1950   -0.24360
  1.1970   -0.24040
  1.1990   -0.23700
  1.2010   -0.23360
  1.2030   -0.23000
  1.2050   -0.22620
  1.2070   -0.22230
  1.2090   -0.21820
  1.2110   -0.21390
  1.2130   -0.20940
  1.2150   -0.20480
  1.2170   -0.20020
  1.2190   -0.19550
  1.2210   -0.19060
  1.2230   -0.18560
  1.2250   -0.18050
  1.2270   -0.17530
  1.2290   -0.17000
  1.2310   -0.16470
  1.2330   -0.15920
  1.2350   -0.15370
  1.2370   -0.14820
  1.2390   -0.14250
  1.2410   -0.13680
  1.2430   -0.13110
  1.2450   -0.12530
  1.2470   -0.11950
  1.2490   -0.11360
  1.2510   -0.10780
  1.2530   -0.10200
  1.2550   -0.09620
  1.2570   -0.09040
  1.2590   -0.08450
  1.2610   -0.07870
  1.2630   -0.07280
  1.2650   -0.06700
  1.2670   -0.06120
  1.2690   -0.05550
  1.2710   -0.04980
  1.2730   -0.04420
  1.2750   -0.03850
  1.2770   -0.03290
  1.2790   -0.02740
  1.2810   -0.02200
  1.2830   -0.01660
  1.2850   -0.01120
  1.2870   -0.00600
  1.2890   -0.00090
  1.2910    0.00400
  1.2930    0.00890
  1.2950    0.01360
  1.2970    0.01840
  1.2990    0.02300
  1.3010    0.02750
  1.3030    0.03190
  1.3050    0.03610
  1.3070    0.04010
  1.3090    0.04400
  1.3110    0.04800
  1.3130    0.05200
  1.3150    0.05580
  1.3170    0.05960
  1.3190    0.06340
  1.3210    0.06690
  1.3230    0.07030
  1.3250    0.07370
  1.3270    0.07690
  1.3290    0.08010
  1.3310    0.08340
  1.3330    0.08660
  1.3350    0.08980
  1.3370    0.09290
  1.3390    0.09590
  1.3410    0.09910
  1.3430    0.10220
  1.3450    0.10520
  1.3470    0.10830
  1.3490    0.11150
  1.3510    0.11480
  1.3530    0.11810
  1.3550    0.12130
  1.3570    0.12460
  1.3590    0.12790
  1.3610    0.13130
  1.3630    0.13480
  1.3650    0.13810
  1.3670    0.14150
  1.3690    0.14490
  1.3710    0.14840
  1.3730    0.15190
  1.3750    0.15540
  1.3770    0.15890
  1.3790    0.16220
  1.3810    0.16560
  1.3830    0.16900
  1.3850    0.17210
  1.3870    0.17520
  1.3890    0.17810
  1.3910    0.18070
  1.3930    0.18320
  1.3950    0.18540
  1.3970    0.18740
  1.3990    0.18890
