# z (nm)   (kJ/mol)
  0.421000, 14.507900
  0.423000, 13.877900
  0.425000, 13.238900
  0.427000, 12.593000
  0.429000, 11.930900
  0.431000, 11.276700
  0.433000, 10.621700
  0.435000,  9.966400
  0.437000,  9.320200
  0.439000,  8.676700
  0.441000,  8.040500
  0.443000,  7.411600
  0.445000,  6.795600
  0.447000,  6.195700
  0.449000,  5.609300
  0.451000,  5.041100
  0.453000,  4.491700
  0.455000,  3.959800
  0.457000,  3.447600
  0.459000,  2.957700
  0.461000,  2.487300
  0.463000,  2.040300
  0.465000,  1.616800
  0.467000,  1.215900
  0.469000,  0.838400
  0.471000,  0.481700
  0.473000,  0.146700
  0.475000, -0.167600
  0.477000, -0.459700
  0.479000, -0.735300
  0.481000, -0.994800
  0.483000, -1.232700
  0.485000, -1.452900
  0.487000, -1.659500
  0.489000, -1.848100
  0.491000, -2.017600
  0.493000, -2.170800
  0.495000, -2.307300
  0.497000, -2.429400
  0.499000, -2.535800
  0.501000, -2.626300
  0.503000, -2.703400
  0.505000, -2.765100
  0.507000, -2.811100
  0.509000, -2.843600
  0.511000, -2.863800
  0.513000, -2.872800
  0.515000, -2.869800
  0.517000, -2.856500
  0.519000, -2.833000
  0.521000, -2.796700
  0.523000, -2.749600
  0.525000, -2.695500
  0.527000, -2.634800
  0.529000, -2.566400
  0.531000, -2.491900
  0.533000, -2.410900
  0.535000, -2.324000
  0.537000, -2.232400
  0.539000, -2.137700
  0.541000, -2.039500
  0.543000, -1.936600
  0.545000, -1.831400
  0.547000, -1.725100
  0.549000, -1.618900
  0.551000, -1.514100
  0.553000, -1.408700
  0.555000, -1.303200
  0.557000, -1.200400
  0.559000, -1.100700
  0.561000, -1.002400
  0.563000, -0.905600
  0.565000, -0.812700
  0.567000, -0.724200
  0.569000, -0.639300
  0.571000, -0.558600
  0.573000, -0.482200
  0.575000, -0.409000
  0.577000, -0.339900
  0.579000, -0.275600
  0.581000, -0.215300
  0.583000, -0.159800
  0.585000, -0.108300
  0.587000, -0.060200
  0.589000, -0.016000
  0.591000,  0.024800
  0.593000,  0.062400
  0.595000,  0.096300
  0.597000,  0.126800
  0.599000,  0.154500
  0.601000,  0.179500
  0.603000,  0.202300
  0.605000,  0.222800
  0.607000,  0.241300
  0.609000,  0.258000
  0.611000,  0.272800
  0.613000,  0.286000
  0.615000,  0.298300
  0.617000,  0.309700
  0.619000,  0.320100
  0.621000,  0.329500
  0.623000,  0.338200
  0.625000,  0.346200
  0.627000,  0.353800
  0.629000,  0.360900
  0.631000,  0.367700
  0.633000,  0.374500
  0.635000,  0.381000
  0.637000,  0.387000
  0.639000,  0.393100
  0.641000,  0.399100
  0.643000,  0.404900
  0.645000,  0.410900
  0.647000,  0.416500
  0.649000,  0.421800
  0.651000,  0.426300
  0.653000,  0.430400
  0.655000,  0.434200
  0.657000,  0.437700
  0.659000,  0.439900
  0.661000,  0.441400
  0.663000,  0.443100
  0.665000,  0.443600
  0.667000,  0.443400
  0.669000,  0.442400
  0.671000,  0.440300
  0.673000,  0.437300
  0.675000,  0.433300
  0.677000,  0.427400
  0.679000,  0.419100
  0.681000,  0.409200
  0.683000,  0.398500
  0.685000,  0.386500
  0.687000,  0.372700
  0.689000,  0.356800
  0.691000,  0.339500
  0.693000,  0.320500
  0.695000,  0.299500
  0.697000,  0.276800
  0.699000,  0.252500
  0.701000,  0.226800
  0.703000,  0.199000
  0.705000,  0.169300
  0.707000,  0.138200
  0.709000,  0.105600
  0.711000,  0.071800
  0.713000,  0.036500
  0.715000, -0.000400
  0.717000, -0.038600
  0.719000, -0.078200
  0.721000, -0.119000
  0.723000, -0.160300
  0.725000, -0.202300
  0.727000, -0.245000
  0.729000, -0.288100
  0.731000, -0.331800
  0.733000, -0.376000
  0.735000, -0.420800
  0.737000, -0.465800
  0.739000, -0.510900
  0.741000, -0.556000
  0.743000, -0.600100
  0.745000, -0.643600
  0.747000, -0.687200
  0.749000, -0.730600
  0.751000, -0.773200
  0.753000, -0.815000
  0.755000, -0.856000
  0.757000, -0.896000
  0.759000, -0.935000
  0.761000, -0.972700
  0.763000, -1.009400
  0.765000, -1.045000
  0.767000, -1.079100
  0.769000, -1.111800
  0.771000, -1.143300
  0.773000, -1.173100
  0.775000, -1.201600
  0.777000, -1.229200
  0.779000, -1.255300
  0.781000, -1.280000
  0.783000, -1.302900
  0.785000, -1.324400
  0.787000, -1.344500
  0.789000, -1.363200
  0.791000, -1.380500
  0.793000, -1.396300
  0.795000, -1.410600
  0.797000, -1.423700
  0.799000, -1.435400
  0.801000, -1.445900
  0.803000, -1.455100
  0.805000, -1.463100
  0.807000, -1.469900
  0.809000, -1.475500
  0.811000, -1.480200
  0.813000, -1.483700
  0.815000, -1.486300
  0.817000, -1.488100
  0.819000, -1.488900
  0.821000, -1.488900
  0.823000, -1.488000
  0.825000, -1.486200
  0.827000, -1.483500
  0.829000, -1.480100
  0.831000, -1.476000
  0.833000, -1.471300
  0.835000, -1.466100
  0.837000, -1.460400
  0.839000, -1.454200
  0.841000, -1.447500
  0.843000, -1.440000
  0.845000, -1.432000
  0.847000, -1.423900
  0.849000, -1.415300
  0.851000, -1.406300
  0.853000, -1.397000
  0.855000, -1.387100
  0.857000, -1.376800
  0.859000, -1.366100
  0.861000, -1.355000
  0.863000, -1.343600
  0.865000, -1.331900
  0.867000, -1.320000
  0.869000, -1.307600
  0.871000, -1.294800
  0.873000, -1.281900
  0.875000, -1.268600
  0.877000, -1.254900
  0.879000, -1.240900
  0.881000, -1.226500
  0.883000, -1.211700
  0.885000, -1.196500
  0.887000, -1.180900
  0.889000, -1.164900
  0.891000, -1.148700
  0.893000, -1.132300
  0.895000, -1.115700
  0.897000, -1.098700
  0.899000, -1.081100
  0.901000, -1.063200
  0.903000, -1.044900
  0.905000, -1.026300
  0.907000, -1.007300
  0.909000, -0.987900
  0.911000, -0.968300
  0.913000, -0.948300
  0.915000, -0.927900
  0.917000, -0.907400
  0.919000, -0.886500
  0.921000, -0.865300
  0.923000, -0.843900
  0.925000, -0.822500
  0.927000, -0.800800
  0.929000, -0.778900
  0.931000, -0.756700
  0.933000, -0.734400
  0.935000, -0.712100
  0.937000, -0.689900
  0.939000, -0.667700
  0.941000, -0.645600
  0.943000, -0.623500
  0.945000, -0.601400
  0.947000, -0.579300
  0.949000, -0.557500
  0.951000, -0.535900
  0.953000, -0.514500
  0.955000, -0.493300
  0.957000, -0.472600
  0.959000, -0.452100
  0.961000, -0.432100
  0.963000, -0.412600
  0.965000, -0.393600
  0.967000, -0.375200
  0.969000, -0.357400
  0.971000, -0.340100
  0.973000, -0.323400
  0.975000, -0.307200
  0.977000, -0.291800
  0.979000, -0.277000
  0.981000, -0.263100
  0.983000, -0.249900
  0.985000, -0.237500
  0.987000, -0.225900
  0.989000, -0.215100
  0.991000, -0.205200
  0.993000, -0.195900
  0.995000, -0.187500
  0.997000, -0.180100
  0.999000, -0.173500
  1.001000, -0.167700
  1.003000, -0.162800
  1.005000, -0.158700
  1.007000, -0.155500
  1.009000, -0.153000
  1.011000, -0.151300
  1.013000, -0.150100
  1.015000, -0.149700
  1.017000, -0.150200
  1.019000, -0.151200
  1.021000, -0.153000
  1.023000, -0.155400
  1.025000, -0.158400
  1.027000, -0.162000
  1.029000, -0.166200
  1.031000, -0.170800
  1.033000, -0.176000
  1.035000, -0.181500
  1.037000, -0.187300
  1.039000, -0.193600
  1.041000, -0.199900
  1.043000, -0.206600
  1.045000, -0.213600
  1.047000, -0.220800
  1.049000, -0.228100
  1.051000, -0.235500
  1.053000, -0.243200
  1.055000, -0.250900
  1.057000, -0.258500
  1.059000, -0.266200
  1.061000, -0.274000
  1.063000, -0.281500
  1.065000, -0.288900
  1.067000, -0.296300
  1.069000, -0.303700
  1.071000, -0.311000
  1.073000, -0.318200
  1.075000, -0.325200
  1.077000, -0.331800
  1.079000, -0.338100
  1.081000, -0.344400
  1.083000, -0.350400
  1.085000, -0.356100
  1.087000, -0.361700
  1.089000, -0.367200
  1.091000, -0.372500
  1.093000, -0.377400
  1.095000, -0.382100
  1.097000, -0.386400
  1.099000, -0.390500
  1.101000, -0.394400
  1.103000, -0.397900
  1.105000, -0.401000
  1.107000, -0.403800
  1.109000, -0.406500
  1.111000, -0.408900
  1.113000, -0.410900
  1.115000, -0.412600
  1.117000, -0.414100
  1.119000, -0.415400
  1.121000, -0.416400
  1.123000, -0.417200
  1.125000, -0.417600
  1.127000, -0.417800
  1.129000, -0.417700
  1.131000, -0.417300
  1.133000, -0.416700
  1.135000, -0.415800
  1.137000, -0.414600
  1.139000, -0.413100
  1.141000, -0.411300
  1.143000, -0.409300
  1.145000, -0.407000
  1.147000, -0.404300
  1.149000, -0.401400
  1.151000, -0.398300
  1.153000, -0.395000
  1.155000, -0.391300
  1.157000, -0.387300
  1.159000, -0.383000
  1.161000, -0.378600
  1.163000, -0.373800
  1.165000, -0.368700
  1.167000, -0.363400
  1.169000, -0.357800
  1.171000, -0.352000
  1.173000, -0.346000
  1.175000, -0.339700
  1.177000, -0.333100
  1.179000, -0.326400
  1.181000, -0.319500
  1.183000, -0.312400
  1.185000, -0.305200
  1.187000, -0.298000
  1.189000, -0.290500
  1.191000, -0.282700
  1.193000, -0.274700
  1.195000, -0.266700
  1.197000, -0.258800
  1.199000, -0.250800
  1.201000, -0.242700
  1.203000, -0.234600
  1.205000, -0.226300
  1.207000, -0.218000
  1.209000, -0.209700
  1.211000, -0.201500
  1.213000, -0.193400
  1.215000, -0.185100
  1.217000, -0.176900
  1.219000, -0.168800
  1.221000, -0.160800
  1.223000, -0.152900
  1.225000, -0.145000
  1.227000, -0.137300
  1.229000, -0.129700
  1.231000, -0.122400
  1.233000, -0.115300
  1.235000, -0.108200
  1.237000, -0.101200
  1.239000, -0.094300
  1.241000, -0.087600
  1.243000, -0.081100
  1.245000, -0.074900
  1.247000, -0.068800
  1.249000, -0.062700
  1.251000, -0.056900
  1.253000, -0.051300
  1.255000, -0.045900
  1.257000, -0.040700
  1.259000, -0.035700
  1.261000, -0.030700
  1.263000, -0.025800
  1.265000, -0.021000
  1.267000, -0.016400
  1.269000, -0.012100
  1.271000, -0.007900
  1.273000, -0.003800
  1.275000,  0.000000
  1.277000,  0.003800
  1.279000,  0.007500
  1.281000,  0.010800
  1.283000,  0.014000
  1.285000,  0.017100
  1.287000,  0.020200
  1.289000,  0.023200
  1.291000,  0.026100
  1.293000,  0.028800
  1.295000,  0.031400
  1.297000,  0.033800
  1.299000,  0.036200
  1.301000,  0.038400
  1.303000,  0.040600
  1.305000,  0.042700
  1.307000,  0.044500
  1.309000,  0.046300
  1.311000,  0.048100
  1.313000,  0.049800
  1.315000,  0.051400
  1.317000,  0.053000
  1.319000,  0.054500
  1.321000,  0.055800
  1.323000,  0.057200
  1.325000,  0.058400
  1.327000,  0.059600
  1.329000,  0.060800
  1.331000,  0.061900
  1.333000,  0.063000
  1.335000,  0.064200
  1.337000,  0.065500
  1.339000,  0.066600
  1.341000,  0.067700
  1.343000,  0.068900
  1.345000,  0.070200
  1.347000,  0.071500
  1.349000,  0.072900
  1.351000,  0.074400
  1.353000,  0.075800
  1.355000,  0.077200
  1.357000,  0.079000
  1.359000,  0.080800
  1.361000,  0.082800
  1.363000,  0.085000
  1.365000,  0.087000
  1.367000,  0.089200
  1.369000,  0.091700
  1.371000,  0.094400
  1.373000,  0.097100
  1.375000,  0.099900
  1.377000,  0.102600
  1.379000,  0.105500
  1.381000,  0.108700
  1.383000,  0.111900
  1.385000,  0.115200
  1.387000,  0.118400
  1.389000,  0.121600
  1.391000,  0.124900
  1.393000,  0.128100
  1.395000,  0.131200
  1.397000,  0.134300
  1.399000,  0.137200
