# z (nm)   (kJ/mol)
  0.3590   11.84700
  0.3610   11.34810
  0.3630   10.86730
  0.3650   10.39640
  0.3670    9.92530
  0.3690    9.45340
  0.3710    8.99360
  0.3730    8.54110
  0.3750    8.10960
  0.3770    7.68760
  0.3790    7.26730
  0.3810    6.85930
  0.3830    6.46290
  0.3850    6.08490
  0.3870    5.71720
  0.3890    5.35380
  0.3910    5.00600
  0.3930    4.67610
  0.3950    4.35930
  0.3970    4.05690
  0.3990    3.76900
  0.4010    3.49670
  0.4030    3.24020
  0.4050    2.99700
  0.4070    2.76390
  0.4090    2.54520
  0.4110    2.34360
  0.4130    2.15560
  0.4150    1.97890
  0.4170    1.81290
  0.4190    1.65900
  0.4210    1.52030
  0.4230    1.39430
  0.4250    1.27660
  0.4270    1.17040
  0.4290    1.07750
  0.4310    0.99500
  0.4330    0.92240
  0.4350    0.86020
  0.4370    0.80700
  0.4390    0.76270
  0.4410    0.72760
  0.4430    0.70150
  0.4450    0.68360
  0.4470    0.67270
  0.4490    0.66840
  0.4510    0.67080
  0.4530    0.67970
  0.4550    0.69470
  0.4570    0.71550
  0.4590    0.74280
  0.4610    0.77580
  0.4630    0.81200
  0.4650    0.85010
  0.4670    0.89260
  0.4690    0.93940
  0.4710    0.98790
  0.4730    1.03740
  0.4750    1.08820
  0.4770    1.14030
  0.4790    1.19430
  0.4810    1.24870
  0.4830    1.30210
  0.4850    1.35700
  0.4870    1.41110
  0.4890    1.46360
  0.4910    1.51510
  0.4930    1.56540
  0.4950    1.61490
  0.4970    1.66230
  0.4990    1.70780
  0.5010    1.75200
  0.5030    1.79440
  0.5050    1.83490
  0.5070    1.87320
  0.5090    1.90930
  0.5110    1.94310
  0.5130    1.97470
  0.5150    2.00450
  0.5170    2.03260
  0.5190    2.05870
  0.5210    2.08260
  0.5230    2.10470
  0.5250    2.12530
  0.5270    2.14410
  0.5290    2.16130
  0.5310    2.17700
  0.5330    2.19140
  0.5350    2.20430
  0.5370    2.21600
  0.5390    2.22630
  0.5410    2.23550
  0.5430    2.24340
  0.5450    2.25030
  0.5470    2.25600
  0.5490    2.26070
  0.5510    2.26440
  0.5530    2.26710
  0.5550    2.26870
  0.5570    2.26940
  0.5590    2.26950
  0.5610    2.26860
  0.5630    2.26680
  0.5650    2.26440
  0.5670    2.26080
  0.5690    2.25610
  0.5710    2.25030
  0.5730    2.24330
  0.5750    2.23540
  0.5770    2.22630
  0.5790    2.21590
  0.5810    2.20470
  0.5830    2.19190
  0.5850    2.17760
  0.5870    2.16180
  0.5890    2.14430
  0.5910    2.12560
  0.5930    2.10540
  0.5950    2.08370
  0.5970    2.06040
  0.5990    2.03550
  0.6010    2.00920
  0.6030    1.98120
  0.6050    1.95160
  0.6070    1.92040
  0.6090    1.88770
  0.6110    1.85350
  0.6130    1.81770
  0.6150    1.78040
  0.6170    1.74190
  0.6190    1.70180
  0.6210    1.66030
  0.6230    1.61760
  0.6250    1.57390
  0.6270    1.52910
  0.6290    1.48290
  0.6310    1.43560
  0.6330    1.38710
  0.6350    1.33790
  0.6370    1.28810
  0.6390    1.23760
  0.6410    1.18660
  0.6430    1.13500
  0.6450    1.08290
  0.6470    1.03050
  0.6490    0.97790
  0.6510    0.92520
  0.6530    0.87240
  0.6550    0.81980
  0.6570    0.76710
  0.6590    0.71420
  0.6610    0.66200
  0.6630    0.61060
  0.6650    0.55950
  0.6670    0.50890
  0.6690    0.45910
  0.6710    0.41010
  0.6730    0.36180
  0.6750    0.31410
  0.6770    0.26710
  0.6790    0.22120
  0.6810    0.17650
  0.6830    0.13260
  0.6850    0.08960
  0.6870    0.04790
  0.6890    0.00750
  0.6910   -0.03180
  0.6930   -0.07000
  0.6950   -0.10690
  0.6970   -0.14260
  0.6990   -0.17710
  0.7010   -0.21040
  0.7030   -0.24270
  0.7050   -0.27370
  0.7070   -0.30340
  0.7090   -0.33190
  0.7110   -0.35910
  0.7130   -0.38500
  0.7150   -0.40960
  0.7170   -0.43310
  0.7190   -0.45540
  0.7210   -0.47650
  0.7230   -0.49630
  0.7250   -0.51490
  0.7270   -0.53230
  0.7290   -0.54850
  0.7310   -0.56340
  0.7330   -0.57710
  0.7350   -0.58980
  0.7370   -0.60120
  0.7390   -0.61150
  0.7410   -0.62050
  0.7430   -0.62850
  0.7450   -0.63540
  0.7470   -0.64120
  0.7490   -0.64580
  0.7510   -0.64950
  0.7530   -0.65190
  0.7550   -0.65310
  0.7570   -0.65330
  0.7590   -0.65240
  0.7610   -0.65050
  0.7630   -0.64760
  0.7650   -0.64360
  0.7670   -0.63850
  0.7690   -0.63250
  0.7710   -0.62530
  0.7730   -0.61720
  0.7750   -0.60800
  0.7770   -0.59770
  0.7790   -0.58670
  0.7810   -0.57470
  0.7830   -0.56170
  0.7850   -0.54800
  0.7870   -0.53340
  0.7890   -0.51790
  0.7910   -0.50140
  0.7930   -0.48410
  0.7950   -0.46630
  0.7970   -0.44770
  0.7990   -0.42840
  0.8010   -0.40840
  0.8030   -0.38790
  0.8050   -0.36680
  0.8070   -0.34520
  0.8090   -0.32310
  0.8110   -0.30070
  0.8130   -0.27800
  0.8150   -0.25500
  0.8170   -0.23170
  0.8190   -0.20810
  0.8210   -0.18450
  0.8230   -0.16080
  0.8250   -0.13710
  0.8270   -0.11330
  0.8290   -0.08970
  0.8310   -0.06610
  0.8330   -0.04270
  0.8350   -0.01950
  0.8370    0.00330
  0.8390    0.02580
  0.8410    0.04810
  0.8430    0.07000
  0.8450    0.09150
  0.8470    0.11260
  0.8490    0.13320
  0.8510    0.15320
  0.8530    0.17250
  0.8550    0.19120
  0.8570    0.20930
  0.8590    0.22680
  0.8610    0.24350
  0.8630    0.25940
  0.8650    0.27460
  0.8670    0.28920
  0.8690    0.30320
  0.8710    0.31620
  0.8730    0.32830
  0.8750    0.33970
  0.8770    0.35040
  0.8790    0.36020
  0.8810    0.36910
  0.8830    0.37720
  0.8850    0.38460
  0.8870    0.39130
  0.8890    0.39710
  0.8910    0.40210
  0.8930    0.40640
  0.8950    0.40980
  0.8970    0.41250
  0.8990    0.41450
  0.9010    0.41580
  0.9030    0.41640
  0.9050    0.41620
  0.9070    0.41540
  0.9090    0.41400
  0.9110    0.41190
  0.9130    0.40930
  0.9150    0.40610
  0.9170    0.40210
  0.9190    0.39770
  0.9210    0.39270
  0.9230    0.38720
  0.9250    0.38120
  0.9270    0.37470
  0.9290    0.36770
  0.9310    0.36030
  0.9330    0.35240
  0.9350    0.34410
  0.9370    0.33550
  0.9390    0.32660
  0.9410    0.31730
  0.9430    0.30760
  0.9450    0.29750
  0.9470    0.28720
  0.9490    0.27660
  0.9510    0.26570
  0.9530    0.25460
  0.9550    0.24320
  0.9570    0.23150
  0.9590    0.21970
  0.9610    0.20770
  0.9630    0.19570
  0.9650    0.18360
  0.9670    0.17110
  0.9690    0.15860
  0.9710    0.14600
  0.9730    0.13340
  0.9750    0.12060
  0.9770    0.10790
  0.9790    0.09530
  0.9810    0.08250
  0.9830    0.06990
  0.9850    0.05730
  0.9870    0.04480
  0.9890    0.03240
  0.9910    0.02020
  0.9930    0.00790
  0.9950   -0.00410
  0.9970   -0.01590
  0.9990   -0.02750
  1.0010   -0.03890
  1.0030   -0.05000
  1.0050   -0.06080
  1.0070   -0.07130
  1.0090   -0.08150
  1.0110   -0.09150
  1.0130   -0.10110
  1.0150   -0.11030
  1.0170   -0.11920
  1.0190   -0.12760
  1.0210   -0.13560
  1.0230   -0.14340
  1.0250   -0.15090
  1.0270   -0.15780
  1.0290   -0.16440
  1.0310   -0.17050
  1.0330   -0.17620
  1.0350   -0.18150
  1.0370   -0.18630
  1.0390   -0.19060
  1.0410   -0.19450
  1.0430   -0.19800
  1.0450   -0.20110
  1.0470   -0.20380
  1.0490   -0.20610
  1.0510   -0.20770
  1.0530   -0.20890
  1.0550   -0.20980
  1.0570   -0.21030
  1.0590   -0.21050
  1.0610   -0.21020
  1.0630   -0.20950
  1.0650   -0.20870
  1.0670   -0.20740
  1.0690   -0.20580
  1.0710   -0.20400
  1.0730   -0.20180
  1.0750   -0.19930
  1.0770   -0.19650
  1.0790   -0.19350
  1.0810   -0.19030
  1.0830   -0.18690
  1.0850   -0.18350
  1.0870   -0.17970
  1.0890   -0.17570
  1.0910   -0.17160
  1.0930   -0.16750
  1.0950   -0.16320
  1.0970   -0.15870
  1.0990   -0.15410
  1.1010   -0.14950
  1.1030   -0.14470
  1.1050   -0.14000
  1.1070   -0.13520
  1.1090   -0.13040
  1.1110   -0.12550
  1.1130   -0.12060
  1.1150   -0.11560
  1.1170   -0.11080
  1.1190   -0.10590
  1.1210   -0.10090
  1.1230   -0.09600
  1.1250   -0.09120
  1.1270   -0.08630
  1.1290   -0.08150
  1.1310   -0.07680
  1.1330   -0.07220
  1.1350   -0.06750
  1.1370   -0.06300
  1.1390   -0.05840
  1.1410   -0.05400
  1.1430   -0.04980
  1.1450   -0.04560
  1.1470   -0.04140
  1.1490   -0.03740
  1.1510   -0.03350
  1.1530   -0.02960
  1.1550   -0.02580
  1.1570   -0.02220
  1.1590   -0.01850
  1.1610   -0.01500
  1.1630   -0.01150
  1.1650   -0.00830
  1.1670   -0.00510
  1.1690   -0.00200
  1.1710    0.00100
  1.1730    0.00390
  1.1750    0.00670
  1.1770    0.00930
  1.1790    0.01190
  1.1810    0.01420
  1.1830    0.01650
  1.1850    0.01860
  1.1870    0.02050
  1.1890    0.02240
  1.1910    0.02410
  1.1930    0.02560
  1.1950    0.02700
  1.1970    0.02840
  1.1990    0.02970
  1.2010    0.03070
  1.2030    0.03170
  1.2050    0.03260
  1.2070    0.03340
  1.2090    0.03410
  1.2110    0.03460
  1.2130    0.03500
  1.2150    0.03530
  1.2170    0.03540
  1.2190    0.03550
  1.2210    0.03540
  1.2230    0.03520
  1.2250    0.03500
  1.2270    0.03460
  1.2290    0.03410
  1.2310    0.03350
  1.2330    0.03290
  1.2350    0.03220
  1.2370    0.03130
  1.2390    0.03050
  1.2410    0.02950
  1.2430    0.02860
  1.2450    0.02750
  1.2470    0.02640
  1.2490    0.02520
  1.2510    0.02390
  1.2530    0.02250
  1.2550    0.02100
  1.2570    0.01970
  1.2590    0.01840
  1.2610    0.01700
  1.2630    0.01540
  1.2650    0.01380
  1.2670    0.01230
  1.2690    0.01060
  1.2710    0.00900
  1.2730    0.00740
  1.2750    0.00580
  1.2770    0.00410
  1.2790    0.00250
  1.2810    0.00080
  1.2830   -0.00100
  1.2850   -0.00270
  1.2870   -0.00450
  1.2890   -0.00620
  1.2910   -0.00780
  1.2930   -0.00950
  1.2950   -0.01120
  1.2970   -0.01290
  1.2990   -0.01460
  1.3010   -0.01630
  1.3030   -0.01800
  1.3050   -0.01960
  1.3070   -0.02110
  1.3090   -0.02250
  1.3110   -0.02390
  1.3130   -0.02530
  1.3150   -0.02650
  1.3170   -0.02780
  1.3190   -0.02910
  1.3210   -0.03040
  1.3230   -0.03160
  1.3250   -0.03270
  1.3270   -0.03360
  1.3290   -0.03440
  1.3310   -0.03520
  1.3330   -0.03580
  1.3350   -0.03620
  1.3370   -0.03650
  1.3390   -0.03660
  1.3410   -0.03660
  1.3430   -0.03660
  1.3450   -0.03630
  1.3470   -0.03580
  1.3490   -0.03510
  1.3510   -0.03430
  1.3530   -0.03350
  1.3550   -0.03250
  1.3570   -0.03120
  1.3590   -0.02980
  1.3610   -0.02800
  1.3630   -0.02620
  1.3650   -0.02410
  1.3670   -0.02170
  1.3690   -0.01930
  1.3710   -0.01670
  1.3730   -0.01400
  1.3750   -0.01080
  1.3770   -0.00750
  1.3790   -0.00420
  1.3810   -0.00070
  1.3830    0.00260
  1.3850    0.00590
  1.3870    0.00940
  1.3890    0.01300
  1.3910    0.01650
  1.3930    0.01970
  1.3950    0.02280
  1.3970    0.02560
  1.3990    0.02810
