# z (nm)   (kJ/mol)
  0.359000, 11.847000
  0.361000, 11.348100
  0.363000, 10.867300
  0.365000, 10.396400
  0.367000,  9.925300
  0.369000,  9.453400
  0.371000,  8.993600
  0.373000,  8.541100
  0.375000,  8.109600
  0.377000,  7.687600
  0.379000,  7.267300
  0.381000,  6.859300
  0.383000,  6.462900
  0.385000,  6.084900
  0.387000,  5.717200
  0.389000,  5.353800
  0.391000,  5.006000
  0.393000,  4.676100
  0.395000,  4.359300
  0.397000,  4.056900
  0.399000,  3.769000
  0.401000,  3.496700
  0.403000,  3.240200
  0.405000,  2.997000
  0.407000,  2.763900
  0.409000,  2.545200
  0.411000,  2.343600
  0.413000,  2.155600
  0.415000,  1.978900
  0.417000,  1.812900
  0.419000,  1.659000
  0.421000,  1.520300
  0.423000,  1.394300
  0.425000,  1.276600
  0.427000,  1.170400
  0.429000,  1.077500
  0.431000,  0.995000
  0.433000,  0.922400
  0.435000,  0.860200
  0.437000,  0.807000
  0.439000,  0.762700
  0.441000,  0.727600
  0.443000,  0.701500
  0.445000,  0.683600
  0.447000,  0.672700
  0.449000,  0.668400
  0.451000,  0.670800
  0.453000,  0.679700
  0.455000,  0.694700
  0.457000,  0.715500
  0.459000,  0.742800
  0.461000,  0.775800
  0.463000,  0.812000
  0.465000,  0.850100
  0.467000,  0.892600
  0.469000,  0.939400
  0.471000,  0.987900
  0.473000,  1.037400
  0.475000,  1.088200
  0.477000,  1.140300
  0.479000,  1.194300
  0.481000,  1.248700
  0.483000,  1.302100
  0.485000,  1.357000
  0.487000,  1.411100
  0.489000,  1.463600
  0.491000,  1.515100
  0.493000,  1.565400
  0.495000,  1.614900
  0.497000,  1.662300
  0.499000,  1.707800
  0.501000,  1.752000
  0.503000,  1.794400
  0.505000,  1.834900
  0.507000,  1.873200
  0.509000,  1.909300
  0.511000,  1.943100
  0.513000,  1.974700
  0.515000,  2.004500
  0.517000,  2.032600
  0.519000,  2.058700
  0.521000,  2.082600
  0.523000,  2.104700
  0.525000,  2.125300
  0.527000,  2.144100
  0.529000,  2.161300
  0.531000,  2.177000
  0.533000,  2.191400
  0.535000,  2.204300
  0.537000,  2.216000
  0.539000,  2.226300
  0.541000,  2.235500
  0.543000,  2.243400
  0.545000,  2.250300
  0.547000,  2.256000
  0.549000,  2.260700
  0.551000,  2.264400
  0.553000,  2.267100
  0.555000,  2.268700
  0.557000,  2.269400
  0.559000,  2.269500
  0.561000,  2.268600
  0.563000,  2.266800
  0.565000,  2.264400
  0.567000,  2.260800
  0.569000,  2.256100
  0.571000,  2.250300
  0.573000,  2.243300
  0.575000,  2.235400
  0.577000,  2.226300
  0.579000,  2.215900
  0.581000,  2.204700
  0.583000,  2.191900
  0.585000,  2.177600
  0.587000,  2.161800
  0.589000,  2.144300
  0.591000,  2.125600
  0.593000,  2.105400
  0.595000,  2.083700
  0.597000,  2.060400
  0.599000,  2.035500
  0.601000,  2.009200
  0.603000,  1.981200
  0.605000,  1.951600
  0.607000,  1.920400
  0.609000,  1.887700
  0.611000,  1.853500
  0.613000,  1.817700
  0.615000,  1.780400
  0.617000,  1.741900
  0.619000,  1.701800
  0.621000,  1.660300
  0.623000,  1.617600
  0.625000,  1.573900
  0.627000,  1.529100
  0.629000,  1.482900
  0.631000,  1.435600
  0.633000,  1.387100
  0.635000,  1.337900
  0.637000,  1.288100
  0.639000,  1.237600
  0.641000,  1.186600
  0.643000,  1.135000
  0.645000,  1.082900
  0.647000,  1.030500
  0.649000,  0.977900
  0.651000,  0.925200
  0.653000,  0.872400
  0.655000,  0.819800
  0.657000,  0.767100
  0.659000,  0.714200
  0.661000,  0.662000
  0.663000,  0.610600
  0.665000,  0.559500
  0.667000,  0.508900
  0.669000,  0.459100
  0.671000,  0.410100
  0.673000,  0.361800
  0.675000,  0.314100
  0.677000,  0.267100
  0.679000,  0.221200
  0.681000,  0.176500
  0.683000,  0.132600
  0.685000,  0.089600
  0.687000,  0.047900
  0.689000,  0.007500
  0.691000, -0.031800
  0.693000, -0.070000
  0.695000, -0.106900
  0.697000, -0.142600
  0.699000, -0.177100
  0.701000, -0.210400
  0.703000, -0.242700
  0.705000, -0.273700
  0.707000, -0.303400
  0.709000, -0.331900
  0.711000, -0.359100
  0.713000, -0.385000
  0.715000, -0.409600
  0.717000, -0.433100
  0.719000, -0.455400
  0.721000, -0.476500
  0.723000, -0.496300
  0.725000, -0.514900
  0.727000, -0.532300
  0.729000, -0.548500
  0.731000, -0.563400
  0.733000, -0.577100
  0.735000, -0.589800
  0.737000, -0.601200
  0.739000, -0.611500
  0.741000, -0.620500
  0.743000, -0.628500
  0.745000, -0.635400
  0.747000, -0.641200
  0.749000, -0.645800
  0.751000, -0.649500
  0.753000, -0.651900
  0.755000, -0.653100
  0.757000, -0.653300
  0.759000, -0.652400
  0.761000, -0.650500
  0.763000, -0.647600
  0.765000, -0.643600
  0.767000, -0.638500
  0.769000, -0.632500
  0.771000, -0.625300
  0.773000, -0.617200
  0.775000, -0.608000
  0.777000, -0.597700
  0.779000, -0.586700
  0.781000, -0.574700
  0.783000, -0.561700
  0.785000, -0.548000
  0.787000, -0.533400
  0.789000, -0.517900
  0.791000, -0.501400
  0.793000, -0.484100
  0.795000, -0.466300
  0.797000, -0.447700
  0.799000, -0.428400
  0.801000, -0.408400
  0.803000, -0.387900
  0.805000, -0.366800
  0.807000, -0.345200
  0.809000, -0.323100
  0.811000, -0.300700
  0.813000, -0.278000
  0.815000, -0.255000
  0.817000, -0.231700
  0.819000, -0.208100
  0.821000, -0.184500
  0.823000, -0.160800
  0.825000, -0.137100
  0.827000, -0.113300
  0.829000, -0.089700
  0.831000, -0.066100
  0.833000, -0.042700
  0.835000, -0.019500
  0.837000,  0.003300
  0.839000,  0.025800
  0.841000,  0.048100
  0.843000,  0.070000
  0.845000,  0.091500
  0.847000,  0.112600
  0.849000,  0.133200
  0.851000,  0.153200
  0.853000,  0.172500
  0.855000,  0.191200
  0.857000,  0.209300
  0.859000,  0.226800
  0.861000,  0.243500
  0.863000,  0.259400
  0.865000,  0.274600
  0.867000,  0.289200
  0.869000,  0.303200
  0.871000,  0.316200
  0.873000,  0.328300
  0.875000,  0.339700
  0.877000,  0.350400
  0.879000,  0.360200
  0.881000,  0.369100
  0.883000,  0.377200
  0.885000,  0.384600
  0.887000,  0.391300
  0.889000,  0.397100
  0.891000,  0.402100
  0.893000,  0.406400
  0.895000,  0.409800
  0.897000,  0.412500
  0.899000,  0.414500
  0.901000,  0.415800
  0.903000,  0.416400
  0.905000,  0.416200
  0.907000,  0.415400
  0.909000,  0.414000
  0.911000,  0.411900
  0.913000,  0.409300
  0.915000,  0.406100
  0.917000,  0.402100
  0.919000,  0.397700
  0.921000,  0.392700
  0.923000,  0.387200
  0.925000,  0.381200
  0.927000,  0.374700
  0.929000,  0.367700
  0.931000,  0.360300
  0.933000,  0.352400
  0.935000,  0.344100
  0.937000,  0.335500
  0.939000,  0.326600
  0.941000,  0.317300
  0.943000,  0.307600
  0.945000,  0.297500
  0.947000,  0.287200
  0.949000,  0.276600
  0.951000,  0.265700
  0.953000,  0.254600
  0.955000,  0.243200
  0.957000,  0.231500
  0.959000,  0.219700
  0.961000,  0.207700
  0.963000,  0.195700
  0.965000,  0.183600
  0.967000,  0.171100
  0.969000,  0.158600
  0.971000,  0.146000
  0.973000,  0.133400
  0.975000,  0.120600
  0.977000,  0.107900
  0.979000,  0.095300
  0.981000,  0.082500
  0.983000,  0.069900
  0.985000,  0.057300
  0.987000,  0.044800
  0.989000,  0.032400
  0.991000,  0.020200
  0.993000,  0.007900
  0.995000, -0.004100
  0.997000, -0.015900
  0.999000, -0.027500
  1.001000, -0.038900
  1.003000, -0.050000
  1.005000, -0.060800
  1.007000, -0.071300
  1.009000, -0.081500
  1.011000, -0.091500
  1.013000, -0.101100
  1.015000, -0.110300
  1.017000, -0.119200
  1.019000, -0.127600
  1.021000, -0.135600
  1.023000, -0.143400
  1.025000, -0.150900
  1.027000, -0.157800
  1.029000, -0.164400
  1.031000, -0.170500
  1.033000, -0.176200
  1.035000, -0.181500
  1.037000, -0.186300
  1.039000, -0.190600
  1.041000, -0.194500
  1.043000, -0.198000
  1.045000, -0.201100
  1.047000, -0.203800
  1.049000, -0.206100
  1.051000, -0.207700
  1.053000, -0.208900
  1.055000, -0.209800
  1.057000, -0.210300
  1.059000, -0.210500
  1.061000, -0.210200
  1.063000, -0.209500
  1.065000, -0.208700
  1.067000, -0.207400
  1.069000, -0.205800
  1.071000, -0.204000
  1.073000, -0.201800
  1.075000, -0.199300
  1.077000, -0.196500
  1.079000, -0.193500
  1.081000, -0.190300
  1.083000, -0.186900
  1.085000, -0.183500
  1.087000, -0.179700
  1.089000, -0.175700
  1.091000, -0.171600
  1.093000, -0.167500
  1.095000, -0.163200
  1.097000, -0.158700
  1.099000, -0.154100
  1.101000, -0.149500
  1.103000, -0.144700
  1.105000, -0.140000
  1.107000, -0.135200
  1.109000, -0.130400
  1.111000, -0.125500
  1.113000, -0.120600
  1.115000, -0.115600
  1.117000, -0.110800
  1.119000, -0.105900
  1.121000, -0.100900
  1.123000, -0.096000
  1.125000, -0.091200
  1.127000, -0.086300
  1.129000, -0.081500
  1.131000, -0.076800
  1.133000, -0.072200
  1.135000, -0.067500
  1.137000, -0.063000
  1.139000, -0.058400
  1.141000, -0.054000
  1.143000, -0.049800
  1.145000, -0.045600
  1.147000, -0.041400
  1.149000, -0.037400
  1.151000, -0.033500
  1.153000, -0.029600
  1.155000, -0.025800
  1.157000, -0.022200
  1.159000, -0.018500
  1.161000, -0.015000
  1.163000, -0.011500
  1.165000, -0.008300
  1.167000, -0.005100
  1.169000, -0.002000
  1.171000,  0.001000
  1.173000,  0.003900
  1.175000,  0.006700
  1.177000,  0.009300
  1.179000,  0.011900
  1.181000,  0.014200
  1.183000,  0.016500
  1.185000,  0.018600
  1.187000,  0.020500
  1.189000,  0.022400
  1.191000,  0.024100
  1.193000,  0.025600
  1.195000,  0.027000
  1.197000,  0.028400
  1.199000,  0.029700
  1.201000,  0.030700
  1.203000,  0.031700
  1.205000,  0.032600
  1.207000,  0.033400
  1.209000,  0.034100
  1.211000,  0.034600
  1.213000,  0.035000
  1.215000,  0.035300
  1.217000,  0.035400
  1.219000,  0.035500
  1.221000,  0.035400
  1.223000,  0.035200
  1.225000,  0.035000
  1.227000,  0.034600
  1.229000,  0.034100
  1.231000,  0.033500
  1.233000,  0.032900
  1.235000,  0.032200
  1.237000,  0.031300
  1.239000,  0.030500
  1.241000,  0.029500
  1.243000,  0.028600
  1.245000,  0.027500
  1.247000,  0.026400
  1.249000,  0.025200
  1.251000,  0.023900
  1.253000,  0.022500
  1.255000,  0.021000
  1.257000,  0.019700
  1.259000,  0.018400
  1.261000,  0.017000
  1.263000,  0.015400
  1.265000,  0.013800
  1.267000,  0.012300
  1.269000,  0.010600
  1.271000,  0.009000
  1.273000,  0.007400
  1.275000,  0.005800
  1.277000,  0.004100
  1.279000,  0.002500
  1.281000,  0.000800
  1.283000, -0.001000
  1.285000, -0.002700
  1.287000, -0.004500
  1.289000, -0.006200
  1.291000, -0.007800
  1.293000, -0.009500
  1.295000, -0.011200
  1.297000, -0.012900
  1.299000, -0.014600
  1.301000, -0.016300
  1.303000, -0.018000
  1.305000, -0.019600
  1.307000, -0.021100
  1.309000, -0.022500
  1.311000, -0.023900
  1.313000, -0.025300
  1.315000, -0.026500
  1.317000, -0.027800
  1.319000, -0.029100
  1.321000, -0.030400
  1.323000, -0.031600
  1.325000, -0.032700
  1.327000, -0.033600
  1.329000, -0.034400
  1.331000, -0.035200
  1.333000, -0.035800
  1.335000, -0.036200
  1.337000, -0.036500
  1.339000, -0.036600
  1.341000, -0.036600
  1.343000, -0.036600
  1.345000, -0.036300
  1.347000, -0.035800
  1.349000, -0.035100
  1.351000, -0.034300
  1.353000, -0.033500
  1.355000, -0.032500
  1.357000, -0.031200
  1.359000, -0.029800
  1.361000, -0.028000
  1.363000, -0.026200
  1.365000, -0.024100
  1.367000, -0.021700
  1.369000, -0.019300
  1.371000, -0.016700
  1.373000, -0.014000
  1.375000, -0.010800
  1.377000, -0.007500
  1.379000, -0.004200
  1.381000, -0.000700
  1.383000,  0.002600
  1.385000,  0.005900
  1.387000,  0.009400
  1.389000,  0.013000
  1.391000,  0.016500
  1.393000,  0.019700
  1.395000,  0.022800
  1.397000,  0.025600
  1.399000,  0.028100
