# z (nm)   (kJ/mol)
  0.381000, 15.778800
  0.387000, 14.752400
  0.391000, 13.645800
  0.393000, 13.089200
  0.395000, 12.568700
  0.397000, 12.063200
  0.399000, 11.575100
  0.401000, 11.083500
  0.403000, 10.586000
  0.405000, 10.099900
  0.407000,  9.623200
  0.409000,  9.161300
  0.411000,  8.711800
  0.413000,  8.272200
  0.415000,  7.836900
  0.417000,  7.413600
  0.419000,  7.002900
  0.421000,  6.599300
  0.423000,  6.213600
  0.425000,  5.842000
  0.427000,  5.481700
  0.429000,  5.138200
  0.431000,  4.806200
  0.433000,  4.487100
  0.435000,  4.182900
  0.437000,  3.893800
  0.439000,  3.620600
  0.441000,  3.359300
  0.443000,  3.112100
  0.445000,  2.877700
  0.447000,  2.657200
  0.449000,  2.451600
  0.451000,  2.257800
  0.453000,  2.076400
  0.455000,  1.908600
  0.457000,  1.755000
  0.459000,  1.613000
  0.461000,  1.482600
  0.463000,  1.363900
  0.465000,  1.256500
  0.467000,  1.160600
  0.469000,  1.075100
  0.471000,  0.999900
  0.473000,  0.935700
  0.475000,  0.881000
  0.477000,  0.835700
  0.479000,  0.799600
  0.481000,  0.771800
  0.483000,  0.752400
  0.485000,  0.741100
  0.487000,  0.738000
  0.489000,  0.742700
  0.491000,  0.754800
  0.493000,  0.772700
  0.495000,  0.796900
  0.497000,  0.827300
  0.499000,  0.859600
  0.501000,  0.896400
  0.503000,  0.939200
  0.505000,  0.985400
  0.507000,  1.036100
  0.509000,  1.090900
  0.511000,  1.147100
  0.513000,  1.203600
  0.515000,  1.262500
  0.517000,  1.323400
  0.519000,  1.384900
  0.521000,  1.445300
  0.523000,  1.505300
  0.525000,  1.565700
  0.527000,  1.625100
  0.529000,  1.683100
  0.531000,  1.739100
  0.533000,  1.793400
  0.535000,  1.845400
  0.537000,  1.893400
  0.539000,  1.940200
  0.541000,  1.984700
  0.543000,  2.025600
  0.545000,  2.065200
  0.547000,  2.101300
  0.549000,  2.133600
  0.551000,  2.163200
  0.553000,  2.189700
  0.555000,  2.213000
  0.557000,  2.232900
  0.559000,  2.249600
  0.561000,  2.263500
  0.563000,  2.274800
  0.565000,  2.283200
  0.567000,  2.289000
  0.569000,  2.291600
  0.571000,  2.291700
  0.573000,  2.289600
  0.575000,  2.285200
  0.577000,  2.278600
  0.579000,  2.270200
  0.581000,  2.260200
  0.583000,  2.248200
  0.585000,  2.234800
  0.587000,  2.219600
  0.589000,  2.202500
  0.591000,  2.184500
  0.593000,  2.165500
  0.595000,  2.145300
  0.597000,  2.124200
  0.599000,  2.102300
  0.601000,  2.079700
  0.603000,  2.056000
  0.605000,  2.031600
  0.607000,  2.006600
  0.609000,  1.980600
  0.611000,  1.954000
  0.613000,  1.926800
  0.615000,  1.899000
  0.617000,  1.870800
  0.619000,  1.841900
  0.621000,  1.812400
  0.623000,  1.782400
  0.625000,  1.752100
  0.627000,  1.721300
  0.629000,  1.689700
  0.631000,  1.657600
  0.633000,  1.625000
  0.635000,  1.591800
  0.637000,  1.557900
  0.639000,  1.523300
  0.641000,  1.488100
  0.643000,  1.452400
  0.645000,  1.416300
  0.647000,  1.379500
  0.649000,  1.341900
  0.651000,  1.303800
  0.653000,  1.264800
  0.655000,  1.225100
  0.657000,  1.184700
  0.659000,  1.144000
  0.661000,  1.103000
  0.663000,  1.061100
  0.665000,  1.018400
  0.667000,  0.975400
  0.669000,  0.931900
  0.671000,  0.887900
  0.673000,  0.843500
  0.675000,  0.798700
  0.677000,  0.753500
  0.679000,  0.708100
  0.681000,  0.662200
  0.683000,  0.616100
  0.685000,  0.569900
  0.687000,  0.523600
  0.689000,  0.477100
  0.691000,  0.430500
  0.693000,  0.384000
  0.695000,  0.337700
  0.697000,  0.291600
  0.699000,  0.245400
  0.701000,  0.199600
  0.703000,  0.154200
  0.705000,  0.109300
  0.707000,  0.064700
  0.709000,  0.020700
  0.711000, -0.022700
  0.713000, -0.065500
  0.715000, -0.107600
  0.717000, -0.148900
  0.719000, -0.189500
  0.721000, -0.229300
  0.723000, -0.268100
  0.725000, -0.306000
  0.727000, -0.342900
  0.729000, -0.378800
  0.731000, -0.413500
  0.733000, -0.447200
  0.735000, -0.479700
  0.737000, -0.511000
  0.739000, -0.541200
  0.741000, -0.570200
  0.743000, -0.597900
  0.745000, -0.624400
  0.747000, -0.649900
  0.749000, -0.674000
  0.751000, -0.696800
  0.753000, -0.718300
  0.755000, -0.738600
  0.757000, -0.757500
  0.759000, -0.775000
  0.761000, -0.791100
  0.763000, -0.805800
  0.765000, -0.819300
  0.767000, -0.831400
  0.769000, -0.842400
  0.771000, -0.852100
  0.773000, -0.860400
  0.775000, -0.867500
  0.777000, -0.873500
  0.779000, -0.878300
  0.781000, -0.881800
  0.783000, -0.884000
  0.785000, -0.885000
  0.787000, -0.884900
  0.789000, -0.883600
  0.791000, -0.881200
  0.793000, -0.877700
  0.795000, -0.873200
  0.797000, -0.867700
  0.799000, -0.861000
  0.801000, -0.853300
  0.803000, -0.844500
  0.805000, -0.834600
  0.807000, -0.824000
  0.809000, -0.812400
  0.811000, -0.799700
  0.813000, -0.786300
  0.815000, -0.772100
  0.817000, -0.757000
  0.819000, -0.741000
  0.821000, -0.724500
  0.823000, -0.707400
  0.825000, -0.689500
  0.827000, -0.671000
  0.829000, -0.652000
  0.831000, -0.632300
  0.833000, -0.611900
  0.835000, -0.591100
  0.837000, -0.569600
  0.839000, -0.547600
  0.841000, -0.525400
  0.843000, -0.502800
  0.845000, -0.479900
  0.847000, -0.456800
  0.849000, -0.433500
  0.851000, -0.409900
  0.853000, -0.386100
  0.855000, -0.362100
  0.857000, -0.338100
  0.859000, -0.314000
  0.861000, -0.290100
  0.863000, -0.266200
  0.865000, -0.242400
  0.867000, -0.218800
  0.869000, -0.195200
  0.871000, -0.171800
  0.873000, -0.148700
  0.875000, -0.125700
  0.877000, -0.103200
  0.879000, -0.081000
  0.881000, -0.059100
  0.883000, -0.037600
  0.885000, -0.016500
  0.887000,  0.004000
  0.889000,  0.024000
  0.891000,  0.043500
  0.893000,  0.062600
  0.895000,  0.080900
  0.897000,  0.098600
  0.899000,  0.115800
  0.901000,  0.132500
  0.903000,  0.148400
  0.905000,  0.163400
  0.907000,  0.177900
  0.909000,  0.191800
  0.911000,  0.204900
  0.913000,  0.217300
  0.915000,  0.228800
  0.917000,  0.239700
  0.919000,  0.249800
  0.921000,  0.259000
  0.923000,  0.267500
  0.925000,  0.275400
  0.927000,  0.282500
  0.929000,  0.288700
  0.931000,  0.294300
  0.933000,  0.299100
  0.935000,  0.303200
  0.937000,  0.306300
  0.939000,  0.308700
  0.941000,  0.310300
  0.943000,  0.311400
  0.945000,  0.311600
  0.947000,  0.311100
  0.949000,  0.309900
  0.951000,  0.308000
  0.953000,  0.305300
  0.955000,  0.302100
  0.957000,  0.298300
  0.959000,  0.293800
  0.961000,  0.288600
  0.963000,  0.282900
  0.965000,  0.276500
  0.967000,  0.269600
  0.969000,  0.262100
  0.971000,  0.254100
  0.973000,  0.245400
  0.975000,  0.236100
  0.977000,  0.226400
  0.979000,  0.216100
  0.981000,  0.205300
  0.983000,  0.194000
  0.985000,  0.182400
  0.987000,  0.170400
  0.989000,  0.158100
  0.991000,  0.145600
  0.993000,  0.132700
  0.995000,  0.119600
  0.997000,  0.106200
  0.999000,  0.092600
  1.001000,  0.078700
  1.003000,  0.064700
  1.005000,  0.050500
  1.007000,  0.036200
  1.009000,  0.022000
  1.011000,  0.007900
  1.013000, -0.006200
  1.015000, -0.020300
  1.017000, -0.034300
  1.019000, -0.048300
  1.021000, -0.062000
  1.023000, -0.075500
  1.025000, -0.088900
  1.027000, -0.102100
  1.029000, -0.115100
  1.031000, -0.127800
  1.033000, -0.140200
  1.035000, -0.152300
  1.037000, -0.164000
  1.039000, -0.175300
  1.041000, -0.186100
  1.043000, -0.196400
  1.045000, -0.206300
  1.047000, -0.215700
  1.049000, -0.224700
  1.051000, -0.233100
  1.053000, -0.241100
  1.055000, -0.248600
  1.057000, -0.255700
  1.059000, -0.262200
  1.061000, -0.268200
  1.063000, -0.273700
  1.065000, -0.278700
  1.067000, -0.283200
  1.069000, -0.287100
  1.071000, -0.290600
  1.073000, -0.293600
  1.075000, -0.296100
  1.077000, -0.298100
  1.079000, -0.299700
  1.081000, -0.300700
  1.083000, -0.301200
  1.085000, -0.301400
  1.087000, -0.301100
  1.089000, -0.300400
  1.091000, -0.299500
  1.093000, -0.298100
  1.095000, -0.296500
  1.097000, -0.294600
  1.099000, -0.292300
  1.101000, -0.289600
  1.103000, -0.286800
  1.105000, -0.283500
  1.107000, -0.280000
  1.109000, -0.276300
  1.111000, -0.272400
  1.113000, -0.268300
  1.115000, -0.264000
  1.117000, -0.259600
  1.119000, -0.255100
  1.121000, -0.250300
  1.123000, -0.245100
  1.125000, -0.239800
  1.127000, -0.234500
  1.129000, -0.229000
  1.131000, -0.223400
  1.133000, -0.217700
  1.135000, -0.211900
  1.137000, -0.206000
  1.139000, -0.199900
  1.141000, -0.194000
  1.143000, -0.187900
  1.145000, -0.181600
  1.147000, -0.175100
  1.149000, -0.168700
  1.151000, -0.162200
  1.153000, -0.155700
  1.155000, -0.149300
  1.157000, -0.142800
  1.159000, -0.136400
  1.161000, -0.130100
  1.163000, -0.123600
  1.165000, -0.117200
  1.167000, -0.110900
  1.169000, -0.104600
  1.171000, -0.098300
  1.173000, -0.092100
  1.175000, -0.086000
  1.177000, -0.079900
  1.179000, -0.073900
  1.181000, -0.068100
  1.183000, -0.062100
  1.185000, -0.056300
  1.187000, -0.050600
  1.189000, -0.045100
  1.191000, -0.039700
  1.193000, -0.034400
  1.195000, -0.029000
  1.197000, -0.023900
  1.199000, -0.019000
  1.201000, -0.014300
  1.203000, -0.009900
  1.205000, -0.005400
  1.207000, -0.001100
  1.209000,  0.003000
  1.211000,  0.007000
  1.213000,  0.010800
  1.215000,  0.014400
  1.217000,  0.017900
  1.219000,  0.021300
  1.221000,  0.024400
  1.223000,  0.027400
  1.225000,  0.030100
  1.227000,  0.032700
  1.229000,  0.035000
  1.231000,  0.037100
  1.233000,  0.039300
  1.235000,  0.041200
  1.237000,  0.042900
  1.239000,  0.044400
  1.241000,  0.045700
  1.243000,  0.046800
  1.245000,  0.047800
  1.247000,  0.048600
  1.249000,  0.049300
  1.251000,  0.049800
  1.253000,  0.050100
  1.255000,  0.050300
  1.257000,  0.050300
  1.259000,  0.050100
  1.261000,  0.049800
  1.263000,  0.049400
  1.265000,  0.048800
  1.267000,  0.048000
  1.269000,  0.047000
  1.271000,  0.045900
  1.273000,  0.044800
  1.275000,  0.043400
  1.277000,  0.041700
  1.279000,  0.040000
  1.281000,  0.038200
  1.283000,  0.036200
  1.285000,  0.034100
  1.287000,  0.031900
  1.289000,  0.029600
  1.291000,  0.027300
  1.293000,  0.024800
  1.295000,  0.022100
  1.297000,  0.019300
  1.299000,  0.016400
  1.301000,  0.013400
  1.303000,  0.010400
  1.305000,  0.007300
  1.307000,  0.004200
  1.309000,  0.001300
  1.311000, -0.001700
  1.313000, -0.004800
  1.315000, -0.007800
  1.317000, -0.011100
  1.319000, -0.014600
  1.321000, -0.017800
  1.323000, -0.020900
  1.325000, -0.023900
  1.327000, -0.026900
  1.329000, -0.029800
  1.331000, -0.032500
  1.333000, -0.035100
  1.335000, -0.037700
  1.337000, -0.040000
  1.339000, -0.042100
  1.341000, -0.044200
  1.343000, -0.046000
  1.345000, -0.047700
  1.347000, -0.049200
  1.349000, -0.050500
  1.351000, -0.051600
  1.353000, -0.052500
  1.355000, -0.053300
  1.357000, -0.053700
  1.359000, -0.054000
  1.361000, -0.054100
  1.363000, -0.053900
  1.365000, -0.053500
  1.367000, -0.052800
  1.369000, -0.051800
  1.371000, -0.050600
  1.373000, -0.049300
  1.375000, -0.047700
  1.377000, -0.045900
  1.379000, -0.044000
  1.381000, -0.041900
  1.383000, -0.039600
  1.385000, -0.037100
  1.387000, -0.034500
  1.389000, -0.031900
  1.391000, -0.029500
  1.393000, -0.027300
  1.395000, -0.025200
  1.397000, -0.023000
  1.399000, -0.021300
