# z (nm)   (kJ/mol)
  0.257000, 14.206200
  0.259000, 13.953000
  0.261000, 13.726100
  0.263000, 13.531300
  0.265000, 13.335600
  0.267000, 13.110400
  0.269000, 12.876900
  0.271000, 12.640100
  0.273000, 12.400400
  0.275000, 12.162700
  0.277000, 11.933000
  0.279000, 11.700200
  0.281000, 11.462100
  0.283000, 11.229500
  0.285000, 10.998600
  0.287000, 10.768000
  0.289000, 10.540200
  0.291000, 10.312000
  0.293000, 10.091600
  0.295000,  9.874900
  0.297000,  9.653200
  0.299000,  9.435100
  0.301000,  9.224100
  0.303000,  9.017600
  0.305000,  8.815800
  0.307000,  8.622000
  0.309000,  8.430900
  0.311000,  8.243100
  0.313000,  8.061100
  0.315000,  7.881500
  0.317000,  7.709500
  0.319000,  7.544300
  0.321000,  7.382600
  0.323000,  7.227300
  0.325000,  7.078500
  0.327000,  6.931300
  0.329000,  6.788500
  0.331000,  6.651800
  0.333000,  6.520800
  0.335000,  6.395600
  0.337000,  6.275300
  0.339000,  6.162300
  0.341000,  6.054100
  0.343000,  5.948300
  0.345000,  5.846600
  0.347000,  5.749300
  0.349000,  5.656200
  0.351000,  5.567100
  0.353000,  5.482200
  0.355000,  5.401100
  0.357000,  5.323300
  0.359000,  5.248900
  0.361000,  5.178100
  0.363000,  5.111000
  0.365000,  5.047400
  0.367000,  4.986500
  0.369000,  4.927900
  0.371000,  4.872400
  0.373000,  4.819100
  0.375000,  4.767800
  0.377000,  4.718800
  0.379000,  4.671400
  0.381000,  4.625500
  0.383000,  4.580900
  0.385000,  4.537600
  0.387000,  4.495200
  0.389000,  4.453900
  0.391000,  4.413700
  0.393000,  4.373600
  0.395000,  4.333700
  0.397000,  4.294100
  0.399000,  4.254300
  0.401000,  4.214600
  0.403000,  4.175200
  0.405000,  4.135800
  0.407000,  4.095700
  0.409000,  4.054800
  0.411000,  4.013300
  0.413000,  3.971800
  0.415000,  3.929400
  0.417000,  3.885800
  0.419000,  3.841300
  0.421000,  3.795800
  0.423000,  3.748900
  0.425000,  3.700700
  0.427000,  3.651600
  0.429000,  3.601200
  0.431000,  3.549500
  0.433000,  3.496700
  0.435000,  3.442800
  0.437000,  3.387800
  0.439000,  3.331300
  0.441000,  3.273600
  0.443000,  3.214600
  0.445000,  3.154600
  0.447000,  3.093400
  0.449000,  3.031100
  0.451000,  2.967900
  0.453000,  2.903700
  0.455000,  2.838700
  0.457000,  2.773200
  0.459000,  2.706300
  0.461000,  2.638100
  0.463000,  2.569500
  0.465000,  2.500100
  0.467000,  2.429800
  0.469000,  2.358700
  0.471000,  2.287000
  0.473000,  2.214600
  0.475000,  2.141800
  0.477000,  2.069100
  0.479000,  1.995500
  0.481000,  1.921700
  0.483000,  1.847900
  0.485000,  1.773500
  0.487000,  1.698800
  0.489000,  1.623900
  0.491000,  1.549000
  0.493000,  1.473700
  0.495000,  1.398400
  0.497000,  1.323200
  0.499000,  1.247900
  0.501000,  1.172600
  0.503000,  1.097300
  0.505000,  1.022200
  0.507000,  0.947200
  0.509000,  0.872600
  0.511000,  0.798500
  0.513000,  0.724400
  0.515000,  0.650500
  0.517000,  0.576900
  0.519000,  0.504000
  0.521000,  0.431500
  0.523000,  0.359500
  0.525000,  0.288500
  0.527000,  0.217900
  0.529000,  0.147900
  0.531000,  0.078800
  0.533000,  0.010700
  0.535000, -0.056500
  0.537000, -0.122800
  0.539000, -0.187900
  0.541000, -0.252200
  0.543000, -0.315400
  0.545000, -0.376900
  0.547000, -0.437100
  0.549000, -0.495500
  0.551000, -0.552700
  0.553000, -0.608400
  0.555000, -0.662300
  0.557000, -0.714300
  0.559000, -0.764400
  0.561000, -0.812600
  0.563000, -0.858700
  0.565000, -0.903000
  0.567000, -0.945100
  0.569000, -0.985000
  0.571000, -1.022700
  0.573000, -1.058200
  0.575000, -1.091400
  0.577000, -1.122300
  0.579000, -1.150600
  0.581000, -1.176400
  0.583000, -1.199600
  0.585000, -1.220300
  0.587000, -1.238300
  0.589000, -1.253800
  0.591000, -1.266600
  0.593000, -1.276900
  0.595000, -1.284500
  0.597000, -1.289400
  0.599000, -1.291600
  0.601000, -1.291200
  0.603000, -1.288200
  0.605000, -1.282700
  0.607000, -1.274700
  0.609000, -1.264200
  0.611000, -1.251100
  0.613000, -1.235800
  0.615000, -1.218200
  0.617000, -1.198300
  0.619000, -1.176200
  0.621000, -1.152200
  0.623000, -1.126100
  0.625000, -1.097900
  0.627000, -1.067900
  0.629000, -1.036500
  0.631000, -1.003100
  0.633000, -0.968200
  0.635000, -0.931800
  0.637000, -0.894100
  0.639000, -0.855200
  0.641000, -0.815100
  0.643000, -0.774100
  0.645000, -0.732100
  0.647000, -0.689200
  0.649000, -0.645500
  0.651000, -0.601500
  0.653000, -0.556600
  0.655000, -0.511000
  0.657000, -0.465300
  0.659000, -0.419400
  0.661000, -0.373200
  0.663000, -0.326800
  0.665000, -0.280300
  0.667000, -0.234100
  0.669000, -0.188400
  0.671000, -0.142800
  0.673000, -0.097100
  0.675000, -0.052000
  0.677000, -0.007400
  0.679000,  0.036700
  0.681000,  0.080400
  0.683000,  0.123400
  0.685000,  0.165800
  0.687000,  0.207400
  0.689000,  0.248400
  0.691000,  0.288400
  0.693000,  0.327700
  0.695000,  0.366200
  0.697000,  0.403700
  0.699000,  0.440100
  0.701000,  0.475600
  0.703000,  0.510000
  0.705000,  0.543100
  0.707000,  0.575300
  0.709000,  0.606600
  0.711000,  0.636600
  0.713000,  0.665600
  0.715000,  0.693400
  0.717000,  0.720100
  0.719000,  0.745500
  0.721000,  0.769700
  0.723000,  0.792700
  0.725000,  0.814400
  0.727000,  0.834900
  0.729000,  0.854300
  0.731000,  0.872300
  0.733000,  0.889100
  0.735000,  0.904700
  0.737000,  0.918900
  0.739000,  0.931900
  0.741000,  0.943700
  0.743000,  0.954300
  0.745000,  0.963700
  0.747000,  0.971900
  0.749000,  0.978700
  0.751000,  0.984200
  0.753000,  0.988700
  0.755000,  0.992000
  0.757000,  0.994000
  0.759000,  0.994800
  0.761000,  0.994400
  0.763000,  0.992900
  0.765000,  0.990400
  0.767000,  0.986600
  0.769000,  0.981800
  0.771000,  0.975900
  0.773000,  0.968900
  0.775000,  0.961000
  0.777000,  0.952100
  0.779000,  0.942100
  0.781000,  0.931100
  0.783000,  0.919200
  0.785000,  0.906200
  0.787000,  0.892200
  0.789000,  0.877500
  0.791000,  0.862100
  0.793000,  0.845800
  0.795000,  0.828900
  0.797000,  0.811300
  0.799000,  0.793100
  0.801000,  0.774400
  0.803000,  0.754900
  0.805000,  0.734900
  0.807000,  0.714400
  0.809000,  0.693500
  0.811000,  0.672200
  0.813000,  0.650400
  0.815000,  0.628200
  0.817000,  0.605900
  0.819000,  0.583400
  0.821000,  0.560600
  0.823000,  0.537500
  0.825000,  0.514400
  0.827000,  0.491300
  0.829000,  0.468100
  0.831000,  0.444800
  0.833000,  0.421600
  0.835000,  0.398400
  0.837000,  0.375300
  0.839000,  0.352400
  0.841000,  0.329600
  0.843000,  0.307000
  0.845000,  0.284800
  0.847000,  0.262900
  0.849000,  0.241500
  0.851000,  0.220300
  0.853000,  0.199600
  0.855000,  0.179300
  0.857000,  0.159500
  0.859000,  0.140100
  0.861000,  0.121300
  0.863000,  0.103000
  0.865000,  0.085400
  0.867000,  0.068400
  0.869000,  0.052000
  0.871000,  0.036200
  0.873000,  0.021100
  0.875000,  0.006700
  0.877000, -0.007100
  0.879000, -0.020200
  0.881000, -0.032600
  0.883000, -0.044300
  0.885000, -0.055200
  0.887000, -0.065400
  0.889000, -0.074900
  0.891000, -0.083700
  0.893000, -0.091700
  0.895000, -0.098900
  0.897000, -0.105300
  0.899000, -0.111000
  0.901000, -0.116000
  0.903000, -0.120200
  0.905000, -0.123600
  0.907000, -0.126300
  0.909000, -0.128300
  0.911000, -0.129600
  0.913000, -0.130300
  0.915000, -0.130200
  0.917000, -0.129500
  0.919000, -0.128100
  0.921000, -0.126100
  0.923000, -0.123500
  0.925000, -0.120200
  0.927000, -0.116400
  0.929000, -0.112000
  0.931000, -0.107000
  0.933000, -0.101600
  0.935000, -0.095700
  0.937000, -0.089400
  0.939000, -0.082600
  0.941000, -0.075300
  0.943000, -0.067700
  0.945000, -0.059800
  0.947000, -0.051500
  0.949000, -0.043000
  0.951000, -0.034200
  0.953000, -0.025100
  0.955000, -0.015800
  0.957000, -0.006400
  0.959000,  0.003100
  0.961000,  0.012800
  0.963000,  0.022600
  0.965000,  0.032300
  0.967000,  0.042300
  0.969000,  0.052200
  0.971000,  0.062100
  0.973000,  0.071900
  0.975000,  0.081700
  0.977000,  0.091400
  0.979000,  0.100900
  0.981000,  0.110400
  0.983000,  0.119800
  0.985000,  0.129100
  0.987000,  0.138200
  0.989000,  0.147000
  0.991000,  0.155600
  0.993000,  0.164000
  0.995000,  0.172200
  0.997000,  0.180000
  0.999000,  0.187600
  1.001000,  0.194900
  1.003000,  0.202100
  1.005000,  0.208900
  1.007000,  0.215400
  1.009000,  0.221700
  1.011000,  0.227500
  1.013000,  0.233100
  1.015000,  0.238300
  1.017000,  0.243100
  1.019000,  0.247600
  1.021000,  0.251900
  1.023000,  0.255900
  1.025000,  0.259500
  1.027000,  0.262700
  1.029000,  0.265800
  1.031000,  0.268600
  1.033000,  0.270900
  1.035000,  0.273000
  1.037000,  0.274900
  1.039000,  0.276400
  1.041000,  0.277700
  1.043000,  0.278700
  1.045000,  0.279500
  1.047000,  0.279900
  1.049000,  0.280100
  1.051000,  0.280200
  1.053000,  0.280000
  1.055000,  0.279400
  1.057000,  0.278600
  1.059000,  0.277600
  1.061000,  0.276400
  1.063000,  0.275100
  1.065000,  0.273500
  1.067000,  0.271800
  1.069000,  0.269900
  1.071000,  0.267800
  1.073000,  0.265500
  1.075000,  0.263100
  1.077000,  0.260500
  1.079000,  0.257800
  1.081000,  0.255000
  1.083000,  0.251800
  1.085000,  0.248400
  1.087000,  0.245000
  1.089000,  0.241500
  1.091000,  0.237700
  1.093000,  0.233900
  1.095000,  0.229900
  1.097000,  0.225800
  1.099000,  0.221600
  1.101000,  0.217200
  1.103000,  0.212600
  1.105000,  0.207900
  1.107000,  0.203200
  1.109000,  0.198300
  1.111000,  0.193400
  1.113000,  0.188200
  1.115000,  0.182900
  1.117000,  0.177600
  1.119000,  0.172200
  1.121000,  0.166700
  1.123000,  0.161200
  1.125000,  0.155600
  1.127000,  0.149900
  1.129000,  0.144200
  1.131000,  0.138500
  1.133000,  0.132900
  1.135000,  0.127200
  1.137000,  0.121400
  1.139000,  0.115500
  1.141000,  0.109600
  1.143000,  0.103700
  1.145000,  0.097700
  1.147000,  0.091900
  1.149000,  0.086000
  1.151000,  0.080200
  1.153000,  0.074500
  1.155000,  0.068800
  1.157000,  0.063100
  1.159000,  0.057600
  1.161000,  0.052100
  1.163000,  0.046600
  1.165000,  0.041200
  1.167000,  0.035900
  1.169000,  0.030700
  1.171000,  0.025500
  1.173000,  0.020500
  1.175000,  0.015700
  1.177000,  0.010900
  1.179000,  0.006300
  1.181000,  0.001700
  1.183000, -0.002500
  1.185000, -0.006600
  1.187000, -0.010600
  1.189000, -0.014500
  1.191000, -0.018300
  1.193000, -0.021800
  1.195000, -0.025300
  1.197000, -0.028500
  1.199000, -0.031500
  1.201000, -0.034500
  1.203000, -0.037200
  1.205000, -0.039700
  1.207000, -0.042100
  1.209000, -0.044400
  1.211000, -0.046400
  1.213000, -0.048200
  1.215000, -0.050000
  1.217000, -0.051500
  1.219000, -0.052900
  1.221000, -0.054100
  1.223000, -0.055200
  1.225000, -0.056000
  1.227000, -0.056800
  1.229000, -0.057500
  1.231000, -0.058000
  1.233000, -0.058500
  1.235000, -0.058800
  1.237000, -0.059000
  1.239000, -0.059000
  1.241000, -0.058800
  1.243000, -0.058500
  1.245000, -0.058100
  1.247000, -0.057600
  1.249000, -0.057000
  1.251000, -0.056300
  1.253000, -0.055500
  1.255000, -0.054500
  1.257000, -0.053400
  1.259000, -0.052200
  1.261000, -0.050900
  1.263000, -0.049600
  1.265000, -0.048200
  1.267000, -0.046700
  1.269000, -0.045100
  1.271000, -0.043500
  1.273000, -0.041800
  1.275000, -0.040000
  1.277000, -0.038100
  1.279000, -0.036200
  1.281000, -0.034300
  1.283000, -0.032300
  1.285000, -0.030200
  1.287000, -0.028100
  1.289000, -0.025800
  1.291000, -0.023600
  1.293000, -0.021400
  1.295000, -0.019100
  1.297000, -0.016800
  1.299000, -0.014400
  1.301000, -0.012000
  1.303000, -0.009700
  1.305000, -0.007200
  1.307000, -0.004800
  1.309000, -0.002300
  1.311000,  0.000200
  1.313000,  0.002700
  1.315000,  0.005300
  1.317000,  0.007900
  1.319000,  0.010500
  1.321000,  0.013100
  1.323000,  0.015700
  1.325000,  0.018400
  1.327000,  0.021100
  1.329000,  0.023600
  1.331000,  0.026200
  1.333000,  0.028900
  1.335000,  0.031500
  1.337000,  0.034100
  1.339000,  0.036800
  1.341000,  0.039500
  1.343000,  0.042200
  1.345000,  0.044900
  1.347000,  0.047400
  1.349000,  0.050000
  1.351000,  0.052500
  1.353000,  0.055100
  1.355000,  0.057600
  1.357000,  0.060100
  1.359000,  0.062500
  1.361000,  0.064800
  1.363000,  0.067100
  1.365000,  0.069400
  1.367000,  0.071600
  1.369000,  0.073500
  1.371000,  0.075400
  1.373000,  0.077300
  1.375000,  0.079000
  1.377000,  0.080400
  1.379000,  0.081700
  1.381000,  0.082700
  1.383000,  0.083600
  1.385000,  0.084300
  1.387000,  0.084600
  1.389000,  0.084700
  1.391000,  0.084400
  1.393000,  0.083900
  1.395000,  0.082700
  1.397000,  0.081200
  1.399000,  0.079400
