# z (nm)   (kJ/mol)
  0.267000,  9.189200
  0.269000,  8.862200
  0.271000,  8.538000
  0.273000,  8.151200
  0.275000,  7.776600
  0.277000,  7.414700
  0.279000,  7.060100
  0.281000,  6.707600
  0.283000,  6.350200
  0.285000,  6.005400
  0.287000,  5.661400
  0.289000,  5.317500
  0.291000,  4.971700
  0.293000,  4.646200
  0.295000,  4.336900
  0.297000,  4.030800
  0.299000,  3.733700
  0.301000,  3.450200
  0.303000,  3.176000
  0.305000,  2.911900
  0.307000,  2.660500
  0.309000,  2.414500
  0.311000,  2.180700
  0.313000,  1.963200
  0.315000,  1.757600
  0.317000,  1.563700
  0.319000,  1.382500
  0.321000,  1.213500
  0.323000,  1.057900
  0.325000,  0.915400
  0.327000,  0.783700
  0.329000,  0.664300
  0.331000,  0.557900
  0.333000,  0.464600
  0.335000,  0.383900
  0.337000,  0.314400
  0.339000,  0.255900
  0.341000,  0.208500
  0.343000,  0.172100
  0.345000,  0.146400
  0.347000,  0.131000
  0.349000,  0.125200
  0.351000,  0.128900
  0.353000,  0.142800
  0.355000,  0.165400
  0.357000,  0.195200
  0.359000,  0.233800
  0.361000,  0.280800
  0.363000,  0.334700
  0.365000,  0.394200
  0.367000,  0.459200
  0.369000,  0.529800
  0.371000,  0.606000
  0.373000,  0.686700
  0.375000,  0.771000
  0.377000,  0.859300
  0.379000,  0.950700
  0.381000,  1.043300
  0.383000,  1.137900
  0.385000,  1.236000
  0.387000,  1.336800
  0.389000,  1.437700
  0.391000,  1.537900
  0.393000,  1.637900
  0.395000,  1.737400
  0.397000,  1.835000
  0.399000,  1.930600
  0.401000,  2.024700
  0.403000,  2.115600
  0.405000,  2.204300
  0.407000,  2.290000
  0.409000,  2.371100
  0.411000,  2.448500
  0.413000,  2.522500
  0.415000,  2.592100
  0.417000,  2.657800
  0.419000,  2.719100
  0.421000,  2.775600
  0.423000,  2.827800
  0.425000,  2.875500
  0.427000,  2.918000
  0.429000,  2.955700
  0.431000,  2.989200
  0.433000,  3.017600
  0.435000,  3.041800
  0.437000,  3.061400
  0.439000,  3.076100
  0.441000,  3.086300
  0.443000,  3.091700
  0.445000,  3.092900
  0.447000,  3.090100
  0.449000,  3.083400
  0.451000,  3.072700
  0.453000,  3.057800
  0.455000,  3.039300
  0.457000,  3.017700
  0.459000,  2.991900
  0.461000,  2.962300
  0.463000,  2.928900
  0.465000,  2.892100
  0.467000,  2.852400
  0.469000,  2.810000
  0.471000,  2.764900
  0.473000,  2.717000
  0.475000,  2.666100
  0.477000,  2.611900
  0.479000,  2.555700
  0.481000,  2.496900
  0.483000,  2.436300
  0.485000,  2.375000
  0.487000,  2.310800
  0.489000,  2.244000
  0.491000,  2.175400
  0.493000,  2.104600
  0.495000,  2.031600
  0.497000,  1.957100
  0.499000,  1.881300
  0.501000,  1.804200
  0.503000,  1.726200
  0.505000,  1.646200
  0.507000,  1.564300
  0.509000,  1.481900
  0.511000,  1.399300
  0.513000,  1.315600
  0.515000,  1.230300
  0.517000,  1.144200
  0.519000,  1.057400
  0.521000,  0.970000
  0.523000,  0.882400
  0.525000,  0.794400
  0.527000,  0.706000
  0.529000,  0.617800
  0.531000,  0.530100
  0.533000,  0.442200
  0.535000,  0.354100
  0.537000,  0.266600
  0.539000,  0.180300
  0.541000,  0.094700
  0.543000,  0.009800
  0.545000, -0.074000
  0.547000, -0.156800
  0.549000, -0.238500
  0.551000, -0.318900
  0.553000, -0.398000
  0.555000, -0.476000
  0.557000, -0.552100
  0.559000, -0.626500
  0.561000, -0.699500
  0.563000, -0.769900
  0.565000, -0.838200
  0.567000, -0.904900
  0.569000, -0.969800
  0.571000, -1.032500
  0.573000, -1.092900
  0.575000, -1.151100
  0.577000, -1.206900
  0.579000, -1.260500
  0.581000, -1.311500
  0.583000, -1.360000
  0.585000, -1.405900
  0.587000, -1.449300
  0.589000, -1.490000
  0.591000, -1.528000
  0.593000, -1.563400
  0.595000, -1.596200
  0.597000, -1.626300
  0.599000, -1.653800
  0.601000, -1.678600
  0.603000, -1.700900
  0.605000, -1.720300
  0.607000, -1.737300
  0.609000, -1.751700
  0.611000, -1.763700
  0.613000, -1.773200
  0.615000, -1.780400
  0.617000, -1.785300
  0.619000, -1.787800
  0.621000, -1.787800
  0.623000, -1.785700
  0.625000, -1.781600
  0.627000, -1.775500
  0.629000, -1.767300
  0.631000, -1.757200
  0.633000, -1.745500
  0.635000, -1.732200
  0.637000, -1.717300
  0.639000, -1.700800
  0.641000, -1.682800
  0.643000, -1.663600
  0.645000, -1.643200
  0.647000, -1.621500
  0.649000, -1.598400
  0.651000, -1.574400
  0.653000, -1.549500
  0.655000, -1.523800
  0.657000, -1.497300
  0.659000, -1.470100
  0.661000, -1.442200
  0.663000, -1.413700
  0.665000, -1.384600
  0.667000, -1.355100
  0.669000, -1.325200
  0.671000, -1.294800
  0.673000, -1.264100
  0.675000, -1.233100
  0.677000, -1.202200
  0.679000, -1.171000
  0.681000, -1.139700
  0.683000, -1.108300
  0.685000, -1.077000
  0.687000, -1.045700
  0.689000, -1.014300
  0.691000, -0.983100
  0.693000, -0.951900
  0.695000, -0.920900
  0.697000, -0.889900
  0.699000, -0.859100
  0.701000, -0.828500
  0.703000, -0.797900
  0.705000, -0.767600
  0.707000, -0.737500
  0.709000, -0.707400
  0.711000, -0.677600
  0.713000, -0.648000
  0.715000, -0.618600
  0.717000, -0.589500
  0.719000, -0.560500
  0.721000, -0.531800
  0.723000, -0.503500
  0.725000, -0.475400
  0.727000, -0.447600
  0.729000, -0.420200
  0.731000, -0.393000
  0.733000, -0.366200
  0.735000, -0.339700
  0.737000, -0.313600
  0.739000, -0.287800
  0.741000, -0.262500
  0.743000, -0.237500
  0.745000, -0.213000
  0.747000, -0.189000
  0.749000, -0.165400
  0.751000, -0.142300
  0.753000, -0.119700
  0.755000, -0.097600
  0.757000, -0.076100
  0.759000, -0.055200
  0.761000, -0.035000
  0.763000, -0.015300
  0.765000,  0.003800
  0.767000,  0.022200
  0.769000,  0.039900
  0.771000,  0.057000
  0.773000,  0.073600
  0.775000,  0.089300
  0.777000,  0.104200
  0.779000,  0.118300
  0.781000,  0.131600
  0.783000,  0.144300
  0.785000,  0.156100
  0.787000,  0.167000
  0.789000,  0.177100
  0.791000,  0.186500
  0.793000,  0.195100
  0.795000,  0.202800
  0.797000,  0.209600
  0.799000,  0.215600
  0.801000,  0.221000
  0.803000,  0.225500
  0.805000,  0.229200
  0.807000,  0.232200
  0.809000,  0.234400
  0.811000,  0.235800
  0.813000,  0.236400
  0.815000,  0.236300
  0.817000,  0.235400
  0.819000,  0.233700
  0.821000,  0.231300
  0.823000,  0.228400
  0.825000,  0.224900
  0.827000,  0.220600
  0.829000,  0.215600
  0.831000,  0.209900
  0.833000,  0.203700
  0.835000,  0.197100
  0.837000,  0.189900
  0.839000,  0.182300
  0.841000,  0.174400
  0.843000,  0.166200
  0.845000,  0.157500
  0.847000,  0.148400
  0.849000,  0.139000
  0.851000,  0.129300
  0.853000,  0.119300
  0.855000,  0.109200
  0.857000,  0.098800
  0.859000,  0.088300
  0.861000,  0.077600
  0.863000,  0.066800
  0.865000,  0.056100
  0.867000,  0.045300
  0.869000,  0.034400
  0.871000,  0.023600
  0.873000,  0.012800
  0.875000,  0.002100
  0.877000, -0.008500
  0.879000, -0.019000
  0.881000, -0.029300
  0.883000, -0.039600
  0.885000, -0.049600
  0.887000, -0.059400
  0.889000, -0.068800
  0.891000, -0.078000
  0.893000, -0.087100
  0.895000, -0.095900
  0.897000, -0.104300
  0.899000, -0.112300
  0.901000, -0.119800
  0.903000, -0.127000
  0.905000, -0.133900
  0.907000, -0.140700
  0.909000, -0.147200
  0.911000, -0.153400
  0.913000, -0.159200
  0.915000, -0.164500
  0.917000, -0.169600
  0.919000, -0.174300
  0.921000, -0.178700
  0.923000, -0.182900
  0.925000, -0.186700
  0.927000, -0.190300
  0.929000, -0.193500
  0.931000, -0.196300
  0.933000, -0.199000
  0.935000, -0.201300
  0.937000, -0.203400
  0.939000, -0.205200
  0.941000, -0.206700
  0.943000, -0.208100
  0.945000, -0.209100
  0.947000, -0.210000
  0.949000, -0.210700
  0.951000, -0.211200
  0.953000, -0.211500
  0.955000, -0.211600
  0.957000, -0.211500
  0.959000, -0.211300
  0.961000, -0.210900
  0.963000, -0.210400
  0.965000, -0.209800
  0.967000, -0.209000
  0.969000, -0.208100
  0.971000, -0.206900
  0.973000, -0.205700
  0.975000, -0.204300
  0.977000, -0.202900
  0.979000, -0.201300
  0.981000, -0.199500
  0.983000, -0.197700
  0.985000, -0.195800
  0.987000, -0.193700
  0.989000, -0.191600
  0.991000, -0.189400
  0.993000, -0.187100
  0.995000, -0.184700
  0.997000, -0.182100
  0.999000, -0.179400
  1.001000, -0.176700
  1.003000, -0.173800
  1.005000, -0.170900
  1.007000, -0.167800
  1.009000, -0.164500
  1.011000, -0.161100
  1.013000, -0.157600
  1.015000, -0.154100
  1.017000, -0.150400
  1.019000, -0.146600
  1.021000, -0.142600
  1.023000, -0.138400
  1.025000, -0.134300
  1.027000, -0.130300
  1.029000, -0.126000
  1.031000, -0.121600
  1.033000, -0.117100
  1.035000, -0.112400
  1.037000, -0.107500
  1.039000, -0.102600
  1.041000, -0.097500
  1.043000, -0.092500
  1.045000, -0.087500
  1.047000, -0.082500
  1.049000, -0.077600
  1.051000, -0.072500
  1.053000, -0.067400
  1.055000, -0.062300
  1.057000, -0.057100
  1.059000, -0.052000
  1.061000, -0.047100
  1.063000, -0.042200
  1.065000, -0.037300
  1.067000, -0.032400
  1.069000, -0.027500
  1.071000, -0.022700
  1.073000, -0.018100
  1.075000, -0.013500
  1.077000, -0.008800
  1.079000, -0.004400
  1.081000, -0.000000
  1.083000,  0.004100
  1.085000,  0.008100
  1.087000,  0.012000
  1.089000,  0.015600
  1.091000,  0.019100
  1.093000,  0.022500
  1.095000,  0.025600
  1.097000,  0.028600
  1.099000,  0.031400
  1.101000,  0.034100
  1.103000,  0.036500
  1.105000,  0.038700
  1.107000,  0.040900
  1.109000,  0.042800
  1.111000,  0.044600
  1.113000,  0.046200
  1.115000,  0.047600
  1.117000,  0.048800
  1.119000,  0.049800
  1.121000,  0.050700
  1.123000,  0.051400
  1.125000,  0.052000
  1.127000,  0.052400
  1.129000,  0.052700
  1.131000,  0.052900
  1.133000,  0.053000
  1.135000,  0.052900
  1.137000,  0.052800
  1.139000,  0.052400
  1.141000,  0.052000
  1.143000,  0.051600
  1.145000,  0.051100
  1.147000,  0.050400
  1.149000,  0.049600
  1.151000,  0.048800
  1.153000,  0.048000
  1.155000,  0.047200
  1.157000,  0.046300
  1.159000,  0.045400
  1.161000,  0.044500
  1.163000,  0.043600
  1.165000,  0.042600
  1.167000,  0.041700
  1.169000,  0.040900
  1.171000,  0.040000
  1.173000,  0.039100
  1.175000,  0.038200
  1.177000,  0.037400
  1.179000,  0.036600
  1.181000,  0.035900
  1.183000,  0.035300
  1.185000,  0.034600
  1.187000,  0.034000
  1.189000,  0.033400
  1.191000,  0.032900
  1.193000,  0.032400
  1.195000,  0.031900
  1.197000,  0.031500
  1.199000,  0.031100
  1.201000,  0.030800
  1.203000,  0.030500
  1.205000,  0.030300
  1.207000,  0.030100
  1.209000,  0.030100
  1.211000,  0.030000
  1.213000,  0.029900
  1.215000,  0.029800
  1.217000,  0.029700
  1.219000,  0.029600
  1.221000,  0.029400
  1.223000,  0.029300
  1.225000,  0.029200
  1.227000,  0.029100
  1.229000,  0.029000
  1.231000,  0.028900
  1.233000,  0.028600
  1.235000,  0.028300
  1.237000,  0.028000
  1.239000,  0.027700
  1.241000,  0.027200
  1.243000,  0.026600
  1.245000,  0.025900
  1.247000,  0.025200
  1.249000,  0.024500
  1.251000,  0.023700
  1.253000,  0.022700
  1.255000,  0.021700
  1.257000,  0.020700
  1.259000,  0.019600
  1.261000,  0.018400
  1.263000,  0.017000
  1.265000,  0.015600
  1.267000,  0.014200
  1.269000,  0.012600
  1.271000,  0.011000
  1.273000,  0.009400
  1.275000,  0.007700
  1.277000,  0.005900
  1.279000,  0.004000
  1.281000,  0.002000
  1.283000, -0.000000
  1.285000, -0.002000
  1.287000, -0.003900
  1.289000, -0.005900
  1.291000, -0.007900
  1.293000, -0.009900
  1.295000, -0.011900
  1.297000, -0.013900
  1.299000, -0.015900
  1.301000, -0.017900
  1.303000, -0.019800
  1.305000, -0.021500
  1.307000, -0.023300
  1.309000, -0.025000
  1.311000, -0.026600
  1.313000, -0.028100
  1.315000, -0.029500
  1.317000, -0.030800
  1.319000, -0.031900
  1.321000, -0.032800
  1.323000, -0.033600
  1.325000, -0.034300
  1.327000, -0.034800
  1.329000, -0.035100
  1.331000, -0.035200
  1.333000, -0.035200
  1.335000, -0.035000
  1.337000, -0.034700
  1.339000, -0.034100
  1.341000, -0.033400
  1.343000, -0.032500
  1.345000, -0.031600
  1.347000, -0.030500
  1.349000, -0.029200
  1.351000, -0.027700
  1.353000, -0.026200
  1.355000, -0.024500
  1.357000, -0.022700
  1.359000, -0.020700
  1.361000, -0.018600
  1.363000, -0.016600
  1.365000, -0.014400
  1.367000, -0.012300
  1.369000, -0.010100
  1.371000, -0.007900
  1.373000, -0.005800
  1.375000, -0.003600
  1.377000, -0.001500
  1.379000,  0.000700
  1.381000,  0.002600
  1.383000,  0.004500
  1.385000,  0.006200
  1.387000,  0.007800
  1.389000,  0.009200
  1.391000,  0.010300
  1.393000,  0.011100
  1.395000,  0.011500
  1.397000,  0.011500
  1.399000,  0.011100
