# z (nm)   (kJ/mol)
  0.263000, 11.615300
  0.265000, 11.334600
  0.267000, 11.054400
  0.269000, 10.736100
  0.271000, 10.417900
  0.273000, 10.113600
  0.275000,  9.803600
  0.277000,  9.489400
  0.279000,  9.176400
  0.281000,  8.865600
  0.283000,  8.545000
  0.285000,  8.222300
  0.287000,  7.902400
  0.289000,  7.585100
  0.291000,  7.272800
  0.293000,  6.966100
  0.295000,  6.661700
  0.297000,  6.358500
  0.299000,  6.061300
  0.301000,  5.768000
  0.303000,  5.481900
  0.305000,  5.207000
  0.307000,  4.938700
  0.309000,  4.676200
  0.311000,  4.422900
  0.313000,  4.174900
  0.315000,  3.931600
  0.317000,  3.698900
  0.319000,  3.474200
  0.321000,  3.257600
  0.323000,  3.052700
  0.325000,  2.858900
  0.327000,  2.674400
  0.329000,  2.496600
  0.331000,  2.327400
  0.333000,  2.168900
  0.335000,  2.020300
  0.337000,  1.880300
  0.339000,  1.749400
  0.341000,  1.628200
  0.343000,  1.516600
  0.345000,  1.414200
  0.347000,  1.321500
  0.349000,  1.237000
  0.351000,  1.161600
  0.353000,  1.094900
  0.355000,  1.036000
  0.357000,  0.986100
  0.359000,  0.944800
  0.361000,  0.912000
  0.363000,  0.887600
  0.365000,  0.870900
  0.367000,  0.861600
  0.369000,  0.859700
  0.371000,  0.864800
  0.373000,  0.876300
  0.375000,  0.894200
  0.377000,  0.918400
  0.379000,  0.948500
  0.381000,  0.984000
  0.383000,  1.025100
  0.385000,  1.071000
  0.387000,  1.119900
  0.389000,  1.172100
  0.391000,  1.228500
  0.393000,  1.288000
  0.395000,  1.350400
  0.397000,  1.416100
  0.399000,  1.484100
  0.401000,  1.553400
  0.403000,  1.623200
  0.405000,  1.694100
  0.407000,  1.765800
  0.409000,  1.837700
  0.411000,  1.909900
  0.413000,  1.981900
  0.415000,  2.052900
  0.417000,  2.122700
  0.419000,  2.190800
  0.421000,  2.257300
  0.423000,  2.321800
  0.425000,  2.382900
  0.427000,  2.441500
  0.429000,  2.497500
  0.431000,  2.550700
  0.433000,  2.600400
  0.435000,  2.646500
  0.437000,  2.689300
  0.439000,  2.728100
  0.441000,  2.763000
  0.443000,  2.794000
  0.445000,  2.821100
  0.447000,  2.844100
  0.449000,  2.862600
  0.451000,  2.877000
  0.453000,  2.887700
  0.455000,  2.894000
  0.457000,  2.895700
  0.459000,  2.893200
  0.461000,  2.886800
  0.463000,  2.876200
  0.465000,  2.861500
  0.467000,  2.843000
  0.469000,  2.820000
  0.471000,  2.793100
  0.473000,  2.762600
  0.475000,  2.728100
  0.477000,  2.690400
  0.479000,  2.648800
  0.481000,  2.602700
  0.483000,  2.553100
  0.485000,  2.500700
  0.487000,  2.445300
  0.489000,  2.386100
  0.491000,  2.324600
  0.493000,  2.260800
  0.495000,  2.193600
  0.497000,  2.124700
  0.499000,  2.053600
  0.501000,  1.979800
  0.503000,  1.903900
  0.505000,  1.826500
  0.507000,  1.747700
  0.509000,  1.666800
  0.511000,  1.584600
  0.513000,  1.500900
  0.515000,  1.415400
  0.517000,  1.329100
  0.519000,  1.242400
  0.521000,  1.154900
  0.523000,  1.067000
  0.525000,  0.979000
  0.527000,  0.891100
  0.529000,  0.803000
  0.531000,  0.713700
  0.533000,  0.625300
  0.535000,  0.537600
  0.537000,  0.449200
  0.539000,  0.362100
  0.541000,  0.277000
  0.543000,  0.192400
  0.545000,  0.108300
  0.547000,  0.025100
  0.549000, -0.056500
  0.551000, -0.136400
  0.553000, -0.214400
  0.555000, -0.290600
  0.557000, -0.365200
  0.559000, -0.437600
  0.561000, -0.508200
  0.563000, -0.576800
  0.565000, -0.643500
  0.567000, -0.707900
  0.569000, -0.769900
  0.571000, -0.829300
  0.573000, -0.886300
  0.575000, -0.940700
  0.577000, -0.992600
  0.579000, -1.042300
  0.581000, -1.088900
  0.583000, -1.132800
  0.585000, -1.174100
  0.587000, -1.212700
  0.589000, -1.248500
  0.591000, -1.281400
  0.593000, -1.311900
  0.595000, -1.339700
  0.597000, -1.364500
  0.599000, -1.386700
  0.601000, -1.406100
  0.603000, -1.422800
  0.605000, -1.437000
  0.607000, -1.448800
  0.609000, -1.458100
  0.611000, -1.464900
  0.613000, -1.469200
  0.615000, -1.471200
  0.617000, -1.471100
  0.619000, -1.469000
  0.621000, -1.464700
  0.623000, -1.458000
  0.625000, -1.449500
  0.627000, -1.439400
  0.629000, -1.427900
  0.631000, -1.414300
  0.633000, -1.399100
  0.635000, -1.382800
  0.637000, -1.365100
  0.639000, -1.346100
  0.641000, -1.325700
  0.643000, -1.304100
  0.645000, -1.281500
  0.647000, -1.258200
  0.649000, -1.233800
  0.651000, -1.208400
  0.653000, -1.182700
  0.655000, -1.156600
  0.657000, -1.130000
  0.659000, -1.103300
  0.661000, -1.076400
  0.663000, -1.048800
  0.665000, -1.021200
  0.667000, -0.993500
  0.669000, -0.965500
  0.671000, -0.937500
  0.673000, -0.909900
  0.675000, -0.882600
  0.677000, -0.855200
  0.679000, -0.828000
  0.681000, -0.801200
  0.683000, -0.774800
  0.685000, -0.748900
  0.687000, -0.723200
  0.689000, -0.697800
  0.691000, -0.672900
  0.693000, -0.648400
  0.695000, -0.624500
  0.697000, -0.601000
  0.699000, -0.578100
  0.701000, -0.555700
  0.703000, -0.533700
  0.705000, -0.512200
  0.707000, -0.491200
  0.709000, -0.470800
  0.711000, -0.450900
  0.713000, -0.431600
  0.715000, -0.412700
  0.717000, -0.394100
  0.719000, -0.376000
  0.721000, -0.358500
  0.723000, -0.341500
  0.725000, -0.325000
  0.727000, -0.308900
  0.729000, -0.293100
  0.731000, -0.277900
  0.733000, -0.263200
  0.735000, -0.248900
  0.737000, -0.235000
  0.739000, -0.221400
  0.741000, -0.208300
  0.743000, -0.195500
  0.745000, -0.183200
  0.747000, -0.171300
  0.749000, -0.159700
  0.751000, -0.148300
  0.753000, -0.137400
  0.755000, -0.126900
  0.757000, -0.116800
  0.759000, -0.107200
  0.761000, -0.098200
  0.763000, -0.089400
  0.765000, -0.080800
  0.767000, -0.072500
  0.769000, -0.064700
  0.771000, -0.057400
  0.773000, -0.050500
  0.775000, -0.043900
  0.777000, -0.037700
  0.779000, -0.031800
  0.781000, -0.026200
  0.783000, -0.021100
  0.785000, -0.016200
  0.787000, -0.011700
  0.789000, -0.007800
  0.791000, -0.004400
  0.793000, -0.001200
  0.795000,  0.001800
  0.797000,  0.004300
  0.799000,  0.006400
  0.801000,  0.008200
  0.803000,  0.009700
  0.805000,  0.010800
  0.807000,  0.011500
  0.809000,  0.011800
  0.811000,  0.012000
  0.813000,  0.011900
  0.815000,  0.011700
  0.817000,  0.011000
  0.819000,  0.010000
  0.821000,  0.008800
  0.823000,  0.007300
  0.825000,  0.005800
  0.827000,  0.004100
  0.829000,  0.002300
  0.831000,  0.000300
  0.833000, -0.001700
  0.835000, -0.003700
  0.837000, -0.005900
  0.839000, -0.008100
  0.841000, -0.010300
  0.843000, -0.012500
  0.845000, -0.014800
  0.847000, -0.017100
  0.849000, -0.019400
  0.851000, -0.021500
  0.853000, -0.023500
  0.855000, -0.025400
  0.857000, -0.027200
  0.859000, -0.028900
  0.861000, -0.030600
  0.863000, -0.032000
  0.865000, -0.033400
  0.867000, -0.034700
  0.869000, -0.035800
  0.871000, -0.036500
  0.873000, -0.037100
  0.875000, -0.037600
  0.877000, -0.037900
  0.879000, -0.038100
  0.881000, -0.038000
  0.883000, -0.037900
  0.885000, -0.037500
  0.887000, -0.036900
  0.889000, -0.036100
  0.891000, -0.035100
  0.893000, -0.034000
  0.895000, -0.032700
  0.897000, -0.031300
  0.899000, -0.029700
  0.901000, -0.028100
  0.903000, -0.026300
  0.905000, -0.024300
  0.907000, -0.022300
  0.909000, -0.020200
  0.911000, -0.017900
  0.913000, -0.015500
  0.915000, -0.012900
  0.917000, -0.010400
  0.919000, -0.007800
  0.921000, -0.005200
  0.923000, -0.002500
  0.925000,  0.000100
  0.927000,  0.002800
  0.929000,  0.005500
  0.931000,  0.008300
  0.933000,  0.011100
  0.935000,  0.013900
  0.937000,  0.016700
  0.939000,  0.019500
  0.941000,  0.022400
  0.943000,  0.025300
  0.945000,  0.028200
  0.947000,  0.030900
  0.949000,  0.033600
  0.951000,  0.036200
  0.953000,  0.038700
  0.955000,  0.041200
  0.957000,  0.043700
  0.959000,  0.046200
  0.961000,  0.048700
  0.963000,  0.051100
  0.965000,  0.053400
  0.967000,  0.055600
  0.969000,  0.057900
  0.971000,  0.060100
  0.973000,  0.062200
  0.975000,  0.064300
  0.977000,  0.066200
  0.979000,  0.068100
  0.981000,  0.070000
  0.983000,  0.071900
  0.985000,  0.073600
  0.987000,  0.075200
  0.989000,  0.076800
  0.991000,  0.078300
  0.993000,  0.079800
  0.995000,  0.081100
  0.997000,  0.082400
  0.999000,  0.083800
  1.001000,  0.085100
  1.003000,  0.086300
  1.005000,  0.087500
  1.007000,  0.088600
  1.009000,  0.089700
  1.011000,  0.090600
  1.013000,  0.091600
  1.015000,  0.092600
  1.017000,  0.093500
  1.019000,  0.094300
  1.021000,  0.095000
  1.023000,  0.095700
  1.025000,  0.096300
  1.027000,  0.097000
  1.029000,  0.097700
  1.031000,  0.098200
  1.033000,  0.098700
  1.035000,  0.099000
  1.037000,  0.099300
  1.039000,  0.099400
  1.041000,  0.099500
  1.043000,  0.099700
  1.045000,  0.099800
  1.047000,  0.099600
  1.049000,  0.099500
  1.051000,  0.099400
  1.053000,  0.099200
  1.055000,  0.099000
  1.057000,  0.098700
  1.059000,  0.098300
  1.061000,  0.097800
  1.063000,  0.097300
  1.065000,  0.096700
  1.067000,  0.096100
  1.069000,  0.095400
  1.071000,  0.094700
  1.073000,  0.093900
  1.075000,  0.093100
  1.077000,  0.092300
  1.079000,  0.091400
  1.081000,  0.090500
  1.083000,  0.089600
  1.085000,  0.088700
  1.087000,  0.087800
  1.089000,  0.086800
  1.091000,  0.085800
  1.093000,  0.084800
  1.095000,  0.083700
  1.097000,  0.082700
  1.099000,  0.081700
  1.101000,  0.080700
  1.103000,  0.079700
  1.105000,  0.078700
  1.107000,  0.077800
  1.109000,  0.076900
  1.111000,  0.076000
  1.113000,  0.075200
  1.115000,  0.074300
  1.117000,  0.073500
  1.119000,  0.072700
  1.121000,  0.071900
  1.123000,  0.071100
  1.125000,  0.070400
  1.127000,  0.069700
  1.129000,  0.069100
  1.131000,  0.068500
  1.133000,  0.067800
  1.135000,  0.067200
  1.137000,  0.066600
  1.139000,  0.066000
  1.141000,  0.065400
  1.143000,  0.064800
  1.145000,  0.064300
  1.147000,  0.063800
  1.149000,  0.063300
  1.151000,  0.062800
  1.153000,  0.062300
  1.155000,  0.061800
  1.157000,  0.061300
  1.159000,  0.060800
  1.161000,  0.060300
  1.163000,  0.059700
  1.165000,  0.059100
  1.167000,  0.058400
  1.169000,  0.057800
  1.171000,  0.057100
  1.173000,  0.056300
  1.175000,  0.055300
  1.177000,  0.054400
  1.179000,  0.053500
  1.181000,  0.052500
  1.183000,  0.051600
  1.185000,  0.050700
  1.187000,  0.049600
  1.189000,  0.048600
  1.191000,  0.047600
  1.193000,  0.046600
  1.195000,  0.045500
  1.197000,  0.044500
  1.199000,  0.043300
  1.201000,  0.042000
  1.203000,  0.040700
  1.205000,  0.039500
  1.207000,  0.038100
  1.209000,  0.036600
  1.211000,  0.035100
  1.213000,  0.033600
  1.215000,  0.032100
  1.217000,  0.030600
  1.219000,  0.029100
  1.221000,  0.027400
  1.223000,  0.025900
  1.225000,  0.024400
  1.227000,  0.023000
  1.229000,  0.021500
  1.231000,  0.019900
  1.233000,  0.018300
  1.235000,  0.016800
  1.237000,  0.015100
  1.239000,  0.013400
  1.241000,  0.011800
  1.243000,  0.010200
  1.245000,  0.008500
  1.247000,  0.006900
  1.249000,  0.005300
  1.251000,  0.003800
  1.253000,  0.002200
  1.255000,  0.000500
  1.257000, -0.001100
  1.259000, -0.002800
  1.261000, -0.004400
  1.263000, -0.006000
  1.265000, -0.007700
  1.267000, -0.009300
  1.269000, -0.010900
  1.271000, -0.012600
  1.273000, -0.014200
  1.275000, -0.015800
  1.277000, -0.017400
  1.279000, -0.019000
  1.281000, -0.020600
  1.283000, -0.022100
  1.285000, -0.023700
  1.287000, -0.025200
  1.289000, -0.026700
  1.291000, -0.028100
  1.293000, -0.029400
  1.295000, -0.030800
  1.297000, -0.032100
  1.299000, -0.033300
  1.301000, -0.034500
  1.303000, -0.035500
  1.305000, -0.036500
  1.307000, -0.037300
  1.309000, -0.038000
  1.311000, -0.038600
  1.313000, -0.039100
  1.315000, -0.039400
  1.317000, -0.039600
  1.319000, -0.039600
  1.321000, -0.039300
  1.323000, -0.038900
  1.325000, -0.038300
  1.327000, -0.037600
  1.329000, -0.036700
  1.331000, -0.035600
  1.333000, -0.034300
  1.335000, -0.032900
  1.337000, -0.031200
  1.339000, -0.029300
  1.341000, -0.027200
  1.343000, -0.024900
  1.345000, -0.022500
  1.347000, -0.020100
  1.349000, -0.017400
  1.351000, -0.014600
  1.353000, -0.011700
  1.355000, -0.008600
  1.357000, -0.005300
  1.359000, -0.001800
  1.361000,  0.001800
  1.363000,  0.005400
  1.365000,  0.009100
  1.367000,  0.012800
  1.369000,  0.016500
  1.371000,  0.020200
  1.373000,  0.023900
  1.375000,  0.027500
  1.377000,  0.031000
  1.379000,  0.034400
  1.381000,  0.037600
  1.383000,  0.040700
  1.385000,  0.043700
  1.387000,  0.046600
  1.389000,  0.049300
  1.391000,  0.051600
  1.393000,  0.053600
  1.395000,  0.055300
  1.397000,  0.056400
  1.399000,  0.056900
