# z (nm)   (kJ/mol)
  0.347000, 18.731300
  0.349000, 18.589600
  0.351000, 18.468700
  0.353000, 18.336400
  0.355000, 18.179200
  0.357000, 18.013900
  0.359000, 17.861900
  0.361000, 17.701700
  0.363000, 17.545700
  0.365000, 17.390300
  0.367000, 17.224400
  0.369000, 17.062900
  0.371000, 16.901700
  0.373000, 16.740000
  0.375000, 16.580500
  0.377000, 16.425400
  0.379000, 16.271300
  0.381000, 16.115300
  0.383000, 15.964000
  0.385000, 15.813400
  0.387000, 15.660400
  0.389000, 15.513100
  0.391000, 15.369300
  0.393000, 15.226000
  0.395000, 15.085000
  0.397000, 14.946700
  0.399000, 14.810700
  0.401000, 14.676500
  0.403000, 14.543500
  0.405000, 14.410900
  0.407000, 14.281500
  0.409000, 14.154300
  0.411000, 14.029200
  0.413000, 13.907200
  0.415000, 13.787100
  0.417000, 13.667000
  0.419000, 13.546000
  0.421000, 13.426200
  0.423000, 13.309200
  0.425000, 13.193700
  0.427000, 13.078100
  0.429000, 12.962700
  0.431000, 12.846900
  0.433000, 12.730700
  0.435000, 12.613800
  0.437000, 12.497800
  0.439000, 12.382100
  0.441000, 12.263100
  0.443000, 12.142300
  0.445000, 12.018700
  0.447000, 11.893800
  0.449000, 11.768800
  0.451000, 11.640900
  0.453000, 11.510700
  0.455000, 11.378000
  0.457000, 11.241800
  0.459000, 11.101500
  0.461000, 10.957600
  0.463000, 10.811400
  0.465000, 10.661900
  0.467000, 10.506400
  0.469000, 10.347600
  0.471000, 10.187200
  0.473000, 10.021500
  0.475000,  9.848400
  0.477000,  9.669400
  0.479000,  9.486300
  0.481000,  9.297600
  0.483000,  9.105000
  0.485000,  8.908900
  0.487000,  8.708400
  0.489000,  8.503800
  0.491000,  8.296900
  0.493000,  8.087500
  0.495000,  7.873600
  0.497000,  7.654200
  0.499000,  7.432500
  0.501000,  7.209800
  0.503000,  6.984500
  0.505000,  6.756800
  0.507000,  6.527100
  0.509000,  6.295600
  0.511000,  6.061300
  0.513000,  5.829300
  0.515000,  5.599600
  0.517000,  5.367500
  0.519000,  5.133900
  0.521000,  4.900000
  0.523000,  4.667500
  0.525000,  4.438200
  0.527000,  4.210500
  0.529000,  3.984400
  0.531000,  3.763400
  0.533000,  3.546000
  0.535000,  3.328600
  0.537000,  3.114100
  0.539000,  2.903200
  0.541000,  2.695600
  0.543000,  2.492900
  0.545000,  2.294300
  0.547000,  2.100000
  0.549000,  1.910400
  0.551000,  1.725200
  0.553000,  1.545000
  0.555000,  1.369800
  0.557000,  1.199000
  0.559000,  1.033500
  0.561000,  0.874200
  0.563000,  0.720800
  0.565000,  0.572200
  0.567000,  0.429100
  0.569000,  0.292400
  0.571000,  0.161200
  0.573000,  0.036200
  0.575000, -0.082600
  0.577000, -0.195700
  0.579000, -0.303600
  0.581000, -0.405700
  0.583000, -0.501700
  0.585000, -0.592200
  0.587000, -0.677200
  0.589000, -0.756300
  0.591000, -0.830000
  0.593000, -0.898600
  0.595000, -0.962000
  0.597000, -1.020200
  0.599000, -1.073300
  0.601000, -1.121500
  0.603000, -1.164700
  0.605000, -1.203100
  0.607000, -1.237500
  0.609000, -1.267800
  0.611000, -1.293700
  0.613000, -1.316000
  0.615000, -1.334600
  0.617000, -1.349200
  0.619000, -1.360600
  0.621000, -1.368900
  0.623000, -1.373700
  0.625000, -1.376100
  0.627000, -1.377100
  0.629000, -1.376000
  0.631000, -1.372200
  0.633000, -1.365700
  0.635000, -1.356800
  0.637000, -1.346100
  0.639000, -1.333900
  0.641000, -1.320300
  0.643000, -1.305200
  0.645000, -1.288700
  0.647000, -1.271100
  0.649000, -1.252600
  0.651000, -1.233000
  0.653000, -1.212500
  0.655000, -1.191200
  0.657000, -1.169200
  0.659000, -1.146600
  0.661000, -1.123400
  0.663000, -1.099500
  0.665000, -1.074900
  0.667000, -1.050200
  0.669000, -1.025100
  0.671000, -0.999700
  0.673000, -0.973800
  0.675000, -0.947500
  0.677000, -0.920900
  0.679000, -0.894100
  0.681000, -0.867000
  0.683000, -0.839500
  0.685000, -0.811600
  0.687000, -0.783500
  0.689000, -0.755200
  0.691000, -0.726600
  0.693000, -0.697800
  0.695000, -0.668600
  0.697000, -0.639200
  0.699000, -0.609700
  0.701000, -0.579800
  0.703000, -0.549700
  0.705000, -0.519300
  0.707000, -0.488900
  0.709000, -0.458200
  0.711000, -0.427300
  0.713000, -0.396400
  0.715000, -0.365400
  0.717000, -0.334000
  0.719000, -0.302700
  0.721000, -0.271200
  0.723000, -0.239700
  0.725000, -0.208400
  0.727000, -0.177000
  0.729000, -0.145700
  0.731000, -0.114400
  0.733000, -0.083200
  0.735000, -0.052200
  0.737000, -0.021400
  0.739000,  0.009100
  0.741000,  0.039400
  0.743000,  0.069300
  0.745000,  0.098800
  0.747000,  0.127900
  0.749000,  0.156600
  0.751000,  0.184900
  0.753000,  0.212600
  0.755000,  0.239800
  0.757000,  0.266400
  0.759000,  0.292200
  0.761000,  0.317500
  0.763000,  0.342000
  0.765000,  0.365900
  0.767000,  0.388900
  0.769000,  0.411200
  0.771000,  0.432600
  0.773000,  0.453300
  0.775000,  0.473000
  0.777000,  0.491800
  0.779000,  0.509700
  0.781000,  0.526600
  0.783000,  0.542700
  0.785000,  0.557800
  0.787000,  0.571900
  0.789000,  0.585100
  0.791000,  0.597200
  0.793000,  0.608400
  0.795000,  0.618600
  0.797000,  0.627900
  0.799000,  0.636200
  0.801000,  0.643500
  0.803000,  0.649800
  0.805000,  0.655100
  0.807000,  0.659300
  0.809000,  0.662600
  0.811000,  0.665100
  0.813000,  0.666800
  0.815000,  0.667500
  0.817000,  0.667200
  0.819000,  0.666200
  0.821000,  0.664400
  0.823000,  0.661600
  0.825000,  0.657900
  0.827000,  0.653500
  0.829000,  0.648400
  0.831000,  0.642500
  0.833000,  0.635800
  0.835000,  0.628300
  0.837000,  0.620400
  0.839000,  0.611500
  0.841000,  0.602000
  0.843000,  0.591800
  0.845000,  0.581000
  0.847000,  0.569600
  0.849000,  0.557600
  0.851000,  0.545000
  0.853000,  0.532100
  0.855000,  0.518600
  0.857000,  0.504400
  0.859000,  0.489800
  0.861000,  0.474600
  0.863000,  0.459100
  0.865000,  0.443300
  0.867000,  0.427000
  0.869000,  0.410600
  0.871000,  0.393700
  0.873000,  0.376300
  0.875000,  0.358700
  0.877000,  0.340800
  0.879000,  0.322500
  0.881000,  0.304100
  0.883000,  0.285500
  0.885000,  0.266600
  0.887000,  0.247900
  0.889000,  0.229000
  0.891000,  0.209800
  0.893000,  0.190800
  0.895000,  0.171900
  0.897000,  0.152900
  0.899000,  0.133900
  0.901000,  0.115000
  0.903000,  0.095900
  0.905000,  0.076900
  0.907000,  0.058100
  0.909000,  0.039600
  0.911000,  0.021200
  0.913000,  0.003100
  0.915000, -0.014800
  0.917000, -0.032300
  0.919000, -0.049600
  0.921000, -0.066500
  0.923000, -0.083000
  0.925000, -0.099100
  0.927000, -0.114900
  0.929000, -0.130300
  0.931000, -0.145300
  0.933000, -0.159900
  0.935000, -0.174100
  0.937000, -0.187600
  0.939000, -0.200500
  0.941000, -0.213000
  0.943000, -0.224900
  0.945000, -0.236300
  0.947000, -0.247000
  0.949000, -0.257200
  0.951000, -0.266900
  0.953000, -0.276000
  0.955000, -0.284400
  0.957000, -0.292300
  0.959000, -0.299400
  0.961000, -0.306000
  0.963000, -0.311900
  0.965000, -0.317100
  0.967000, -0.321700
  0.969000, -0.325800
  0.971000, -0.329200
  0.973000, -0.331800
  0.975000, -0.333900
  0.977000, -0.335300
  0.979000, -0.336200
  0.981000, -0.336500
  0.983000, -0.336100
  0.985000, -0.335200
  0.987000, -0.333800
  0.989000, -0.331800
  0.991000, -0.329200
  0.993000, -0.326000
  0.995000, -0.322300
  0.997000, -0.318200
  0.999000, -0.313400
  1.001000, -0.308100
  1.003000, -0.302400
  1.005000, -0.296300
  1.007000, -0.289600
  1.009000, -0.282600
  1.011000, -0.275400
  1.013000, -0.267800
  1.015000, -0.259900
  1.017000, -0.251400
  1.019000, -0.242500
  1.021000, -0.233300
  1.023000, -0.223800
  1.025000, -0.214100
  1.027000, -0.204000
  1.029000, -0.193700
  1.031000, -0.183300
  1.033000, -0.172700
  1.035000, -0.161900
  1.037000, -0.151000
  1.039000, -0.140000
  1.041000, -0.128900
  1.043000, -0.117700
  1.045000, -0.106300
  1.047000, -0.094900
  1.049000, -0.083500
  1.051000, -0.072100
  1.053000, -0.060600
  1.055000, -0.049200
  1.057000, -0.037900
  1.059000, -0.026600
  1.061000, -0.015400
  1.063000, -0.004300
  1.065000,  0.006800
  1.067000,  0.017700
  1.069000,  0.028400
  1.071000,  0.038900
  1.073000,  0.049300
  1.075000,  0.059400
  1.077000,  0.069400
  1.079000,  0.079100
  1.081000,  0.088700
  1.083000,  0.097900
  1.085000,  0.106800
  1.087000,  0.115500
  1.089000,  0.123900
  1.091000,  0.132000
  1.093000,  0.139800
  1.095000,  0.147100
  1.097000,  0.154000
  1.099000,  0.160700
  1.101000,  0.167100
  1.103000,  0.173100
  1.105000,  0.178800
  1.107000,  0.184100
  1.109000,  0.188900
  1.111000,  0.193400
  1.113000,  0.197600
  1.115000,  0.201400
  1.117000,  0.205000
  1.119000,  0.208200
  1.121000,  0.211000
  1.123000,  0.213500
  1.125000,  0.215600
  1.127000,  0.217400
  1.129000,  0.218700
  1.131000,  0.219700
  1.133000,  0.220500
  1.135000,  0.220900
  1.137000,  0.221000
  1.139000,  0.220700
  1.141000,  0.220100
  1.143000,  0.219200
  1.145000,  0.218100
  1.147000,  0.216700
  1.149000,  0.215000
  1.151000,  0.213100
  1.153000,  0.211000
  1.155000,  0.208700
  1.157000,  0.206200
  1.159000,  0.203500
  1.161000,  0.200500
  1.163000,  0.197400
  1.165000,  0.194000
  1.167000,  0.190500
  1.169000,  0.186800
  1.171000,  0.182900
  1.173000,  0.179000
  1.175000,  0.174900
  1.177000,  0.170700
  1.179000,  0.166400
  1.181000,  0.162100
  1.183000,  0.157600
  1.185000,  0.153100
  1.187000,  0.148500
  1.189000,  0.144000
  1.191000,  0.139400
  1.193000,  0.134800
  1.195000,  0.130100
  1.197000,  0.125300
  1.199000,  0.120600
  1.201000,  0.116000
  1.203000,  0.111400
  1.205000,  0.106800
  1.207000,  0.102200
  1.209000,  0.097500
  1.211000,  0.093000
  1.213000,  0.088600
  1.215000,  0.084200
  1.217000,  0.079800
  1.219000,  0.075400
  1.221000,  0.071000
  1.223000,  0.066800
  1.225000,  0.062600
  1.227000,  0.058500
  1.229000,  0.054500
  1.231000,  0.050400
  1.233000,  0.046600
  1.235000,  0.042700
  1.237000,  0.039000
  1.239000,  0.035400
  1.241000,  0.031700
  1.243000,  0.028200
  1.245000,  0.024700
  1.247000,  0.021300
  1.249000,  0.017900
  1.251000,  0.014700
  1.253000,  0.011600
  1.255000,  0.008400
  1.257000,  0.005300
  1.259000,  0.002300
  1.261000, -0.000600
  1.263000, -0.003400
  1.265000, -0.006200
  1.267000, -0.008900
  1.269000, -0.011600
  1.271000, -0.014300
  1.273000, -0.016800
  1.275000, -0.019100
  1.277000, -0.021500
  1.279000, -0.024000
  1.281000, -0.026300
  1.283000, -0.028500
  1.285000, -0.030600
  1.287000, -0.032600
  1.289000, -0.034400
  1.291000, -0.036400
  1.293000, -0.038200
  1.295000, -0.039800
  1.297000, -0.041200
  1.299000, -0.042600
  1.301000, -0.043900
  1.303000, -0.045100
  1.305000, -0.046300
  1.307000, -0.047400
  1.309000, -0.048300
  1.311000, -0.049100
  1.313000, -0.049600
  1.315000, -0.050000
  1.317000, -0.050500
  1.319000, -0.050700
  1.321000, -0.050700
  1.323000, -0.050600
  1.325000, -0.050400
  1.327000, -0.050000
  1.329000, -0.049300
  1.331000, -0.048600
  1.333000, -0.047700
  1.335000, -0.046700
  1.337000, -0.045400
  1.339000, -0.044100
  1.341000, -0.042500
  1.343000, -0.040800
  1.345000, -0.039000
  1.347000, -0.037000
  1.349000, -0.035000
  1.351000, -0.032900
  1.353000, -0.030600
  1.355000, -0.028200
  1.357000, -0.025800
  1.359000, -0.023200
  1.361000, -0.020600
  1.363000, -0.017900
  1.365000, -0.015200
  1.367000, -0.012300
  1.369000, -0.009500
  1.371000, -0.006600
  1.373000, -0.003800
  1.375000, -0.001100
  1.377000,  0.001600
  1.379000,  0.004400
  1.381000,  0.007200
  1.383000,  0.009800
  1.385000,  0.012100
  1.387000,  0.014200
  1.389000,  0.016200
  1.391000,  0.018000
  1.393000,  0.019300
  1.395000,  0.020500
  1.397000,  0.021500
  1.399000,  0.021600
