# z (nm)   (kJ/mol)
  0.259000, 11.986400
  0.261000, 11.717800
  0.263000, 11.444700
  0.265000, 11.200400
  0.267000, 10.960400
  0.269000, 10.720000
  0.271000, 10.478100
  0.273000, 10.240600
  0.275000, 10.000700
  0.277000,  9.761400
  0.279000,  9.526100
  0.281000,  9.289600
  0.283000,  9.053900
  0.285000,  8.821000
  0.287000,  8.592400
  0.289000,  8.369300
  0.291000,  8.147400
  0.293000,  7.931300
  0.295000,  7.719700
  0.297000,  7.508500
  0.299000,  7.301900
  0.301000,  7.103800
  0.303000,  6.911800
  0.305000,  6.725100
  0.307000,  6.545300
  0.309000,  6.371700
  0.311000,  6.203800
  0.313000,  6.038700
  0.315000,  5.879500
  0.317000,  5.729300
  0.319000,  5.585500
  0.321000,  5.446600
  0.323000,  5.314800
  0.325000,  5.189800
  0.327000,  5.070400
  0.329000,  4.955300
  0.331000,  4.845800
  0.333000,  4.744200
  0.335000,  4.647000
  0.337000,  4.554000
  0.339000,  4.467400
  0.341000,  4.387700
  0.343000,  4.313900
  0.345000,  4.245600
  0.347000,  4.182500
  0.349000,  4.124300
  0.351000,  4.071300
  0.353000,  4.024200
  0.355000,  3.981900
  0.357000,  3.943800
  0.359000,  3.910700
  0.361000,  3.882500
  0.363000,  3.858600
  0.365000,  3.839000
  0.367000,  3.823800
  0.369000,  3.812500
  0.371000,  3.804800
  0.373000,  3.800600
  0.375000,  3.800100
  0.377000,  3.802100
  0.379000,  3.807100
  0.381000,  3.815500
  0.383000,  3.826400
  0.385000,  3.840100
  0.387000,  3.855200
  0.389000,  3.871100
  0.391000,  3.889100
  0.393000,  3.909100
  0.395000,  3.930100
  0.397000,  3.951700
  0.399000,  3.973100
  0.401000,  3.994800
  0.403000,  4.016500
  0.405000,  4.037800
  0.407000,  4.059500
  0.409000,  4.079800
  0.411000,  4.098400
  0.413000,  4.116400
  0.415000,  4.133500
  0.417000,  4.149000
  0.419000,  4.162000
  0.421000,  4.172800
  0.423000,  4.181800
  0.425000,  4.188700
  0.427000,  4.192900
  0.429000,  4.194100
  0.431000,  4.192300
  0.433000,  4.187400
  0.435000,  4.179200
  0.437000,  4.167700
  0.439000,  4.153200
  0.441000,  4.135300
  0.443000,  4.113800
  0.445000,  4.088500
  0.447000,  4.059500
  0.449000,  4.026900
  0.451000,  3.990900
  0.453000,  3.951300
  0.455000,  3.908000
  0.457000,  3.861000
  0.459000,  3.810300
  0.461000,  3.756600
  0.463000,  3.699500
  0.465000,  3.638700
  0.467000,  3.574300
  0.469000,  3.507100
  0.471000,  3.436500
  0.473000,  3.362800
  0.475000,  3.286600
  0.477000,  3.207300
  0.479000,  3.125200
  0.481000,  3.040700
  0.483000,  2.954000
  0.485000,  2.864900
  0.487000,  2.773700
  0.489000,  2.680500
  0.491000,  2.585000
  0.493000,  2.487300
  0.495000,  2.387900
  0.497000,  2.287100
  0.499000,  2.185100
  0.501000,  2.082100
  0.503000,  1.978400
  0.505000,  1.873500
  0.507000,  1.767800
  0.509000,  1.662200
  0.511000,  1.556000
  0.513000,  1.449700
  0.515000,  1.343200
  0.517000,  1.236200
  0.519000,  1.129800
  0.521000,  1.024000
  0.523000,  0.918700
  0.525000,  0.814600
  0.527000,  0.710800
  0.529000,  0.607600
  0.531000,  0.505800
  0.533000,  0.405600
  0.535000,  0.306500
  0.537000,  0.208900
  0.539000,  0.113000
  0.541000,  0.018500
  0.543000, -0.074100
  0.545000, -0.164900
  0.547000, -0.253900
  0.549000, -0.340400
  0.551000, -0.424900
  0.553000, -0.507000
  0.555000, -0.586200
  0.557000, -0.663200
  0.559000, -0.737900
  0.561000, -0.810100
  0.563000, -0.879500
  0.565000, -0.946200
  0.567000, -1.010400
  0.569000, -1.071600
  0.571000, -1.130000
  0.573000, -1.185500
  0.575000, -1.238300
  0.577000, -1.288300
  0.579000, -1.335400
  0.581000, -1.379400
  0.583000, -1.420500
  0.585000, -1.458900
  0.587000, -1.494500
  0.589000, -1.527000
  0.591000, -1.556600
  0.593000, -1.583500
  0.595000, -1.607800
  0.597000, -1.629300
  0.599000, -1.648200
  0.601000, -1.664500
  0.603000, -1.678100
  0.605000, -1.689200
  0.607000, -1.697700
  0.609000, -1.704000
  0.611000, -1.707800
  0.613000, -1.709300
  0.615000, -1.708700
  0.617000, -1.705900
  0.619000, -1.701100
  0.621000, -1.694400
  0.623000, -1.685700
  0.625000, -1.674700
  0.627000, -1.662100
  0.629000, -1.648000
  0.631000, -1.632300
  0.633000, -1.614900
  0.635000, -1.596000
  0.637000, -1.575900
  0.639000, -1.554200
  0.641000, -1.531200
  0.643000, -1.507100
  0.645000, -1.481900
  0.647000, -1.455700
  0.649000, -1.428300
  0.651000, -1.399800
  0.653000, -1.370500
  0.655000, -1.340400
  0.657000, -1.309500
  0.659000, -1.278000
  0.661000, -1.245700
  0.663000, -1.212700
  0.665000, -1.178900
  0.667000, -1.144600
  0.669000, -1.109900
  0.671000, -1.074600
  0.673000, -1.039300
  0.675000, -1.003600
  0.677000, -0.967500
  0.679000, -0.930800
  0.681000, -0.894000
  0.683000, -0.857100
  0.685000, -0.820200
  0.687000, -0.783200
  0.689000, -0.745800
  0.691000, -0.708200
  0.693000, -0.670600
  0.695000, -0.633200
  0.697000, -0.595900
  0.699000, -0.558500
  0.701000, -0.521300
  0.703000, -0.484100
  0.705000, -0.447200
  0.707000, -0.410400
  0.709000, -0.373800
  0.711000, -0.337800
  0.713000, -0.302100
  0.715000, -0.266800
  0.717000, -0.231900
  0.719000, -0.197200
  0.721000, -0.163000
  0.723000, -0.129500
  0.725000, -0.096600
  0.727000, -0.064300
  0.729000, -0.032500
  0.731000, -0.001300
  0.733000,  0.029100
  0.735000,  0.058700
  0.737000,  0.087600
  0.739000,  0.115600
  0.741000,  0.142800
  0.743000,  0.169100
  0.745000,  0.194700
  0.747000,  0.219400
  0.749000,  0.242900
  0.751000,  0.265500
  0.753000,  0.287200
  0.755000,  0.307900
  0.757000,  0.327600
  0.759000,  0.346100
  0.761000,  0.363600
  0.763000,  0.379900
  0.765000,  0.395000
  0.767000,  0.409000
  0.769000,  0.422000
  0.771000,  0.433900
  0.773000,  0.444600
  0.775000,  0.454300
  0.777000,  0.462900
  0.779000,  0.470300
  0.781000,  0.476500
  0.783000,  0.481700
  0.785000,  0.485800
  0.787000,  0.488900
  0.789000,  0.491000
  0.791000,  0.492000
  0.793000,  0.491900
  0.795000,  0.491000
  0.797000,  0.489000
  0.799000,  0.486100
  0.801000,  0.482400
  0.803000,  0.477700
  0.805000,  0.472300
  0.807000,  0.466100
  0.809000,  0.459100
  0.811000,  0.451400
  0.813000,  0.442900
  0.815000,  0.433700
  0.817000,  0.424000
  0.819000,  0.413800
  0.821000,  0.403100
  0.823000,  0.391800
  0.825000,  0.380000
  0.827000,  0.368000
  0.829000,  0.355600
  0.831000,  0.342700
  0.833000,  0.329400
  0.835000,  0.315900
  0.837000,  0.302100
  0.839000,  0.288200
  0.841000,  0.274100
  0.843000,  0.260000
  0.845000,  0.245900
  0.847000,  0.231600
  0.849000,  0.217300
  0.851000,  0.203000
  0.853000,  0.188800
  0.855000,  0.174700
  0.857000,  0.160700
  0.859000,  0.146900
  0.861000,  0.133200
  0.863000,  0.119800
  0.865000,  0.106500
  0.867000,  0.093300
  0.869000,  0.080500
  0.871000,  0.067900
  0.873000,  0.055600
  0.875000,  0.043600
  0.877000,  0.032000
  0.879000,  0.020900
  0.881000,  0.009900
  0.883000, -0.000600
  0.885000, -0.010700
  0.887000, -0.020400
  0.889000, -0.029700
  0.891000, -0.038700
  0.893000, -0.047200
  0.895000, -0.055300
  0.897000, -0.063000
  0.899000, -0.070200
  0.901000, -0.077000
  0.903000, -0.083300
  0.905000, -0.089200
  0.907000, -0.094600
  0.909000, -0.099600
  0.911000, -0.104100
  0.913000, -0.108200
  0.915000, -0.112100
  0.917000, -0.115400
  0.919000, -0.118400
  0.921000, -0.121100
  0.923000, -0.123300
  0.925000, -0.125200
  0.927000, -0.126800
  0.929000, -0.128000
  0.931000, -0.128800
  0.933000, -0.129200
  0.935000, -0.129400
  0.937000, -0.129300
  0.939000, -0.128800
  0.941000, -0.128100
  0.943000, -0.127100
  0.945000, -0.125800
  0.947000, -0.124300
  0.949000, -0.122600
  0.951000, -0.120600
  0.953000, -0.118400
  0.955000, -0.116000
  0.957000, -0.113400
  0.959000, -0.110600
  0.961000, -0.107600
  0.963000, -0.104500
  0.965000, -0.101300
  0.967000, -0.097800
  0.969000, -0.094200
  0.971000, -0.090500
  0.973000, -0.086800
  0.975000, -0.082900
  0.977000, -0.078900
  0.979000, -0.074700
  0.981000, -0.070500
  0.983000, -0.066200
  0.985000, -0.061700
  0.987000, -0.057300
  0.989000, -0.052800
  0.991000, -0.048100
  0.993000, -0.043500
  0.995000, -0.038700
  0.997000, -0.033800
  0.999000, -0.028900
  1.001000, -0.024100
  1.003000, -0.019200
  1.005000, -0.014200
  1.007000, -0.009100
  1.009000, -0.003900
  1.011000,  0.001300
  1.013000,  0.006600
  1.015000,  0.012000
  1.017000,  0.017300
  1.019000,  0.022800
  1.021000,  0.028300
  1.023000,  0.033600
  1.025000,  0.039100
  1.027000,  0.044700
  1.029000,  0.050300
  1.031000,  0.055900
  1.033000,  0.061500
  1.035000,  0.067100
  1.037000,  0.072800
  1.039000,  0.078400
  1.041000,  0.084100
  1.043000,  0.089800
  1.045000,  0.095400
  1.047000,  0.101000
  1.049000,  0.106500
  1.051000,  0.112100
  1.053000,  0.117500
  1.055000,  0.122900
  1.057000,  0.128200
  1.059000,  0.133500
  1.061000,  0.138600
  1.063000,  0.143700
  1.065000,  0.148500
  1.067000,  0.153200
  1.069000,  0.157800
  1.071000,  0.162200
  1.073000,  0.166600
  1.075000,  0.170800
  1.077000,  0.174700
  1.079000,  0.178400
  1.081000,  0.182000
  1.083000,  0.185300
  1.085000,  0.188500
  1.087000,  0.191400
  1.089000,  0.194000
  1.091000,  0.196300
  1.093000,  0.198500
  1.095000,  0.200300
  1.097000,  0.201900
  1.099000,  0.203300
  1.101000,  0.204400
  1.103000,  0.205200
  1.105000,  0.205700
  1.107000,  0.205900
  1.109000,  0.205900
  1.111000,  0.205700
  1.113000,  0.205100
  1.115000,  0.204300
  1.117000,  0.203200
  1.119000,  0.201900
  1.121000,  0.200300
  1.123000,  0.198400
  1.125000,  0.196300
  1.127000,  0.194100
  1.129000,  0.191600
  1.131000,  0.189000
  1.133000,  0.186000
  1.135000,  0.182900
  1.137000,  0.179700
  1.139000,  0.176200
  1.141000,  0.172500
  1.143000,  0.168600
  1.145000,  0.164600
  1.147000,  0.160500
  1.149000,  0.156300
  1.151000,  0.152200
  1.153000,  0.147900
  1.155000,  0.143400
  1.157000,  0.139000
  1.159000,  0.134600
  1.161000,  0.130200
  1.163000,  0.125800
  1.165000,  0.121400
  1.167000,  0.116900
  1.169000,  0.112500
  1.171000,  0.108100
  1.173000,  0.103700
  1.175000,  0.099400
  1.177000,  0.095100
  1.179000,  0.090800
  1.181000,  0.086600
  1.183000,  0.082500
  1.185000,  0.078400
  1.187000,  0.074500
  1.189000,  0.070700
  1.191000,  0.067000
  1.193000,  0.063600
  1.195000,  0.060300
  1.197000,  0.056900
  1.199000,  0.053600
  1.201000,  0.050500
  1.203000,  0.047600
  1.205000,  0.044600
  1.207000,  0.041700
  1.209000,  0.038900
  1.211000,  0.036200
  1.213000,  0.033700
  1.215000,  0.031300
  1.217000,  0.029000
  1.219000,  0.026700
  1.221000,  0.024600
  1.223000,  0.022500
  1.225000,  0.020600
  1.227000,  0.018700
  1.229000,  0.016900
  1.231000,  0.015100
  1.233000,  0.013300
  1.235000,  0.011600
  1.237000,  0.010000
  1.239000,  0.008400
  1.241000,  0.006800
  1.243000,  0.005200
  1.245000,  0.003600
  1.247000,  0.002000
  1.249000,  0.000500
  1.251000, -0.001100
  1.253000, -0.002600
  1.255000, -0.004200
  1.257000, -0.005700
  1.259000, -0.007200
  1.261000, -0.008700
  1.263000, -0.010200
  1.265000, -0.011700
  1.267000, -0.013200
  1.269000, -0.014700
  1.271000, -0.016200
  1.273000, -0.017600
  1.275000, -0.019100
  1.277000, -0.020500
  1.279000, -0.022000
  1.281000, -0.023400
  1.283000, -0.024800
  1.285000, -0.026200
  1.287000, -0.027500
  1.289000, -0.028800
  1.291000, -0.030100
  1.293000, -0.031300
  1.295000, -0.032400
  1.297000, -0.033500
  1.299000, -0.034500
  1.301000, -0.035400
  1.303000, -0.036200
  1.305000, -0.036800
  1.307000, -0.037400
  1.309000, -0.037900
  1.311000, -0.038300
  1.313000, -0.038600
  1.315000, -0.038700
  1.317000, -0.038700
  1.319000, -0.038600
  1.321000, -0.038200
  1.323000, -0.037800
  1.325000, -0.037100
  1.327000, -0.036300
  1.329000, -0.035300
  1.331000, -0.034200
  1.333000, -0.032800
  1.335000, -0.031400
  1.337000, -0.029700
  1.339000, -0.027800
  1.341000, -0.025700
  1.343000, -0.023500
  1.345000, -0.021100
  1.347000, -0.018600
  1.349000, -0.016000
  1.351000, -0.013100
  1.353000, -0.010100
  1.355000, -0.007000
  1.357000, -0.003600
  1.359000, -0.000200
  1.361000,  0.003500
  1.363000,  0.007100
  1.365000,  0.010900
  1.367000,  0.014700
  1.369000,  0.018700
  1.371000,  0.022500
  1.373000,  0.026300
  1.375000,  0.030300
  1.377000,  0.034200
  1.379000,  0.038200
  1.381000,  0.042100
  1.383000,  0.045800
  1.385000,  0.049400
  1.387000,  0.052800
  1.389000,  0.056100
  1.391000,  0.059100
  1.393000,  0.061700
  1.395000,  0.064100
  1.397000,  0.066100
  1.399000,  0.067600
