# z (nm)   (kJ/mol)
  0.331000,  3.399900
  0.333000,  3.183600
  0.335000,  2.957000
  0.337000,  2.700700
  0.339000,  2.437000
  0.341000,  2.171500
  0.343000,  1.912800
  0.345000,  1.650300
  0.347000,  1.385700
  0.349000,  1.122900
  0.351000,  0.859300
  0.353000,  0.596800
  0.355000,  0.338700
  0.357000,  0.082100
  0.359000, -0.173500
  0.361000, -0.428300
  0.363000, -0.683500
  0.365000, -0.934900
  0.367000, -1.184000
  0.369000, -1.433300
  0.371000, -1.679000
  0.373000, -1.920500
  0.375000, -2.159400
  0.377000, -2.394300
  0.379000, -2.622800
  0.381000, -2.844600
  0.383000, -3.061800
  0.385000, -3.275000
  0.387000, -3.480000
  0.389000, -3.676700
  0.391000, -3.866700
  0.393000, -4.049100
  0.395000, -4.225300
  0.397000, -4.393900
  0.399000, -4.552200
  0.401000, -4.702900
  0.403000, -4.848600
  0.405000, -4.989400
  0.407000, -5.123300
  0.409000, -5.249100
  0.411000, -5.369200
  0.413000, -5.483200
  0.415000, -5.589900
  0.417000, -5.692000
  0.419000, -5.788300
  0.421000, -5.880800
  0.423000, -5.967100
  0.425000, -6.044900
  0.427000, -6.117800
  0.429000, -6.183600
  0.431000, -6.242300
  0.433000, -6.296800
  0.435000, -6.343400
  0.437000, -6.381400
  0.439000, -6.413600
  0.441000, -6.437900
  0.443000, -6.455100
  0.445000, -6.465700
  0.447000, -6.469000
  0.449000, -6.465800
  0.451000, -6.457000
  0.453000, -6.442300
  0.455000, -6.421600
  0.457000, -6.395200
  0.459000, -6.362800
  0.461000, -6.324200
  0.463000, -6.279700
  0.465000, -6.229700
  0.467000, -6.174600
  0.469000, -6.114000
  0.471000, -6.048800
  0.473000, -5.978400
  0.475000, -5.902600
  0.477000, -5.822800
  0.479000, -5.738600
  0.481000, -5.649500
  0.483000, -5.556900
  0.485000, -5.461000
  0.487000, -5.360100
  0.489000, -5.255100
  0.491000, -5.148300
  0.493000, -5.039500
  0.495000, -4.926100
  0.497000, -4.811000
  0.499000, -4.695400
  0.501000, -4.576800
  0.503000, -4.457200
  0.505000, -4.337900
  0.507000, -4.218200
  0.509000, -4.097700
  0.511000, -3.978800
  0.513000, -3.859900
  0.515000, -3.740200
  0.517000, -3.622500
  0.519000, -3.507600
  0.521000, -3.398700
  0.523000, -3.292500
  0.525000, -3.190100
  0.527000, -3.091000
  0.529000, -2.992000
  0.531000, -2.898000
  0.533000, -2.809200
  0.535000, -2.723500
  0.537000, -2.642100
  0.539000, -2.565200
  0.541000, -2.493100
  0.543000, -2.426000
  0.545000, -2.363000
  0.547000, -2.306100
  0.549000, -2.253100
  0.551000, -2.203600
  0.553000, -2.159100
  0.555000, -2.119700
  0.557000, -2.085400
  0.559000, -2.056400
  0.561000, -2.032700
  0.563000, -2.012800
  0.565000, -1.996600
  0.567000, -1.984600
  0.569000, -1.976900
  0.571000, -1.972800
  0.573000, -1.972000
  0.575000, -1.975700
  0.577000, -1.984000
  0.579000, -1.995600
  0.581000, -2.010300
  0.583000, -2.028300
  0.585000, -2.048600
  0.587000, -2.071700
  0.589000, -2.097600
  0.591000, -2.125500
  0.593000, -2.155200
  0.595000, -2.186600
  0.597000, -2.219500
  0.599000, -2.253500
  0.601000, -2.288600
  0.603000, -2.324500
  0.605000, -2.360600
  0.607000, -2.397300
  0.609000, -2.434600
  0.611000, -2.472100
  0.613000, -2.509100
  0.615000, -2.545700
  0.617000, -2.582100
  0.619000, -2.618300
  0.621000, -2.654100
  0.623000, -2.689000
  0.625000, -2.722900
  0.627000, -2.756100
  0.629000, -2.787800
  0.631000, -2.818200
  0.633000, -2.847700
  0.635000, -2.876300
  0.637000, -2.903900
  0.639000, -2.930200
  0.641000, -2.955100
  0.643000, -2.978600
  0.645000, -3.000900
  0.647000, -3.021900
  0.649000, -3.041400
  0.651000, -3.059400
  0.653000, -3.076100
  0.655000, -3.091600
  0.657000, -3.105900
  0.659000, -3.118700
  0.661000, -3.130100
  0.663000, -3.140400
  0.665000, -3.149200
  0.667000, -3.156700
  0.669000, -3.163000
  0.671000, -3.168100
  0.673000, -3.172100
  0.675000, -3.174700
  0.677000, -3.175900
  0.679000, -3.176300
  0.681000, -3.175500
  0.683000, -3.173200
  0.685000, -3.170000
  0.687000, -3.165600
  0.689000, -3.160000
  0.691000, -3.153200
  0.693000, -3.145500
  0.695000, -3.136600
  0.697000, -3.126300
  0.699000, -3.114900
  0.701000, -3.102600
  0.703000, -3.089100
  0.705000, -3.074500
  0.707000, -3.059000
  0.709000, -3.042300
  0.711000, -3.024700
  0.713000, -3.006000
  0.715000, -2.986500
  0.717000, -2.965800
  0.719000, -2.944100
  0.721000, -2.921400
  0.723000, -2.897500
  0.725000, -2.873100
  0.727000, -2.847700
  0.729000, -2.821300
  0.731000, -2.793800
  0.733000, -2.765600
  0.735000, -2.736500
  0.737000, -2.706700
  0.739000, -2.676000
  0.741000, -2.644500
  0.743000, -2.612300
  0.745000, -2.579300
  0.747000, -2.545700
  0.749000, -2.511400
  0.751000, -2.476300
  0.753000, -2.440800
  0.755000, -2.404700
  0.757000, -2.368100
  0.759000, -2.331100
  0.761000, -2.293600
  0.763000, -2.255400
  0.765000, -2.217100
  0.767000, -2.178400
  0.769000, -2.139400
  0.771000, -2.100500
  0.773000, -2.061400
  0.775000, -2.022100
  0.777000, -1.982600
  0.779000, -1.942900
  0.781000, -1.903400
  0.783000, -1.864300
  0.785000, -1.825100
  0.787000, -1.786100
  0.789000, -1.747200
  0.791000, -1.708400
  0.793000, -1.670000
  0.795000, -1.631900
  0.797000, -1.594300
  0.799000, -1.557200
  0.801000, -1.520800
  0.803000, -1.485000
  0.805000, -1.449300
  0.807000, -1.413900
  0.809000, -1.379400
  0.811000, -1.345400
  0.813000, -1.312000
  0.815000, -1.279100
  0.817000, -1.246900
  0.819000, -1.215400
  0.821000, -1.184700
  0.823000, -1.154800
  0.825000, -1.125300
  0.827000, -1.096700
  0.829000, -1.069000
  0.831000, -1.041900
  0.833000, -1.015600
  0.835000, -0.990100
  0.837000, -0.965200
  0.839000, -0.941100
  0.841000, -0.917700
  0.843000, -0.894900
  0.845000, -0.872900
  0.847000, -0.851800
  0.849000, -0.831400
  0.851000, -0.811600
  0.853000, -0.792700
  0.855000, -0.774600
  0.857000, -0.757200
  0.859000, -0.740700
  0.861000, -0.725000
  0.863000, -0.709900
  0.865000, -0.695300
  0.867000, -0.681100
  0.869000, -0.667700
  0.871000, -0.654900
  0.873000, -0.642700
  0.875000, -0.631200
  0.877000, -0.620100
  0.879000, -0.609600
  0.881000, -0.599900
  0.883000, -0.590800
  0.885000, -0.582400
  0.887000, -0.574400
  0.889000, -0.566700
  0.891000, -0.559500
  0.893000, -0.552800
  0.895000, -0.546600
  0.897000, -0.540900
  0.899000, -0.535900
  0.901000, -0.531300
  0.903000, -0.526900
  0.905000, -0.523000
  0.907000, -0.519500
  0.909000, -0.516100
  0.911000, -0.513000
  0.913000, -0.510300
  0.915000, -0.508300
  0.917000, -0.506400
  0.919000, -0.504600
  0.921000, -0.502900
  0.923000, -0.501500
  0.925000, -0.500500
  0.927000, -0.499900
  0.929000, -0.499700
  0.931000, -0.499600
  0.933000, -0.499800
  0.935000, -0.499700
  0.937000, -0.499800
  0.939000, -0.500100
  0.941000, -0.500800
  0.943000, -0.501800
  0.945000, -0.502900
  0.947000, -0.503700
  0.949000, -0.504600
  0.951000, -0.505500
  0.953000, -0.506500
  0.955000, -0.507700
  0.957000, -0.508900
  0.959000, -0.510100
  0.961000, -0.511100
  0.963000, -0.512200
  0.965000, -0.513500
  0.967000, -0.514700
  0.969000, -0.515700
  0.971000, -0.516800
  0.973000, -0.517900
  0.975000, -0.518800
  0.977000, -0.519600
  0.979000, -0.520100
  0.981000, -0.520600
  0.983000, -0.521300
  0.985000, -0.522000
  0.987000, -0.522500
  0.989000, -0.522900
  0.991000, -0.523000
  0.993000, -0.523200
  0.995000, -0.523200
  0.997000, -0.523100
  0.999000, -0.522700
  1.001000, -0.522200
  1.003000, -0.521500
  1.005000, -0.520700
  1.007000, -0.519800
  1.009000, -0.518900
  1.011000, -0.517900
  1.013000, -0.516700
  1.015000, -0.515300
  1.017000, -0.513700
  1.019000, -0.512000
  1.021000, -0.510100
  1.023000, -0.508000
  1.025000, -0.505900
  1.027000, -0.503700
  1.029000, -0.501300
  1.031000, -0.498800
  1.033000, -0.496100
  1.035000, -0.493400
  1.037000, -0.490400
  1.039000, -0.487200
  1.041000, -0.483900
  1.043000, -0.480600
  1.045000, -0.477000
  1.047000, -0.473400
  1.049000, -0.469600
  1.051000, -0.465800
  1.053000, -0.461700
  1.055000, -0.457500
  1.057000, -0.453000
  1.059000, -0.448300
  1.061000, -0.443500
  1.063000, -0.438600
  1.065000, -0.433500
  1.067000, -0.428200
  1.069000, -0.422800
  1.071000, -0.417100
  1.073000, -0.411200
  1.075000, -0.405200
  1.077000, -0.399000
  1.079000, -0.392600
  1.081000, -0.386000
  1.083000, -0.379400
  1.085000, -0.372500
  1.087000, -0.365600
  1.089000, -0.358400
  1.091000, -0.351200
  1.093000, -0.343900
  1.095000, -0.336400
  1.097000, -0.328800
  1.099000, -0.321200
  1.101000, -0.313300
  1.103000, -0.305400
  1.105000, -0.297400
  1.107000, -0.289200
  1.109000, -0.281100
  1.111000, -0.272900
  1.113000, -0.264700
  1.115000, -0.256400
  1.117000, -0.248000
  1.119000, -0.239600
  1.121000, -0.231200
  1.123000, -0.222700
  1.125000, -0.214300
  1.127000, -0.206000
  1.129000, -0.197500
  1.131000, -0.189000
  1.133000, -0.180700
  1.135000, -0.172400
  1.137000, -0.164200
  1.139000, -0.156000
  1.141000, -0.147900
  1.143000, -0.140000
  1.145000, -0.132200
  1.147000, -0.124600
  1.149000, -0.117100
  1.151000, -0.109700
  1.153000, -0.102500
  1.155000, -0.095400
  1.157000, -0.088500
  1.159000, -0.081600
  1.161000, -0.075000
  1.163000, -0.068600
  1.165000, -0.062300
  1.167000, -0.056300
  1.169000, -0.050500
  1.171000, -0.044800
  1.173000, -0.039400
  1.175000, -0.034200
  1.177000, -0.029200
  1.179000, -0.024200
  1.181000, -0.019400
  1.183000, -0.014900
  1.185000, -0.010600
  1.187000, -0.006600
  1.189000, -0.002700
  1.191000,  0.000900
  1.193000,  0.004400
  1.195000,  0.007700
  1.197000,  0.010900
  1.199000,  0.013900
  1.201000,  0.016700
  1.203000,  0.019300
  1.205000,  0.021800
  1.207000,  0.024200
  1.209000,  0.026600
  1.211000,  0.028800
  1.213000,  0.030600
  1.215000,  0.032300
  1.217000,  0.033900
  1.219000,  0.035400
  1.221000,  0.036800
  1.223000,  0.038000
  1.225000,  0.039000
  1.227000,  0.039800
  1.229000,  0.040700
  1.231000,  0.041400
  1.233000,  0.041900
  1.235000,  0.042400
  1.237000,  0.042800
  1.239000,  0.043000
  1.241000,  0.043000
  1.243000,  0.042900
  1.245000,  0.042700
  1.247000,  0.042400
  1.249000,  0.042000
  1.251000,  0.041500
  1.253000,  0.040800
  1.255000,  0.040100
  1.257000,  0.039100
  1.259000,  0.038000
  1.261000,  0.036800
  1.263000,  0.035500
  1.265000,  0.034200
  1.267000,  0.032700
  1.269000,  0.031000
  1.271000,  0.029200
  1.273000,  0.027100
  1.275000,  0.025100
  1.277000,  0.023100
  1.279000,  0.021000
  1.281000,  0.018700
  1.283000,  0.016300
  1.285000,  0.013800
  1.287000,  0.011200
  1.289000,  0.008600
  1.291000,  0.005900
  1.293000,  0.003300
  1.295000,  0.000700
  1.297000, -0.002000
  1.299000, -0.004900
  1.301000, -0.007900
  1.303000, -0.010700
  1.305000, -0.013500
  1.307000, -0.016200
  1.309000, -0.018900
  1.311000, -0.021600
  1.313000, -0.024200
  1.315000, -0.026800
  1.317000, -0.029400
  1.319000, -0.031800
  1.321000, -0.034000
  1.323000, -0.036100
  1.325000, -0.038100
  1.327000, -0.039900
  1.329000, -0.041600
  1.331000, -0.043200
  1.333000, -0.044600
  1.335000, -0.045900
  1.337000, -0.046900
  1.339000, -0.047700
  1.341000, -0.048200
  1.343000, -0.048500
  1.345000, -0.048800
  1.347000, -0.048900
  1.349000, -0.048700
  1.351000, -0.048300
  1.353000, -0.047600
  1.355000, -0.046800
  1.357000, -0.045800
  1.359000, -0.044400
  1.361000, -0.042900
  1.363000, -0.041300
  1.365000, -0.039400
  1.367000, -0.037300
  1.369000, -0.034900
  1.371000, -0.032400
  1.373000, -0.029700
  1.375000, -0.026900
  1.377000, -0.024000
  1.379000, -0.021000
  1.381000, -0.017700
  1.383000, -0.014300
  1.385000, -0.011000
  1.387000, -0.007800
  1.389000, -0.004600
  1.391000, -0.001300
  1.393000,  0.001900
  1.395000,  0.004800
  1.397000,  0.007500
  1.399000,  0.010000
