# z (nm)   (kJ/mol)
  0.277000, 16.097900
  0.279000, 15.934400
  0.281000, 15.795000
  0.283000, 15.644100
  0.285000, 15.485100
  0.287000, 15.330000
  0.289000, 15.156900
  0.291000, 14.987400
  0.293000, 14.819300
  0.295000, 14.635300
  0.297000, 14.447300
  0.299000, 14.256000
  0.301000, 14.062200
  0.303000, 13.863200
  0.305000, 13.658500
  0.307000, 13.449600
  0.309000, 13.237700
  0.311000, 13.027300
  0.313000, 12.816600
  0.315000, 12.605000
  0.317000, 12.396500
  0.319000, 12.188200
  0.321000, 11.976900
  0.323000, 11.761900
  0.325000, 11.546100
  0.327000, 11.331000
  0.329000, 11.115200
  0.331000, 10.904800
  0.333000, 10.698000
  0.335000, 10.492400
  0.337000, 10.284100
  0.339000, 10.075400
  0.341000,  9.872700
  0.343000,  9.673100
  0.345000,  9.481100
  0.347000,  9.292200
  0.349000,  9.101800
  0.351000,  8.916300
  0.353000,  8.732900
  0.355000,  8.552600
  0.357000,  8.381100
  0.359000,  8.214700
  0.361000,  8.049800
  0.363000,  7.888400
  0.365000,  7.736300
  0.367000,  7.589900
  0.369000,  7.447500
  0.371000,  7.312000
  0.373000,  7.183100
  0.375000,  7.057800
  0.377000,  6.939000
  0.379000,  6.827100
  0.381000,  6.718000
  0.383000,  6.614100
  0.385000,  6.516400
  0.387000,  6.423800
  0.389000,  6.335700
  0.391000,  6.254000
  0.393000,  6.179000
  0.395000,  6.109500
  0.397000,  6.043900
  0.399000,  5.982600
  0.401000,  5.927000
  0.403000,  5.876200
  0.405000,  5.830100
  0.407000,  5.788900
  0.409000,  5.752000
  0.411000,  5.718900
  0.413000,  5.689900
  0.415000,  5.665500
  0.417000,  5.645000
  0.419000,  5.627500
  0.421000,  5.613100
  0.423000,  5.602000
  0.425000,  5.594100
  0.427000,  5.588700
  0.429000,  5.585200
  0.431000,  5.584300
  0.433000,  5.585100
  0.435000,  5.586800
  0.437000,  5.589600
  0.439000,  5.593800
  0.441000,  5.599100
  0.443000,  5.604100
  0.445000,  5.608200
  0.447000,  5.612200
  0.449000,  5.616200
  0.451000,  5.619000
  0.453000,  5.620900
  0.455000,  5.621200
  0.457000,  5.619600
  0.459000,  5.616500
  0.461000,  5.610900
  0.463000,  5.602100
  0.465000,  5.589700
  0.467000,  5.573200
  0.469000,  5.553900
  0.471000,  5.531400
  0.473000,  5.504900
  0.475000,  5.473900
  0.477000,  5.438400
  0.479000,  5.398600
  0.481000,  5.354300
  0.483000,  5.305500
  0.485000,  5.251800
  0.487000,  5.192800
  0.489000,  5.128800
  0.491000,  5.059900
  0.493000,  4.986100
  0.495000,  4.907500
  0.497000,  4.824000
  0.499000,  4.735400
  0.501000,  4.641600
  0.503000,  4.543600
  0.505000,  4.441200
  0.507000,  4.333900
  0.509000,  4.222700
  0.511000,  4.107700
  0.513000,  3.988100
  0.515000,  3.863900
  0.517000,  3.735300
  0.519000,  3.604300
  0.521000,  3.470700
  0.523000,  3.334000
  0.525000,  3.194400
  0.527000,  3.052400
  0.529000,  2.909600
  0.531000,  2.764500
  0.533000,  2.616900
  0.535000,  2.467900
  0.537000,  2.317700
  0.539000,  2.167000
  0.541000,  2.015700
  0.543000,  1.864400
  0.545000,  1.712400
  0.547000,  1.561400
  0.549000,  1.411900
  0.551000,  1.262500
  0.553000,  1.114300
  0.555000,  0.967400
  0.557000,  0.822000
  0.559000,  0.678400
  0.561000,  0.537200
  0.563000,  0.397900
  0.565000,  0.261100
  0.567000,  0.127400
  0.569000, -0.003500
  0.571000, -0.131600
  0.573000, -0.256400
  0.575000, -0.378100
  0.577000, -0.496000
  0.579000, -0.610100
  0.581000, -0.720200
  0.583000, -0.826500
  0.585000, -0.928900
  0.587000, -1.027500
  0.589000, -1.121600
  0.591000, -1.211500
  0.593000, -1.297300
  0.595000, -1.378500
  0.597000, -1.455600
  0.599000, -1.528000
  0.601000, -1.596000
  0.603000, -1.659700
  0.605000, -1.719000
  0.607000, -1.774300
  0.609000, -1.825100
  0.611000, -1.871600
  0.613000, -1.914100
  0.615000, -1.952100
  0.617000, -1.986000
  0.619000, -2.016100
  0.621000, -2.042400
  0.623000, -2.064600
  0.625000, -2.083500
  0.627000, -2.098900
  0.629000, -2.110300
  0.631000, -2.118100
  0.633000, -2.123400
  0.635000, -2.125500
  0.637000, -2.124800
  0.639000, -2.121600
  0.641000, -2.115800
  0.643000, -2.107600
  0.645000, -2.096700
  0.647000, -2.083600
  0.649000, -2.068200
  0.651000, -2.051200
  0.653000, -2.032600
  0.655000, -2.012200
  0.657000, -1.990200
  0.659000, -1.966800
  0.661000, -1.942000
  0.663000, -1.916000
  0.665000, -1.889100
  0.667000, -1.861300
  0.669000, -1.832700
  0.671000, -1.803800
  0.673000, -1.774500
  0.675000, -1.744600
  0.677000, -1.714600
  0.679000, -1.684400
  0.681000, -1.653800
  0.683000, -1.623100
  0.685000, -1.592300
  0.687000, -1.561500
  0.689000, -1.531000
  0.691000, -1.500500
  0.693000, -1.470200
  0.695000, -1.440200
  0.697000, -1.410500
  0.699000, -1.381100
  0.701000, -1.352100
  0.703000, -1.323300
  0.705000, -1.294900
  0.707000, -1.266900
  0.709000, -1.239200
  0.711000, -1.211900
  0.713000, -1.184800
  0.715000, -1.158100
  0.717000, -1.131800
  0.719000, -1.105900
  0.721000, -1.080300
  0.723000, -1.054900
  0.725000, -1.029800
  0.727000, -1.004900
  0.729000, -0.980000
  0.731000, -0.955400
  0.733000, -0.931100
  0.735000, -0.906900
  0.737000, -0.882600
  0.739000, -0.858500
  0.741000, -0.834300
  0.743000, -0.810200
  0.745000, -0.786200
  0.747000, -0.762100
  0.749000, -0.738000
  0.751000, -0.713900
  0.753000, -0.689700
  0.755000, -0.665400
  0.757000, -0.641000
  0.759000, -0.616400
  0.761000, -0.591900
  0.763000, -0.567300
  0.765000, -0.542600
  0.767000, -0.518000
  0.769000, -0.493200
  0.771000, -0.468200
  0.773000, -0.443300
  0.775000, -0.418400
  0.777000, -0.393600
  0.779000, -0.368800
  0.781000, -0.344000
  0.783000, -0.319300
  0.785000, -0.294600
  0.787000, -0.270100
  0.789000, -0.245700
  0.791000, -0.221500
  0.793000, -0.197700
  0.795000, -0.174300
  0.797000, -0.151200
  0.799000, -0.128500
  0.801000, -0.106200
  0.803000, -0.084400
  0.805000, -0.063200
  0.807000, -0.042700
  0.809000, -0.022600
  0.811000, -0.003100
  0.813000,  0.015600
  0.815000,  0.033700
  0.817000,  0.051100
  0.819000,  0.067900
  0.821000,  0.083700
  0.823000,  0.098700
  0.825000,  0.113100
  0.827000,  0.126500
  0.829000,  0.139100
  0.831000,  0.150700
  0.833000,  0.161400
  0.835000,  0.171100
  0.837000,  0.180000
  0.839000,  0.188100
  0.841000,  0.195200
  0.843000,  0.201300
  0.845000,  0.206600
  0.847000,  0.210900
  0.849000,  0.214200
  0.851000,  0.216700
  0.853000,  0.218300
  0.855000,  0.219100
  0.857000,  0.219000
  0.859000,  0.218100
  0.861000,  0.216400
  0.863000,  0.214100
  0.865000,  0.211200
  0.867000,  0.207400
  0.869000,  0.203000
  0.871000,  0.198100
  0.873000,  0.192600
  0.875000,  0.186500
  0.877000,  0.179900
  0.879000,  0.172900
  0.881000,  0.165300
  0.883000,  0.157500
  0.885000,  0.149300
  0.887000,  0.140800
  0.889000,  0.131900
  0.891000,  0.122800
  0.893000,  0.113600
  0.895000,  0.104200
  0.897000,  0.094500
  0.899000,  0.084600
  0.901000,  0.074500
  0.903000,  0.064400
  0.905000,  0.054300
  0.907000,  0.044200
  0.909000,  0.034100
  0.911000,  0.024000
  0.913000,  0.014000
  0.915000,  0.004100
  0.917000, -0.005700
  0.919000, -0.015400
  0.921000, -0.024800
  0.923000, -0.034100
  0.925000, -0.043400
  0.927000, -0.052500
  0.929000, -0.061500
  0.931000, -0.070200
  0.933000, -0.078800
  0.935000, -0.087300
  0.937000, -0.095500
  0.939000, -0.103500
  0.941000, -0.111200
  0.943000, -0.118800
  0.945000, -0.126100
  0.947000, -0.133300
  0.949000, -0.140200
  0.951000, -0.146800
  0.953000, -0.153200
  0.955000, -0.159400
  0.957000, -0.165400
  0.959000, -0.171200
  0.961000, -0.176800
  0.963000, -0.182200
  0.965000, -0.187400
  0.967000, -0.192300
  0.969000, -0.197100
  0.971000, -0.201600
  0.973000, -0.205900
  0.975000, -0.210000
  0.977000, -0.213900
  0.979000, -0.217600
  0.981000, -0.221100
  0.983000, -0.224400
  0.985000, -0.227500
  0.987000, -0.230400
  0.989000, -0.233000
  0.991000, -0.235400
  0.993000, -0.237700
  0.995000, -0.239600
  0.997000, -0.241300
  0.999000, -0.242700
  1.001000, -0.244000
  1.003000, -0.245200
  1.005000, -0.246100
  1.007000, -0.246700
  1.009000, -0.247100
  1.011000, -0.247200
  1.013000, -0.247200
  1.015000, -0.246900
  1.017000, -0.246300
  1.019000, -0.245700
  1.021000, -0.244700
  1.023000, -0.243500
  1.025000, -0.242100
  1.027000, -0.240500
  1.029000, -0.238700
  1.031000, -0.236700
  1.033000, -0.234500
  1.035000, -0.232000
  1.037000, -0.229200
  1.039000, -0.226300
  1.041000, -0.223100
  1.043000, -0.219800
  1.045000, -0.216200
  1.047000, -0.212400
  1.049000, -0.208400
  1.051000, -0.204300
  1.053000, -0.200000
  1.055000, -0.195500
  1.057000, -0.191000
  1.059000, -0.186300
  1.061000, -0.181400
  1.063000, -0.176500
  1.065000, -0.171300
  1.067000, -0.166100
  1.069000, -0.160700
  1.071000, -0.155300
  1.073000, -0.149700
  1.075000, -0.144100
  1.077000, -0.138500
  1.079000, -0.132800
  1.081000, -0.127000
  1.083000, -0.121200
  1.085000, -0.115400
  1.087000, -0.109600
  1.089000, -0.103900
  1.091000, -0.098200
  1.093000, -0.092500
  1.095000, -0.086800
  1.097000, -0.081100
  1.099000, -0.075600
  1.101000, -0.070100
  1.103000, -0.064600
  1.105000, -0.059300
  1.107000, -0.054100
  1.109000, -0.049000
  1.111000, -0.044100
  1.113000, -0.039300
  1.115000, -0.034600
  1.117000, -0.030000
  1.119000, -0.025500
  1.121000, -0.021100
  1.123000, -0.016900
  1.125000, -0.012800
  1.127000, -0.008800
  1.129000, -0.004900
  1.131000, -0.001200
  1.133000,  0.002300
  1.135000,  0.005700
  1.137000,  0.009000
  1.139000,  0.012000
  1.141000,  0.014900
  1.143000,  0.017600
  1.145000,  0.020300
  1.147000,  0.022900
  1.149000,  0.025200
  1.151000,  0.027500
  1.153000,  0.029600
  1.155000,  0.031600
  1.157000,  0.033500
  1.159000,  0.035300
  1.161000,  0.036900
  1.163000,  0.038400
  1.165000,  0.039800
  1.167000,  0.041000
  1.169000,  0.042200
  1.171000,  0.043200
  1.173000,  0.044200
  1.175000,  0.045100
  1.177000,  0.045900
  1.179000,  0.046500
  1.181000,  0.047100
  1.183000,  0.047700
  1.185000,  0.048200
  1.187000,  0.048700
  1.189000,  0.049000
  1.191000,  0.049300
  1.193000,  0.049500
  1.195000,  0.049800
  1.197000,  0.049900
  1.199000,  0.049900
  1.201000,  0.049900
  1.203000,  0.050000
  1.205000,  0.049900
  1.207000,  0.049800
  1.209000,  0.049700
  1.211000,  0.049600
  1.213000,  0.049500
  1.215000,  0.049400
  1.217000,  0.049200
  1.219000,  0.048900
  1.221000,  0.048600
  1.223000,  0.048300
  1.225000,  0.048100
  1.227000,  0.047800
  1.229000,  0.047500
  1.231000,  0.047100
  1.233000,  0.046600
  1.235000,  0.046200
  1.237000,  0.045800
  1.239000,  0.045300
  1.241000,  0.044700
  1.243000,  0.043900
  1.245000,  0.043100
  1.247000,  0.042100
  1.249000,  0.041200
  1.251000,  0.040400
  1.253000,  0.039400
  1.255000,  0.038300
  1.257000,  0.037100
  1.259000,  0.035800
  1.261000,  0.034400
  1.263000,  0.032800
  1.265000,  0.031100
  1.267000,  0.029300
  1.269000,  0.027400
  1.271000,  0.025400
  1.273000,  0.023300
  1.275000,  0.021200
  1.277000,  0.018900
  1.279000,  0.016600
  1.281000,  0.014200
  1.283000,  0.011800
  1.285000,  0.009200
  1.287000,  0.006500
  1.289000,  0.003900
  1.291000,  0.001100
  1.293000, -0.001800
  1.295000, -0.004700
  1.297000, -0.007600
  1.299000, -0.010500
  1.301000, -0.013400
  1.303000, -0.016300
  1.305000, -0.019300
  1.307000, -0.022200
  1.309000, -0.025000
  1.311000, -0.027700
  1.313000, -0.030300
  1.315000, -0.033000
  1.317000, -0.035500
  1.319000, -0.037900
  1.321000, -0.040200
  1.323000, -0.042400
  1.325000, -0.044500
  1.327000, -0.046400
  1.329000, -0.048000
  1.331000, -0.049500
  1.333000, -0.050700
  1.335000, -0.051800
  1.337000, -0.052700
  1.339000, -0.053400
  1.341000, -0.053800
  1.343000, -0.054000
  1.345000, -0.054000
  1.347000, -0.053700
  1.349000, -0.053200
  1.351000, -0.052400
  1.353000, -0.051400
  1.355000, -0.050200
  1.357000, -0.048700
  1.359000, -0.047100
  1.361000, -0.045300
  1.363000, -0.043300
  1.365000, -0.041100
  1.367000, -0.038700
  1.369000, -0.036100
  1.371000, -0.033400
  1.373000, -0.030600
  1.375000, -0.027900
  1.377000, -0.025100
  1.379000, -0.022200
  1.381000, -0.019300
  1.383000, -0.016500
  1.385000, -0.013500
  1.387000, -0.010600
  1.389000, -0.008000
  1.391000, -0.005600
  1.393000, -0.003500
  1.395000, -0.001500
  1.397000,  0.000000
  1.399000,  0.001200
