# z (nm)   (kJ/mol)
  0.243000,  9.226800
  0.245000,  9.005600
  0.247000,  8.800000
  0.249000,  8.603200
  0.251000,  8.408500
  0.253000,  8.230100
  0.255000,  8.060000
  0.257000,  7.895800
  0.259000,  7.738200
  0.261000,  7.589800
  0.263000,  7.456200
  0.265000,  7.333500
  0.267000,  7.219300
  0.269000,  7.114900
  0.271000,  7.021300
  0.273000,  6.937900
  0.275000,  6.863700
  0.277000,  6.798600
  0.279000,  6.743700
  0.281000,  6.698700
  0.283000,  6.663500
  0.285000,  6.637200
  0.287000,  6.620400
  0.289000,  6.612600
  0.291000,  6.614100
  0.293000,  6.624300
  0.295000,  6.642800
  0.297000,  6.669900
  0.299000,  6.705400
  0.301000,  6.748500
  0.303000,  6.800100
  0.305000,  6.859900
  0.307000,  6.926800
  0.309000,  6.999500
  0.311000,  7.079400
  0.313000,  7.167600
  0.315000,  7.257200
  0.317000,  7.351400
  0.319000,  7.455000
  0.321000,  7.563200
  0.323000,  7.675300
  0.325000,  7.788400
  0.327000,  7.905300
  0.329000,  8.027300
  0.331000,  8.151300
  0.333000,  8.275000
  0.335000,  8.396800
  0.337000,  8.514600
  0.339000,  8.632100
  0.341000,  8.748100
  0.343000,  8.859900
  0.345000,  8.972200
  0.347000,  9.074900
  0.349000,  9.170100
  0.351000,  9.261000
  0.353000,  9.342000
  0.355000,  9.415600
  0.357000,  9.478000
  0.359000,  9.527200
  0.361000,  9.568100
  0.363000,  9.598400
  0.365000,  9.617200
  0.367000,  9.627300
  0.369000,  9.625900
  0.371000,  9.611400
  0.373000,  9.585800
  0.375000,  9.547200
  0.377000,  9.499800
  0.379000,  9.443500
  0.381000,  9.370300
  0.383000,  9.285800
  0.385000,  9.189800
  0.387000,  9.078300
  0.389000,  8.955700
  0.391000,  8.823800
  0.393000,  8.682900
  0.395000,  8.529400
  0.397000,  8.367800
  0.399000,  8.202000
  0.401000,  8.030700
  0.403000,  7.852900
  0.405000,  7.666400
  0.407000,  7.473300
  0.409000,  7.276100
  0.411000,  7.074300
  0.413000,  6.869700
  0.415000,  6.662300
  0.417000,  6.450600
  0.419000,  6.237200
  0.421000,  6.022900
  0.423000,  5.810600
  0.425000,  5.596500
  0.427000,  5.380700
  0.429000,  5.166200
  0.431000,  4.950800
  0.433000,  4.736800
  0.435000,  4.527300
  0.437000,  4.320900
  0.439000,  4.115200
  0.441000,  3.913800
  0.443000,  3.717800
  0.445000,  3.526200
  0.447000,  3.338600
  0.449000,  3.153700
  0.451000,  2.974200
  0.453000,  2.801100
  0.455000,  2.632000
  0.457000,  2.468200
  0.459000,  2.312700
  0.461000,  2.163000
  0.463000,  2.015700
  0.465000,  1.873600
  0.467000,  1.737600
  0.469000,  1.606800
  0.471000,  1.482900
  0.473000,  1.365500
  0.475000,  1.253800
  0.477000,  1.147300
  0.479000,  1.046200
  0.481000,  0.951200
  0.483000,  0.862200
  0.485000,  0.779300
  0.487000,  0.702000
  0.489000,  0.629600
  0.491000,  0.562500
  0.493000,  0.500500
  0.495000,  0.443300
  0.497000,  0.391400
  0.499000,  0.344500
  0.501000,  0.302100
  0.503000,  0.264000
  0.505000,  0.230300
  0.507000,  0.200400
  0.509000,  0.174100
  0.511000,  0.151600
  0.513000,  0.132800
  0.515000,  0.117400
  0.517000,  0.105200
  0.519000,  0.095500
  0.521000,  0.088600
  0.523000,  0.084400
  0.525000,  0.082800
  0.527000,  0.083500
  0.529000,  0.085600
  0.531000,  0.089000
  0.533000,  0.094300
  0.535000,  0.101000
  0.537000,  0.108600
  0.539000,  0.117200
  0.541000,  0.126700
  0.543000,  0.137200
  0.545000,  0.148300
  0.547000,  0.159600
  0.549000,  0.171300
  0.551000,  0.183400
  0.553000,  0.195500
  0.555000,  0.207500
  0.557000,  0.219400
  0.559000,  0.231200
  0.561000,  0.242800
  0.563000,  0.254100
  0.565000,  0.265000
  0.567000,  0.275200
  0.569000,  0.285000
  0.571000,  0.294500
  0.573000,  0.303500
  0.575000,  0.312300
  0.577000,  0.320500
  0.579000,  0.328000
  0.581000,  0.334900
  0.583000,  0.341600
  0.585000,  0.347500
  0.587000,  0.352800
  0.589000,  0.357800
  0.591000,  0.362500
  0.593000,  0.366600
  0.595000,  0.370100
  0.597000,  0.373200
  0.599000,  0.376100
  0.601000,  0.378600
  0.603000,  0.380700
  0.605000,  0.382700
  0.607000,  0.384300
  0.609000,  0.385400
  0.611000,  0.386500
  0.613000,  0.387400
  0.615000,  0.388200
  0.617000,  0.388800
  0.619000,  0.389100
  0.621000,  0.389300
  0.623000,  0.389300
  0.625000,  0.389300
  0.627000,  0.389200
  0.629000,  0.389200
  0.631000,  0.389300
  0.633000,  0.389300
  0.635000,  0.389200
  0.637000,  0.389100
  0.639000,  0.389100
  0.641000,  0.389000
  0.643000,  0.389000
  0.645000,  0.388900
  0.647000,  0.388900
  0.649000,  0.388800
  0.651000,  0.388900
  0.653000,  0.389000
  0.655000,  0.389000
  0.657000,  0.389200
  0.659000,  0.389300
  0.661000,  0.389300
  0.663000,  0.389500
  0.665000,  0.389800
  0.667000,  0.389900
  0.669000,  0.390000
  0.671000,  0.390000
  0.673000,  0.390200
  0.675000,  0.390400
  0.677000,  0.390600
  0.679000,  0.390900
  0.681000,  0.391100
  0.683000,  0.391200
  0.685000,  0.391300
  0.687000,  0.391400
  0.689000,  0.391600
  0.691000,  0.391700
  0.693000,  0.391900
  0.695000,  0.392000
  0.697000,  0.392100
  0.699000,  0.392300
  0.701000,  0.392600
  0.703000,  0.392900
  0.705000,  0.393200
  0.707000,  0.393400
  0.709000,  0.393700
  0.711000,  0.394200
  0.713000,  0.394600
  0.715000,  0.395000
  0.717000,  0.395500
  0.719000,  0.396000
  0.721000,  0.396500
  0.723000,  0.397200
  0.725000,  0.397900
  0.727000,  0.398700
  0.729000,  0.399700
  0.731000,  0.400900
  0.733000,  0.402100
  0.735000,  0.403300
  0.737000,  0.404700
  0.739000,  0.406300
  0.741000,  0.407800
  0.743000,  0.409500
  0.745000,  0.411400
  0.747000,  0.413400
  0.749000,  0.415500
  0.751000,  0.417600
  0.753000,  0.419800
  0.755000,  0.422100
  0.757000,  0.424500
  0.759000,  0.426900
  0.761000,  0.429400
  0.763000,  0.431900
  0.765000,  0.434400
  0.767000,  0.436800
  0.769000,  0.439300
  0.771000,  0.441800
  0.773000,  0.444300
  0.775000,  0.446700
  0.777000,  0.449100
  0.779000,  0.451300
  0.781000,  0.453300
  0.783000,  0.455300
  0.785000,  0.457200
  0.787000,  0.458900
  0.789000,  0.460200
  0.791000,  0.461400
  0.793000,  0.462400
  0.795000,  0.463100
  0.797000,  0.463500
  0.799000,  0.463800
  0.801000,  0.463800
  0.803000,  0.463400
  0.805000,  0.462900
  0.807000,  0.462000
  0.809000,  0.460700
  0.811000,  0.459100
  0.813000,  0.457000
  0.815000,  0.454600
  0.817000,  0.451900
  0.819000,  0.448700
  0.821000,  0.445200
  0.823000,  0.441200
  0.825000,  0.436900
  0.827000,  0.432300
  0.829000,  0.427200
  0.831000,  0.421700
  0.833000,  0.415700
  0.835000,  0.409500
  0.837000,  0.403000
  0.839000,  0.396100
  0.841000,  0.388900
  0.843000,  0.381400
  0.845000,  0.373600
  0.847000,  0.365500
  0.849000,  0.357200
  0.851000,  0.348500
  0.853000,  0.339600
  0.855000,  0.330500
  0.857000,  0.321100
  0.859000,  0.311600
  0.861000,  0.301900
  0.863000,  0.292000
  0.865000,  0.281900
  0.867000,  0.271800
  0.869000,  0.261600
  0.871000,  0.251200
  0.873000,  0.240800
  0.875000,  0.230400
  0.877000,  0.220000
  0.879000,  0.209500
  0.881000,  0.199100
  0.883000,  0.188700
  0.885000,  0.178400
  0.887000,  0.168100
  0.889000,  0.157900
  0.891000,  0.147800
  0.893000,  0.137800
  0.895000,  0.128100
  0.897000,  0.118600
  0.899000,  0.109200
  0.901000,  0.099900
  0.903000,  0.090900
  0.905000,  0.082100
  0.907000,  0.073500
  0.909000,  0.065200
  0.911000,  0.057000
  0.913000,  0.049200
  0.915000,  0.041600
  0.917000,  0.034300
  0.919000,  0.027300
  0.921000,  0.020600
  0.923000,  0.014300
  0.925000,  0.008300
  0.927000,  0.002700
  0.929000, -0.002700
  0.931000, -0.007800
  0.933000, -0.012500
  0.935000, -0.017000
  0.937000, -0.021200
  0.939000, -0.024900
  0.941000, -0.028200
  0.943000, -0.031200
  0.945000, -0.033800
  0.947000, -0.036000
  0.949000, -0.037900
  0.951000, -0.039400
  0.953000, -0.040500
  0.955000, -0.041300
  0.957000, -0.041700
  0.959000, -0.041800
  0.961000, -0.041500
  0.963000, -0.041000
  0.965000, -0.040000
  0.967000, -0.038600
  0.969000, -0.036900
  0.971000, -0.034900
  0.973000, -0.032600
  0.975000, -0.029900
  0.977000, -0.026900
  0.979000, -0.023700
  0.981000, -0.020200
  0.983000, -0.016300
  0.985000, -0.012100
  0.987000, -0.007700
  0.989000, -0.003000
  0.991000,  0.001900
  0.993000,  0.007000
  0.995000,  0.012500
  0.997000,  0.018200
  0.999000,  0.024100
  1.001000,  0.030100
  1.003000,  0.036200
  1.005000,  0.042400
  1.007000,  0.048800
  1.009000,  0.055400
  1.011000,  0.062200
  1.013000,  0.069000
  1.015000,  0.075800
  1.017000,  0.082700
  1.019000,  0.089600
  1.021000,  0.096600
  1.023000,  0.103500
  1.025000,  0.110300
  1.027000,  0.117100
  1.029000,  0.123800
  1.031000,  0.130500
  1.033000,  0.137100
  1.035000,  0.143600
  1.037000,  0.149900
  1.039000,  0.156100
  1.041000,  0.162200
  1.043000,  0.168000
  1.045000,  0.173800
  1.047000,  0.179200
  1.049000,  0.184400
  1.051000,  0.189200
  1.053000,  0.193800
  1.055000,  0.198200
  1.057000,  0.202200
  1.059000,  0.206000
  1.061000,  0.209500
  1.063000,  0.212700
  1.065000,  0.215600
  1.067000,  0.218200
  1.069000,  0.220500
  1.071000,  0.222400
  1.073000,  0.224100
  1.075000,  0.225400
  1.077000,  0.226400
  1.079000,  0.227100
  1.081000,  0.227500
  1.083000,  0.227500
  1.085000,  0.227200
  1.087000,  0.226500
  1.089000,  0.225700
  1.091000,  0.224700
  1.093000,  0.223300
  1.095000,  0.221600
  1.097000,  0.219600
  1.099000,  0.217400
  1.101000,  0.214900
  1.103000,  0.212300
  1.105000,  0.209300
  1.107000,  0.206100
  1.109000,  0.202700
  1.111000,  0.199300
  1.113000,  0.195700
  1.115000,  0.191900
  1.117000,  0.188100
  1.119000,  0.184200
  1.121000,  0.180200
  1.123000,  0.176000
  1.125000,  0.171700
  1.127000,  0.167500
  1.129000,  0.163300
  1.131000,  0.159100
  1.133000,  0.154900
  1.135000,  0.150600
  1.137000,  0.146400
  1.139000,  0.142300
  1.141000,  0.138200
  1.143000,  0.134100
  1.145000,  0.130200
  1.147000,  0.126400
  1.149000,  0.122600
  1.151000,  0.119000
  1.153000,  0.115300
  1.155000,  0.111800
  1.157000,  0.108400
  1.159000,  0.105100
  1.161000,  0.102100
  1.163000,  0.099100
  1.165000,  0.096200
  1.167000,  0.093300
  1.169000,  0.090600
  1.171000,  0.088100
  1.173000,  0.085600
  1.175000,  0.083200
  1.177000,  0.081000
  1.179000,  0.078800
  1.181000,  0.076700
  1.183000,  0.074700
  1.185000,  0.072800
  1.187000,  0.070900
  1.189000,  0.069000
  1.191000,  0.067200
  1.193000,  0.065400
  1.195000,  0.063600
  1.197000,  0.061800
  1.199000,  0.060000
  1.201000,  0.058200
  1.203000,  0.056500
  1.205000,  0.054800
  1.207000,  0.053000
  1.209000,  0.051100
  1.211000,  0.049200
  1.213000,  0.047200
  1.215000,  0.045200
  1.217000,  0.043100
  1.219000,  0.040900
  1.221000,  0.038700
  1.223000,  0.036500
  1.225000,  0.034100
  1.227000,  0.031700
  1.229000,  0.029200
  1.231000,  0.026800
  1.233000,  0.024300
  1.235000,  0.021800
  1.237000,  0.019200
  1.239000,  0.016500
  1.241000,  0.013800
  1.243000,  0.011000
  1.245000,  0.008200
  1.247000,  0.005300
  1.249000,  0.002500
  1.251000, -0.000300
  1.253000, -0.003200
  1.255000, -0.006000
  1.257000, -0.008800
  1.259000, -0.011700
  1.261000, -0.014500
  1.263000, -0.017200
  1.265000, -0.019800
  1.267000, -0.022400
  1.269000, -0.024900
  1.271000, -0.027200
  1.273000, -0.029400
  1.275000, -0.031600
  1.277000, -0.033600
  1.279000, -0.035500
  1.281000, -0.037300
  1.283000, -0.038900
  1.285000, -0.040300
  1.287000, -0.041400
  1.289000, -0.042500
  1.291000, -0.043400
  1.293000, -0.044000
  1.295000, -0.044600
  1.297000, -0.045000
  1.299000, -0.045100
  1.301000, -0.045100
  1.303000, -0.044900
  1.305000, -0.044400
  1.307000, -0.043800
  1.309000, -0.043000
  1.311000, -0.042100
  1.313000, -0.041000
  1.315000, -0.039600
  1.317000, -0.038200
  1.319000, -0.036700
  1.321000, -0.035000
  1.323000, -0.033200
  1.325000, -0.031200
  1.327000, -0.029200
  1.329000, -0.027200
  1.331000, -0.025100
  1.333000, -0.022800
  1.335000, -0.020500
  1.337000, -0.018000
  1.339000, -0.015500
  1.341000, -0.012900
  1.343000, -0.010300
  1.345000, -0.007800
  1.347000, -0.005300
  1.349000, -0.002700
  1.351000, -0.000100
  1.353000,  0.002600
  1.355000,  0.005200
  1.357000,  0.007800
  1.359000,  0.010300
  1.361000,  0.012800
  1.363000,  0.015200
  1.365000,  0.017500
  1.367000,  0.019800
  1.369000,  0.022000
  1.371000,  0.024000
  1.373000,  0.025900
  1.375000,  0.027700
  1.377000,  0.029300
  1.379000,  0.030800
  1.381000,  0.032200
  1.383000,  0.033400
  1.385000,  0.034300
  1.387000,  0.034900
  1.389000,  0.035400
  1.391000,  0.035400
  1.393000,  0.035200
  1.395000,  0.034600
  1.397000,  0.033500
  1.399000,  0.032100
