# z (nm)   (kJ/mol)
  0.271000, 13.137000
  0.273000, 12.868000
  0.275000, 12.612100
  0.277000, 12.339800
  0.279000, 12.060300
  0.281000, 11.783500
  0.283000, 11.511700
  0.285000, 11.244900
  0.287000, 10.974200
  0.289000, 10.698800
  0.291000, 10.432000
  0.293000, 10.163300
  0.295000,  9.896600
  0.297000,  9.638300
  0.299000,  9.381600
  0.301000,  9.123500
  0.303000,  8.868000
  0.305000,  8.617000
  0.307000,  8.374300
  0.309000,  8.134700
  0.311000,  7.895300
  0.313000,  7.660600
  0.315000,  7.434200
  0.317000,  7.212300
  0.319000,  6.990400
  0.321000,  6.773400
  0.323000,  6.562000
  0.325000,  6.355600
  0.327000,  6.153200
  0.329000,  5.953400
  0.331000,  5.755900
  0.333000,  5.562100
  0.335000,  5.373200
  0.337000,  5.189400
  0.339000,  5.010000
  0.341000,  4.832900
  0.343000,  4.660500
  0.345000,  4.492500
  0.347000,  4.325900
  0.349000,  4.161400
  0.351000,  4.000200
  0.353000,  3.842600
  0.355000,  3.688800
  0.357000,  3.538700
  0.359000,  3.390600
  0.361000,  3.243700
  0.363000,  3.099500
  0.365000,  2.959400
  0.367000,  2.820600
  0.369000,  2.682600
  0.371000,  2.549600
  0.373000,  2.420100
  0.375000,  2.291900
  0.377000,  2.166300
  0.379000,  2.046100
  0.381000,  1.930100
  0.383000,  1.816200
  0.385000,  1.704300
  0.387000,  1.596500
  0.389000,  1.493300
  0.391000,  1.393200
  0.393000,  1.295800
  0.395000,  1.201900
  0.397000,  1.111800
  0.399000,  1.025400
  0.401000,  0.943200
  0.403000,  0.864400
  0.405000,  0.788900
  0.407000,  0.717300
  0.409000,  0.650000
  0.411000,  0.586900
  0.413000,  0.527500
  0.415000,  0.472100
  0.417000,  0.420700
  0.419000,  0.373400
  0.421000,  0.329700
  0.423000,  0.289500
  0.425000,  0.253300
  0.427000,  0.221100
  0.429000,  0.192600
  0.431000,  0.167600
  0.433000,  0.146100
  0.435000,  0.128100
  0.437000,  0.113400
  0.439000,  0.102400
  0.441000,  0.095200
  0.443000,  0.090900
  0.445000,  0.089100
  0.447000,  0.089800
  0.449000,  0.093200
  0.451000,  0.099200
  0.453000,  0.107700
  0.455000,  0.118600
  0.457000,  0.132100
  0.459000,  0.147300
  0.461000,  0.163400
  0.463000,  0.180900
  0.465000,  0.200200
  0.467000,  0.220700
  0.469000,  0.242400
  0.471000,  0.264700
  0.473000,  0.287300
  0.475000,  0.311200
  0.477000,  0.335000
  0.479000,  0.358200
  0.481000,  0.380900
  0.483000,  0.404100
  0.485000,  0.427400
  0.487000,  0.449700
  0.489000,  0.470700
  0.491000,  0.490000
  0.493000,  0.508300
  0.495000,  0.524800
  0.497000,  0.539700
  0.499000,  0.553400
  0.501000,  0.564900
  0.503000,  0.573700
  0.505000,  0.580800
  0.507000,  0.586100
  0.509000,  0.588500
  0.511000,  0.588100
  0.513000,  0.585600
  0.515000,  0.580400
  0.517000,  0.572400
  0.519000,  0.561900
  0.521000,  0.548500
  0.523000,  0.532200
  0.525000,  0.513600
  0.527000,  0.492500
  0.529000,  0.468400
  0.531000,  0.441400
  0.533000,  0.411500
  0.535000,  0.379100
  0.537000,  0.344300
  0.539000,  0.306900
  0.541000,  0.267000
  0.543000,  0.224600
  0.545000,  0.179900
  0.547000,  0.132900
  0.549000,  0.083700
  0.551000,  0.032600
  0.553000, -0.020200
  0.555000, -0.074700
  0.557000, -0.131000
  0.559000, -0.188800
  0.561000, -0.247900
  0.563000, -0.308300
  0.565000, -0.369400
  0.567000, -0.431200
  0.569000, -0.493900
  0.571000, -0.557200
  0.573000, -0.620800
  0.575000, -0.685100
  0.577000, -0.749300
  0.579000, -0.813300
  0.581000, -0.877100
  0.583000, -0.940600
  0.585000, -1.003400
  0.587000, -1.065700
  0.589000, -1.127000
  0.591000, -1.187500
  0.593000, -1.247000
  0.595000, -1.305100
  0.597000, -1.361900
  0.599000, -1.417100
  0.601000, -1.470800
  0.603000, -1.522900
  0.605000, -1.573200
  0.607000, -1.621500
  0.609000, -1.667900
  0.611000, -1.712400
  0.613000, -1.754700
  0.615000, -1.794800
  0.617000, -1.832900
  0.619000, -1.868700
  0.621000, -1.902300
  0.623000, -1.933400
  0.625000, -1.962100
  0.627000, -1.988500
  0.629000, -2.012500
  0.631000, -2.034300
  0.633000, -2.054100
  0.635000, -2.071400
  0.637000, -2.086400
  0.639000, -2.099100
  0.641000, -2.109600
  0.643000, -2.118200
  0.645000, -2.124300
  0.647000, -2.128400
  0.649000, -2.130500
  0.651000, -2.130700
  0.653000, -2.129200
  0.655000, -2.125600
  0.657000, -2.120000
  0.659000, -2.113000
  0.661000, -2.104100
  0.663000, -2.093700
  0.665000, -2.081800
  0.667000, -2.068700
  0.669000, -2.053900
  0.671000, -2.037700
  0.673000, -2.020600
  0.675000, -2.002400
  0.677000, -1.983100
  0.679000, -1.963100
  0.681000, -1.942000
  0.683000, -1.919900
  0.685000, -1.897000
  0.687000, -1.873400
  0.689000, -1.849300
  0.691000, -1.824500
  0.693000, -1.799100
  0.695000, -1.773200
  0.697000, -1.747100
  0.699000, -1.720600
  0.701000, -1.693800
  0.703000, -1.666500
  0.705000, -1.638800
  0.707000, -1.611000
  0.709000, -1.583200
  0.711000, -1.555200
  0.713000, -1.527000
  0.715000, -1.498800
  0.717000, -1.470500
  0.719000, -1.442100
  0.721000, -1.413700
  0.723000, -1.385300
  0.725000, -1.357000
  0.727000, -1.328800
  0.729000, -1.300600
  0.731000, -1.272500
  0.733000, -1.244500
  0.735000, -1.216600
  0.737000, -1.188900
  0.739000, -1.161300
  0.741000, -1.133800
  0.743000, -1.106400
  0.745000, -1.079200
  0.747000, -1.052200
  0.749000, -1.025100
  0.751000, -0.998200
  0.753000, -0.971600
  0.755000, -0.945300
  0.757000, -0.919000
  0.759000, -0.893000
  0.761000, -0.867000
  0.763000, -0.841500
  0.765000, -0.816000
  0.767000, -0.790800
  0.769000, -0.766000
  0.771000, -0.741500
  0.773000, -0.717000
  0.775000, -0.692800
  0.777000, -0.668800
  0.779000, -0.645100
  0.781000, -0.621800
  0.783000, -0.598900
  0.785000, -0.576400
  0.787000, -0.554300
  0.789000, -0.532700
  0.791000, -0.511500
  0.793000, -0.490700
  0.795000, -0.470400
  0.797000, -0.450500
  0.799000, -0.431000
  0.801000, -0.412000
  0.803000, -0.393700
  0.805000, -0.375700
  0.807000, -0.358300
  0.809000, -0.341600
  0.811000, -0.325500
  0.813000, -0.309900
  0.815000, -0.295000
  0.817000, -0.280700
  0.819000, -0.267100
  0.821000, -0.254200
  0.823000, -0.242000
  0.825000, -0.230500
  0.827000, -0.219800
  0.829000, -0.209700
  0.831000, -0.200400
  0.833000, -0.191800
  0.835000, -0.184000
  0.837000, -0.177000
  0.839000, -0.170700
  0.841000, -0.165100
  0.843000, -0.160200
  0.845000, -0.156100
  0.847000, -0.152700
  0.849000, -0.150000
  0.851000, -0.148100
  0.853000, -0.146700
  0.855000, -0.146000
  0.857000, -0.145900
  0.859000, -0.146500
  0.861000, -0.147700
  0.863000, -0.149500
  0.865000, -0.151900
  0.867000, -0.154700
  0.869000, -0.158000
  0.871000, -0.161700
  0.873000, -0.165900
  0.875000, -0.170500
  0.877000, -0.175400
  0.879000, -0.180800
  0.881000, -0.186600
  0.883000, -0.192600
  0.885000, -0.198800
  0.887000, -0.205300
  0.889000, -0.212000
  0.891000, -0.218900
  0.893000, -0.225800
  0.895000, -0.232900
  0.897000, -0.240100
  0.899000, -0.247300
  0.901000, -0.254500
  0.903000, -0.261800
  0.905000, -0.269100
  0.907000, -0.276200
  0.909000, -0.283200
  0.911000, -0.290100
  0.913000, -0.296900
  0.915000, -0.303500
  0.917000, -0.310000
  0.919000, -0.316300
  0.921000, -0.322300
  0.923000, -0.328000
  0.925000, -0.333600
  0.927000, -0.339000
  0.929000, -0.344000
  0.931000, -0.348800
  0.933000, -0.353300
  0.935000, -0.357400
  0.937000, -0.361300
  0.939000, -0.364700
  0.941000, -0.367800
  0.943000, -0.370700
  0.945000, -0.373200
  0.947000, -0.375400
  0.949000, -0.377200
  0.951000, -0.378700
  0.953000, -0.379900
  0.955000, -0.380700
  0.957000, -0.381200
  0.959000, -0.381400
  0.961000, -0.381300
  0.963000, -0.380800
  0.965000, -0.380200
  0.967000, -0.379100
  0.969000, -0.377800
  0.971000, -0.376200
  0.973000, -0.374300
  0.975000, -0.372200
  0.977000, -0.369800
  0.979000, -0.367200
  0.981000, -0.364300
  0.983000, -0.361200
  0.985000, -0.358000
  0.987000, -0.354500
  0.989000, -0.350900
  0.991000, -0.347100
  0.993000, -0.343100
  0.995000, -0.339000
  0.997000, -0.334800
  0.999000, -0.330400
  1.001000, -0.325900
  1.003000, -0.321400
  1.005000, -0.316700
  1.007000, -0.311800
  1.009000, -0.306900
  1.011000, -0.302100
  1.013000, -0.297300
  1.015000, -0.292400
  1.017000, -0.287400
  1.019000, -0.282400
  1.021000, -0.277300
  1.023000, -0.272200
  1.025000, -0.267100
  1.027000, -0.262100
  1.029000, -0.257000
  1.031000, -0.252000
  1.033000, -0.247000
  1.035000, -0.242000
  1.037000, -0.237000
  1.039000, -0.232100
  1.041000, -0.227100
  1.043000, -0.222200
  1.045000, -0.217200
  1.047000, -0.212300
  1.049000, -0.207600
  1.051000, -0.202900
  1.053000, -0.198100
  1.055000, -0.193400
  1.057000, -0.188800
  1.059000, -0.184100
  1.061000, -0.179500
  1.063000, -0.175000
  1.065000, -0.170500
  1.067000, -0.166000
  1.069000, -0.161500
  1.071000, -0.157100
  1.073000, -0.152600
  1.075000, -0.148200
  1.077000, -0.143800
  1.079000, -0.139600
  1.081000, -0.135200
  1.083000, -0.130800
  1.085000, -0.126500
  1.087000, -0.122200
  1.089000, -0.117900
  1.091000, -0.113600
  1.093000, -0.109300
  1.095000, -0.105000
  1.097000, -0.100900
  1.099000, -0.096700
  1.101000, -0.092400
  1.103000, -0.088100
  1.105000, -0.083900
  1.107000, -0.079800
  1.109000, -0.075500
  1.111000, -0.071300
  1.113000, -0.067200
  1.115000, -0.063200
  1.117000, -0.059000
  1.119000, -0.054900
  1.121000, -0.050900
  1.123000, -0.046900
  1.125000, -0.043000
  1.127000, -0.039200
  1.129000, -0.035400
  1.131000, -0.031700
  1.133000, -0.028000
  1.135000, -0.024400
  1.137000, -0.020900
  1.139000, -0.017500
  1.141000, -0.014200
  1.143000, -0.010900
  1.145000, -0.007600
  1.147000, -0.004500
  1.149000, -0.001600
  1.151000,  0.001200
  1.153000,  0.003900
  1.155000,  0.006400
  1.157000,  0.008900
  1.159000,  0.011200
  1.161000,  0.013300
  1.163000,  0.015300
  1.165000,  0.017200
  1.167000,  0.018800
  1.169000,  0.020400
  1.171000,  0.021800
  1.173000,  0.023100
  1.175000,  0.024300
  1.177000,  0.025300
  1.179000,  0.026200
  1.181000,  0.026900
  1.183000,  0.027600
  1.185000,  0.028000
  1.187000,  0.028300
  1.189000,  0.028500
  1.191000,  0.028500
  1.193000,  0.028400
  1.195000,  0.028200
  1.197000,  0.027800
  1.199000,  0.027400
  1.201000,  0.026800
  1.203000,  0.026100
  1.205000,  0.025300
  1.207000,  0.024500
  1.209000,  0.023500
  1.211000,  0.022600
  1.213000,  0.021500
  1.215000,  0.020400
  1.217000,  0.019200
  1.219000,  0.018000
  1.221000,  0.016700
  1.223000,  0.015400
  1.225000,  0.014000
  1.227000,  0.012700
  1.229000,  0.011500
  1.231000,  0.010100
  1.233000,  0.008800
  1.235000,  0.007500
  1.237000,  0.006200
  1.239000,  0.004900
  1.241000,  0.003700
  1.243000,  0.002500
  1.245000,  0.001300
  1.247000,  0.000200
  1.249000, -0.000900
  1.251000, -0.001900
  1.253000, -0.002900
  1.255000, -0.003700
  1.257000, -0.004500
  1.259000, -0.005300
  1.261000, -0.006100
  1.263000, -0.006800
  1.265000, -0.007300
  1.267000, -0.007800
  1.269000, -0.008300
  1.271000, -0.008700
  1.273000, -0.009200
  1.275000, -0.009700
  1.277000, -0.010100
  1.279000, -0.010500
  1.281000, -0.010800
  1.283000, -0.011000
  1.285000, -0.011300
  1.287000, -0.011600
  1.289000, -0.011700
  1.291000, -0.011900
  1.293000, -0.012000
  1.295000, -0.012100
  1.297000, -0.012100
  1.299000, -0.012200
  1.301000, -0.012300
  1.303000, -0.012300
  1.305000, -0.012300
  1.307000, -0.012300
  1.309000, -0.012300
  1.311000, -0.012300
  1.313000, -0.012300
  1.315000, -0.012200
  1.317000, -0.012100
  1.319000, -0.011900
  1.321000, -0.011800
  1.323000, -0.011600
  1.325000, -0.011300
  1.327000, -0.011000
  1.329000, -0.010700
  1.331000, -0.010300
  1.333000, -0.009900
  1.335000, -0.009500
  1.337000, -0.009100
  1.339000, -0.008600
  1.341000, -0.008100
  1.343000, -0.007400
  1.345000, -0.006800
  1.347000, -0.006100
  1.349000, -0.005300
  1.351000, -0.004600
  1.353000, -0.003700
  1.355000, -0.002800
  1.357000, -0.001700
  1.359000, -0.000700
  1.361000,  0.000100
  1.363000,  0.001000
  1.365000,  0.002000
  1.367000,  0.003200
  1.369000,  0.004300
  1.371000,  0.005300
  1.373000,  0.006300
  1.375000,  0.007300
  1.377000,  0.008200
  1.379000,  0.009000
  1.381000,  0.009600
  1.383000,  0.010100
  1.385000,  0.010400
  1.387000,  0.010500
  1.389000,  0.010400
  1.391000,  0.010100
  1.393000,  0.009600
  1.395000,  0.008800
  1.397000,  0.007400
  1.399000,  0.005700
