# z (nm)   (kJ/mol)
  0.273000, 14.723700
  0.279000, 13.854400
  0.281000, 13.513400
  0.283000, 13.166200
  0.285000, 12.814000
  0.287000, 12.463800
  0.289000, 12.106600
  0.291000, 11.732600
  0.293000, 11.351500
  0.295000, 10.965600
  0.297000, 10.577800
  0.299000, 10.182000
  0.301000,  9.778900
  0.303000,  9.369700
  0.305000,  8.954100
  0.307000,  8.539700
  0.309000,  8.131100
  0.311000,  7.721600
  0.313000,  7.315200
  0.315000,  6.911300
  0.317000,  6.493200
  0.319000,  6.079300
  0.321000,  5.684300
  0.323000,  5.296100
  0.325000,  4.915200
  0.327000,  4.540700
  0.329000,  4.175500
  0.331000,  3.818500
  0.333000,  3.468100
  0.335000,  3.131500
  0.337000,  2.800600
  0.339000,  2.477400
  0.341000,  2.171000
  0.343000,  1.874800
  0.345000,  1.586500
  0.347000,  1.318200
  0.349000,  1.065300
  0.351000,  0.826500
  0.353000,  0.605700
  0.355000,  0.398600
  0.357000,  0.206500
  0.359000,  0.030500
  0.361000, -0.130200
  0.363000, -0.276500
  0.365000, -0.407700
  0.367000, -0.523300
  0.369000, -0.623400
  0.371000, -0.706800
  0.373000, -0.775000
  0.375000, -0.828800
  0.377000, -0.867900
  0.379000, -0.892400
  0.381000, -0.902300
  0.383000, -0.898200
  0.385000, -0.880300
  0.387000, -0.849000
  0.389000, -0.804800
  0.391000, -0.748500
  0.393000, -0.679900
  0.395000, -0.599400
  0.397000, -0.508500
  0.399000, -0.407800
  0.401000, -0.298300
  0.403000, -0.181700
  0.405000, -0.055900
  0.407000,  0.078300
  0.409000,  0.216500
  0.411000,  0.358100
  0.413000,  0.504900
  0.415000,  0.654200
  0.417000,  0.807300
  0.419000,  0.964200
  0.421000,  1.122900
  0.423000,  1.282100
  0.425000,  1.436300
  0.427000,  1.591000
  0.429000,  1.745700
  0.431000,  1.896700
  0.433000,  2.044900
  0.435000,  2.189100
  0.437000,  2.328800
  0.439000,  2.463300
  0.441000,  2.593300
  0.443000,  2.716900
  0.445000,  2.835400
  0.447000,  2.949100
  0.449000,  3.054900
  0.451000,  3.153400
  0.453000,  3.245000
  0.455000,  3.329700
  0.457000,  3.406500
  0.459000,  3.475100
  0.461000,  3.536200
  0.463000,  3.589900
  0.465000,  3.635200
  0.467000,  3.672300
  0.469000,  3.702000
  0.471000,  3.723600
  0.473000,  3.737700
  0.475000,  3.744400
  0.477000,  3.743700
  0.479000,  3.735900
  0.481000,  3.720900
  0.483000,  3.698600
  0.485000,  3.669800
  0.487000,  3.635400
  0.489000,  3.595100
  0.491000,  3.548400
  0.493000,  3.496200
  0.495000,  3.439000
  0.497000,  3.377200
  0.499000,  3.310400
  0.501000,  3.238700
  0.503000,  3.163500
  0.505000,  3.083800
  0.507000,  3.001200
  0.509000,  2.915500
  0.511000,  2.824600
  0.513000,  2.730800
  0.515000,  2.634900
  0.517000,  2.536300
  0.519000,  2.435400
  0.521000,  2.332400
  0.523000,  2.228000
  0.525000,  2.122300
  0.527000,  2.015700
  0.529000,  1.908600
  0.531000,  1.799300
  0.533000,  1.688700
  0.535000,  1.578200
  0.537000,  1.467600
  0.539000,  1.356800
  0.541000,  1.245500
  0.543000,  1.135100
  0.545000,  1.025600
  0.547000,  0.915900
  0.549000,  0.806100
  0.551000,  0.697800
  0.553000,  0.591100
  0.555000,  0.485700
  0.557000,  0.381300
  0.559000,  0.277700
  0.561000,  0.175400
  0.563000,  0.075200
  0.565000, -0.023300
  0.567000, -0.120700
  0.569000, -0.216200
  0.571000, -0.309800
  0.573000, -0.401200
  0.575000, -0.489700
  0.577000, -0.575800
  0.579000, -0.659500
  0.581000, -0.740600
  0.583000, -0.819700
  0.585000, -0.895900
  0.587000, -0.969200
  0.589000, -1.039300
  0.591000, -1.106200
  0.593000, -1.170700
  0.595000, -1.232400
  0.597000, -1.291400
  0.599000, -1.347400
  0.601000, -1.400300
  0.603000, -1.450300
  0.605000, -1.497400
  0.607000, -1.541000
  0.609000, -1.581800
  0.611000, -1.620100
  0.613000, -1.655500
  0.615000, -1.687700
  0.617000, -1.717100
  0.619000, -1.743600
  0.621000, -1.767300
  0.623000, -1.788300
  0.625000, -1.806700
  0.627000, -1.822300
  0.629000, -1.835800
  0.631000, -1.846900
  0.633000, -1.855400
  0.635000, -1.861600
  0.637000, -1.865500
  0.639000, -1.867300
  0.641000, -1.867000
  0.643000, -1.864600
  0.645000, -1.860300
  0.647000, -1.854300
  0.649000, -1.846500
  0.651000, -1.836800
  0.653000, -1.825500
  0.655000, -1.812700
  0.657000, -1.798500
  0.659000, -1.783000
  0.661000, -1.766300
  0.663000, -1.748400
  0.665000, -1.729200
  0.667000, -1.708900
  0.669000, -1.687700
  0.671000, -1.665700
  0.673000, -1.642800
  0.675000, -1.619200
  0.677000, -1.594800
  0.679000, -1.569800
  0.681000, -1.544300
  0.683000, -1.518100
  0.685000, -1.491400
  0.687000, -1.464300
  0.689000, -1.437200
  0.691000, -1.409600
  0.693000, -1.381800
  0.695000, -1.353600
  0.697000, -1.325200
  0.699000, -1.296700
  0.701000, -1.268200
  0.703000, -1.239700
  0.705000, -1.211000
  0.707000, -1.182400
  0.709000, -1.153700
  0.711000, -1.125100
  0.713000, -1.096300
  0.715000, -1.067700
  0.717000, -1.039300
  0.719000, -1.010800
  0.721000, -0.982500
  0.723000, -0.954200
  0.725000, -0.926100
  0.727000, -0.898400
  0.729000, -0.870700
  0.731000, -0.843000
  0.733000, -0.815600
  0.735000, -0.788500
  0.737000, -0.761500
  0.739000, -0.734600
  0.741000, -0.708000
  0.743000, -0.681700
  0.745000, -0.655500
  0.747000, -0.629600
  0.749000, -0.603900
  0.751000, -0.578400
  0.753000, -0.553200
  0.755000, -0.528200
  0.757000, -0.503400
  0.759000, -0.479000
  0.761000, -0.454900
  0.763000, -0.431000
  0.765000, -0.407500
  0.767000, -0.384200
  0.769000, -0.361300
  0.771000, -0.338700
  0.773000, -0.316400
  0.775000, -0.294600
  0.777000, -0.273200
  0.779000, -0.252100
  0.781000, -0.231600
  0.783000, -0.211500
  0.785000, -0.191800
  0.787000, -0.172400
  0.789000, -0.153600
  0.791000, -0.135300
  0.793000, -0.117300
  0.795000, -0.099900
  0.797000, -0.083200
  0.799000, -0.067100
  0.801000, -0.051600
  0.803000, -0.036600
  0.805000, -0.022100
  0.807000, -0.008200
  0.809000,  0.005000
  0.811000,  0.017500
  0.813000,  0.029400
  0.815000,  0.040600
  0.817000,  0.051100
  0.819000,  0.061000
  0.821000,  0.070200
  0.823000,  0.078700
  0.825000,  0.086500
  0.827000,  0.093500
  0.829000,  0.099900
  0.831000,  0.105700
  0.833000,  0.110700
  0.835000,  0.114900
  0.837000,  0.118500
  0.839000,  0.121400
  0.841000,  0.123600
  0.843000,  0.125300
  0.845000,  0.126300
  0.847000,  0.126500
  0.849000,  0.126200
  0.851000,  0.125300
  0.853000,  0.123700
  0.855000,  0.121600
  0.857000,  0.119000
  0.859000,  0.115900
  0.861000,  0.112200
  0.863000,  0.108100
  0.865000,  0.103400
  0.867000,  0.098400
  0.869000,  0.092900
  0.871000,  0.087000
  0.873000,  0.080800
  0.875000,  0.074300
  0.877000,  0.067300
  0.879000,  0.060100
  0.881000,  0.052700
  0.883000,  0.045100
  0.885000,  0.037300
  0.887000,  0.029200
  0.889000,  0.020900
  0.891000,  0.012400
  0.893000,  0.003900
  0.895000, -0.004800
  0.897000, -0.013800
  0.899000, -0.022700
  0.901000, -0.031600
  0.903000, -0.040500
  0.905000, -0.049400
  0.907000, -0.058300
  0.909000, -0.067100
  0.911000, -0.075900
  0.913000, -0.084700
  0.915000, -0.093300
  0.917000, -0.101700
  0.919000, -0.110100
  0.921000, -0.118400
  0.923000, -0.126600
  0.925000, -0.134500
  0.927000, -0.142200
  0.929000, -0.149800
  0.931000, -0.157200
  0.933000, -0.164300
  0.935000, -0.171200
  0.937000, -0.177800
  0.939000, -0.184000
  0.941000, -0.190100
  0.943000, -0.196000
  0.945000, -0.201700
  0.947000, -0.206800
  0.949000, -0.211700
  0.951000, -0.216400
  0.953000, -0.220700
  0.955000, -0.224600
  0.957000, -0.228200
  0.959000, -0.231600
  0.961000, -0.234600
  0.963000, -0.237300
  0.965000, -0.239700
  0.967000, -0.241800
  0.969000, -0.243500
  0.971000, -0.245000
  0.973000, -0.246200
  0.975000, -0.246900
  0.977000, -0.247400
  0.979000, -0.247400
  0.981000, -0.247100
  0.983000, -0.246600
  0.985000, -0.245700
  0.987000, -0.244500
  0.989000, -0.243000
  0.991000, -0.241200
  0.993000, -0.239100
  0.995000, -0.236600
  0.997000, -0.234000
  0.999000, -0.231100
  1.001000, -0.228000
  1.003000, -0.224600
  1.005000, -0.220900
  1.007000, -0.217000
  1.009000, -0.213000
  1.011000, -0.208600
  1.013000, -0.204100
  1.015000, -0.199500
  1.017000, -0.194700
  1.019000, -0.189800
  1.021000, -0.184800
  1.023000, -0.179500
  1.025000, -0.174200
  1.027000, -0.168800
  1.029000, -0.163500
  1.031000, -0.157900
  1.033000, -0.152400
  1.035000, -0.146700
  1.037000, -0.141000
  1.039000, -0.135300
  1.041000, -0.129600
  1.043000, -0.123900
  1.045000, -0.118100
  1.047000, -0.112300
  1.049000, -0.106500
  1.051000, -0.100800
  1.053000, -0.095100
  1.055000, -0.089500
  1.057000, -0.084000
  1.059000, -0.078300
  1.061000, -0.072800
  1.063000, -0.067400
  1.065000, -0.062000
  1.067000, -0.056800
  1.069000, -0.051600
  1.071000, -0.046500
  1.073000, -0.041500
  1.075000, -0.036500
  1.077000, -0.031600
  1.079000, -0.026800
  1.081000, -0.022100
  1.083000, -0.017400
  1.085000, -0.012800
  1.087000, -0.008200
  1.089000, -0.003800
  1.091000,  0.000500
  1.093000,  0.004800
  1.095000,  0.008900
  1.097000,  0.013000
  1.099000,  0.017000
  1.101000,  0.021000
  1.103000,  0.024700
  1.105000,  0.028400
  1.107000,  0.032100
  1.109000,  0.035700
  1.111000,  0.039100
  1.113000,  0.042600
  1.115000,  0.045900
  1.117000,  0.049000
  1.119000,  0.052100
  1.121000,  0.055000
  1.123000,  0.057800
  1.125000,  0.060400
  1.127000,  0.062900
  1.129000,  0.065300
  1.131000,  0.067600
  1.133000,  0.069700
  1.135000,  0.071700
  1.137000,  0.073700
  1.139000,  0.075400
  1.141000,  0.076900
  1.143000,  0.078200
  1.145000,  0.079400
  1.147000,  0.080400
  1.149000,  0.081200
  1.151000,  0.082000
  1.153000,  0.082500
  1.155000,  0.082900
  1.157000,  0.083000
  1.159000,  0.083100
  1.161000,  0.083000
  1.163000,  0.082700
  1.165000,  0.082300
  1.167000,  0.081700
  1.169000,  0.080900
  1.171000,  0.080000
  1.173000,  0.078900
  1.175000,  0.077700
  1.177000,  0.076300
  1.179000,  0.074800
  1.181000,  0.073300
  1.183000,  0.071600
  1.185000,  0.069700
  1.187000,  0.067800
  1.189000,  0.065800
  1.191000,  0.063600
  1.193000,  0.061200
  1.195000,  0.058900
  1.197000,  0.056600
  1.199000,  0.054100
  1.201000,  0.051500
  1.203000,  0.048900
  1.205000,  0.046200
  1.207000,  0.043400
  1.209000,  0.040700
  1.211000,  0.038000
  1.213000,  0.035300
  1.215000,  0.032500
  1.217000,  0.029700
  1.219000,  0.026900
  1.221000,  0.024100
  1.223000,  0.021400
  1.225000,  0.018600
  1.227000,  0.016000
  1.229000,  0.013300
  1.231000,  0.010700
  1.233000,  0.008200
  1.235000,  0.005600
  1.237000,  0.003100
  1.239000,  0.000800
  1.241000, -0.001400
  1.243000, -0.003500
  1.245000, -0.005700
  1.247000, -0.007700
  1.249000, -0.009700
  1.251000, -0.011600
  1.253000, -0.013400
  1.255000, -0.015100
  1.257000, -0.016600
  1.259000, -0.018100
  1.261000, -0.019500
  1.263000, -0.020800
  1.265000, -0.021900
  1.267000, -0.023000
  1.269000, -0.023900
  1.271000, -0.024700
  1.273000, -0.025500
  1.275000, -0.026100
  1.277000, -0.026600
  1.279000, -0.027000
  1.281000, -0.027300
  1.283000, -0.027500
  1.285000, -0.027700
  1.287000, -0.027700
  1.289000, -0.027600
  1.291000, -0.027400
  1.293000, -0.027200
  1.295000, -0.026900
  1.297000, -0.026600
  1.299000, -0.026100
  1.301000, -0.025500
  1.303000, -0.024900
  1.305000, -0.024100
  1.307000, -0.023500
  1.309000, -0.022700
  1.311000, -0.022000
  1.313000, -0.021200
  1.315000, -0.020500
  1.317000, -0.019700
  1.319000, -0.018800
  1.321000, -0.017800
  1.323000, -0.016800
  1.325000, -0.015900
  1.327000, -0.014900
  1.329000, -0.013900
  1.331000, -0.012900
  1.333000, -0.011800
  1.335000, -0.010700
  1.337000, -0.009500
  1.339000, -0.008300
  1.341000, -0.007100
  1.343000, -0.005900
  1.345000, -0.004600
  1.347000, -0.003300
  1.349000, -0.002000
  1.351000, -0.000600
  1.353000,  0.000800
  1.355000,  0.002200
  1.357000,  0.003700
  1.359000,  0.005200
  1.361000,  0.006900
  1.363000,  0.008600
  1.365000,  0.010300
  1.367000,  0.012100
  1.369000,  0.013800
  1.371000,  0.015600
  1.373000,  0.017300
  1.375000,  0.019200
  1.377000,  0.021100
  1.379000,  0.023000
  1.381000,  0.024900
  1.383000,  0.026600
  1.385000,  0.028300
  1.387000,  0.029700
  1.389000,  0.031000
  1.391000,  0.032200
  1.393000,  0.033200
  1.395000,  0.033900
  1.397000,  0.034400
  1.399000,  0.034600
