# z (nm)   (kJ/mol)
  0.273000, 14.140100
  0.277000, 13.720500
  0.279000, 13.320400
  0.281000, 12.948700
  0.283000, 12.573500
  0.285000, 12.171400
  0.287000, 11.764500
  0.289000, 11.359000
  0.291000, 10.951100
  0.293000, 10.539600
  0.295000, 10.125800
  0.297000,  9.712500
  0.299000,  9.300300
  0.301000,  8.889500
  0.303000,  8.482400
  0.305000,  8.079000
  0.307000,  7.679400
  0.309000,  7.286400
  0.311000,  6.901300
  0.313000,  6.520400
  0.315000,  6.145200
  0.317000,  5.780300
  0.319000,  5.424000
  0.321000,  5.076500
  0.323000,  4.740000
  0.325000,  4.417100
  0.327000,  4.107500
  0.329000,  3.809800
  0.331000,  3.522400
  0.333000,  3.246100
  0.335000,  2.981000
  0.337000,  2.725400
  0.339000,  2.479300
  0.341000,  2.241700
  0.343000,  2.014200
  0.345000,  1.795200
  0.347000,  1.584900
  0.349000,  1.382800
  0.351000,  1.187300
  0.353000,  0.998300
  0.355000,  0.817200
  0.357000,  0.645700
  0.359000,  0.483400
  0.361000,  0.330300
  0.363000,  0.188100
  0.365000,  0.055900
  0.367000, -0.068000
  0.369000, -0.180200
  0.371000, -0.281000
  0.373000, -0.370100
  0.375000, -0.446900
  0.377000, -0.514200
  0.379000, -0.572100
  0.381000, -0.620800
  0.383000, -0.659200
  0.385000, -0.686500
  0.387000, -0.705000
  0.389000, -0.715800
  0.391000, -0.716100
  0.393000, -0.707900
  0.395000, -0.692000
  0.397000, -0.669300
  0.399000, -0.640000
  0.401000, -0.602400
  0.403000, -0.557900
  0.405000, -0.503500
  0.407000, -0.440800
  0.409000, -0.372300
  0.411000, -0.297000
  0.413000, -0.214200
  0.415000, -0.124700
  0.417000, -0.028700
  0.419000,  0.074000
  0.421000,  0.177800
  0.423000,  0.278800
  0.425000,  0.382600
  0.427000,  0.492700
  0.429000,  0.603600
  0.431000,  0.712300
  0.433000,  0.819800
  0.435000,  0.928100
  0.437000,  1.035800
  0.439000,  1.140200
  0.441000,  1.242400
  0.443000,  1.345200
  0.445000,  1.445400
  0.447000,  1.540600
  0.449000,  1.633600
  0.451000,  1.722100
  0.453000,  1.804400
  0.455000,  1.887600
  0.457000,  1.969800
  0.459000,  2.043800
  0.461000,  2.111100
  0.463000,  2.176000
  0.465000,  2.237800
  0.467000,  2.292800
  0.469000,  2.344000
  0.471000,  2.390900
  0.473000,  2.431300
  0.475000,  2.467100
  0.477000,  2.498400
  0.479000,  2.523300
  0.481000,  2.540900
  0.483000,  2.553300
  0.485000,  2.560600
  0.487000,  2.563400
  0.489000,  2.561400
  0.491000,  2.552200
  0.493000,  2.537100
  0.495000,  2.516600
  0.497000,  2.491000
  0.499000,  2.460900
  0.501000,  2.426300
  0.503000,  2.386700
  0.505000,  2.341800
  0.507000,  2.292700
  0.509000,  2.239300
  0.511000,  2.181300
  0.513000,  2.119600
  0.515000,  2.054300
  0.517000,  1.985000
  0.519000,  1.912400
  0.521000,  1.838100
  0.523000,  1.760800
  0.525000,  1.679800
  0.527000,  1.595400
  0.529000,  1.509000
  0.531000,  1.421600
  0.533000,  1.332400
  0.535000,  1.241600
  0.537000,  1.149900
  0.539000,  1.058200
  0.541000,  0.965500
  0.543000,  0.871800
  0.545000,  0.778400
  0.547000,  0.684400
  0.549000,  0.590200
  0.551000,  0.496400
  0.553000,  0.403300
  0.555000,  0.311100
  0.557000,  0.219200
  0.559000,  0.127800
  0.561000,  0.037900
  0.563000, -0.050500
  0.565000, -0.137900
  0.567000, -0.224100
  0.569000, -0.308800
  0.571000, -0.391600
  0.573000, -0.472800
  0.575000, -0.552100
  0.577000, -0.629200
  0.579000, -0.704200
  0.581000, -0.777100
  0.583000, -0.847600
  0.585000, -0.915500
  0.587000, -0.981300
  0.589000, -1.044500
  0.591000, -1.104900
  0.593000, -1.163100
  0.595000, -1.218900
  0.597000, -1.271900
  0.599000, -1.322200
  0.601000, -1.369600
  0.603000, -1.414300
  0.605000, -1.456500
  0.607000, -1.496400
  0.609000, -1.533900
  0.611000, -1.568500
  0.613000, -1.600300
  0.615000, -1.629400
  0.617000, -1.655800
  0.619000, -1.680000
  0.621000, -1.701400
  0.623000, -1.719800
  0.625000, -1.736200
  0.627000, -1.750800
  0.629000, -1.762800
  0.631000, -1.772200
  0.633000, -1.779100
  0.635000, -1.783400
  0.637000, -1.786000
  0.639000, -1.786300
  0.641000, -1.784600
  0.643000, -1.781100
  0.645000, -1.775800
  0.647000, -1.768500
  0.649000, -1.759400
  0.651000, -1.748600
  0.653000, -1.736100
  0.655000, -1.722300
  0.657000, -1.706600
  0.659000, -1.689700
  0.661000, -1.671900
  0.663000, -1.652800
  0.665000, -1.632200
  0.667000, -1.610600
  0.669000, -1.588400
  0.671000, -1.565400
  0.673000, -1.541600
  0.675000, -1.516900
  0.677000, -1.491300
  0.679000, -1.465500
  0.681000, -1.439100
  0.683000, -1.412000
  0.685000, -1.384700
  0.687000, -1.356900
  0.689000, -1.328700
  0.691000, -1.300300
  0.693000, -1.271900
  0.695000, -1.243500
  0.697000, -1.215100
  0.699000, -1.186500
  0.701000, -1.157700
  0.703000, -1.129000
  0.705000, -1.100400
  0.707000, -1.072000
  0.709000, -1.043500
  0.711000, -1.015300
  0.713000, -0.987500
  0.715000, -0.959900
  0.717000, -0.932600
  0.719000, -0.905700
  0.721000, -0.879000
  0.723000, -0.852900
  0.725000, -0.827100
  0.727000, -0.801600
  0.729000, -0.776700
  0.731000, -0.752100
  0.733000, -0.728000
  0.735000, -0.704400
  0.737000, -0.681200
  0.739000, -0.658600
  0.741000, -0.636400
  0.743000, -0.614700
  0.745000, -0.593600
  0.747000, -0.573100
  0.749000, -0.553200
  0.751000, -0.533700
  0.753000, -0.514700
  0.755000, -0.496300
  0.757000, -0.478600
  0.759000, -0.461300
  0.761000, -0.444700
  0.763000, -0.428700
  0.765000, -0.413000
  0.767000, -0.397900
  0.769000, -0.383400
  0.771000, -0.369400
  0.773000, -0.355900
  0.775000, -0.342900
  0.777000, -0.330400
  0.779000, -0.318600
  0.781000, -0.307200
  0.783000, -0.296300
  0.785000, -0.286000
  0.787000, -0.276000
  0.789000, -0.266400
  0.791000, -0.257400
  0.793000, -0.248800
  0.795000, -0.240600
  0.797000, -0.233000
  0.799000, -0.225800
  0.801000, -0.219100
  0.803000, -0.212700
  0.805000, -0.206800
  0.807000, -0.201300
  0.809000, -0.196200
  0.811000, -0.191500
  0.813000, -0.187300
  0.815000, -0.183500
  0.817000, -0.180000
  0.819000, -0.176900
  0.821000, -0.174300
  0.823000, -0.172000
  0.825000, -0.170100
  0.827000, -0.168600
  0.829000, -0.167600
  0.831000, -0.166800
  0.833000, -0.166300
  0.835000, -0.166300
  0.837000, -0.166600
  0.839000, -0.167100
  0.841000, -0.167900
  0.843000, -0.169100
  0.845000, -0.170600
  0.847000, -0.172400
  0.849000, -0.174600
  0.851000, -0.177000
  0.853000, -0.179600
  0.855000, -0.182400
  0.857000, -0.185500
  0.859000, -0.188800
  0.861000, -0.192300
  0.863000, -0.196100
  0.865000, -0.200100
  0.867000, -0.204400
  0.869000, -0.208700
  0.871000, -0.213200
  0.873000, -0.217800
  0.875000, -0.222700
  0.877000, -0.227500
  0.879000, -0.232300
  0.881000, -0.237200
  0.883000, -0.242200
  0.885000, -0.247200
  0.887000, -0.252400
  0.889000, -0.257500
  0.891000, -0.262500
  0.893000, -0.267500
  0.895000, -0.272400
  0.897000, -0.277400
  0.899000, -0.282200
  0.901000, -0.287000
  0.903000, -0.291800
  0.905000, -0.296500
  0.907000, -0.301000
  0.909000, -0.305400
  0.911000, -0.309600
  0.913000, -0.313600
  0.915000, -0.317500
  0.917000, -0.321400
  0.919000, -0.325200
  0.921000, -0.328700
  0.923000, -0.332000
  0.925000, -0.335100
  0.927000, -0.338000
  0.929000, -0.340800
  0.931000, -0.343400
  0.933000, -0.345800
  0.935000, -0.348000
  0.937000, -0.350000
  0.939000, -0.351800
  0.941000, -0.353400
  0.943000, -0.354800
  0.945000, -0.356200
  0.947000, -0.357300
  0.949000, -0.358300
  0.951000, -0.359000
  0.953000, -0.359600
  0.955000, -0.360100
  0.957000, -0.360300
  0.959000, -0.360400
  0.961000, -0.360400
  0.963000, -0.360300
  0.965000, -0.360000
  0.967000, -0.359600
  0.969000, -0.359000
  0.971000, -0.358200
  0.973000, -0.357400
  0.975000, -0.356400
  0.977000, -0.355300
  0.979000, -0.354100
  0.981000, -0.352700
  0.983000, -0.351300
  0.985000, -0.349800
  0.987000, -0.348100
  0.989000, -0.346400
  0.991000, -0.344600
  0.993000, -0.342600
  0.995000, -0.340500
  0.997000, -0.338300
  0.999000, -0.336100
  1.001000, -0.333700
  1.003000, -0.331200
  1.005000, -0.328600
  1.007000, -0.326100
  1.009000, -0.323400
  1.011000, -0.320700
  1.013000, -0.317900
  1.015000, -0.315100
  1.017000, -0.312200
  1.019000, -0.309200
  1.021000, -0.306200
  1.023000, -0.303200
  1.025000, -0.300100
  1.027000, -0.297100
  1.029000, -0.293900
  1.031000, -0.290700
  1.033000, -0.287400
  1.035000, -0.284200
  1.037000, -0.280900
  1.039000, -0.277600
  1.041000, -0.274400
  1.043000, -0.271100
  1.045000, -0.267700
  1.047000, -0.264500
  1.049000, -0.261300
  1.051000, -0.258100
  1.053000, -0.254900
  1.055000, -0.251800
  1.057000, -0.248700
  1.059000, -0.245600
  1.061000, -0.242500
  1.063000, -0.239300
  1.065000, -0.236200
  1.067000, -0.233100
  1.069000, -0.229900
  1.071000, -0.226600
  1.073000, -0.223700
  1.075000, -0.220800
  1.077000, -0.217800
  1.079000, -0.214800
  1.081000, -0.211700
  1.083000, -0.208700
  1.085000, -0.205700
  1.087000, -0.202600
  1.089000, -0.199700
  1.091000, -0.196800
  1.093000, -0.193900
  1.095000, -0.191000
  1.097000, -0.188000
  1.099000, -0.185200
  1.101000, -0.182300
  1.103000, -0.179400
  1.105000, -0.176500
  1.107000, -0.173600
  1.109000, -0.170700
  1.111000, -0.167800
  1.113000, -0.164900
  1.115000, -0.162200
  1.117000, -0.159600
  1.119000, -0.157000
  1.121000, -0.154300
  1.123000, -0.151500
  1.125000, -0.148800
  1.127000, -0.146200
  1.129000, -0.143700
  1.131000, -0.141500
  1.133000, -0.139200
  1.135000, -0.136900
  1.137000, -0.134500
  1.139000, -0.132300
  1.141000, -0.130300
  1.143000, -0.128400
  1.145000, -0.126400
  1.147000, -0.124400
  1.149000, -0.122300
  1.151000, -0.120300
  1.153000, -0.118300
  1.155000, -0.116500
  1.157000, -0.114700
  1.159000, -0.113000
  1.161000, -0.111400
  1.163000, -0.109700
  1.165000, -0.108200
  1.167000, -0.106600
  1.169000, -0.105200
  1.171000, -0.103800
  1.173000, -0.102400
  1.175000, -0.101200
  1.177000, -0.100000
  1.179000, -0.098700
  1.181000, -0.097300
  1.183000, -0.096100
  1.185000, -0.094900
  1.187000, -0.093800
  1.189000, -0.092400
  1.191000, -0.091100
  1.193000, -0.089800
  1.195000, -0.088500
  1.197000, -0.087400
  1.199000, -0.086400
  1.201000, -0.085400
  1.203000, -0.084200
  1.205000, -0.083000
  1.207000, -0.081800
  1.209000, -0.080400
  1.211000, -0.079200
  1.213000, -0.077900
  1.215000, -0.076400
  1.217000, -0.075000
  1.219000, -0.073600
  1.221000, -0.072300
  1.223000, -0.070800
  1.225000, -0.069200
  1.227000, -0.067700
  1.229000, -0.066200
  1.231000, -0.064700
  1.233000, -0.063200
  1.235000, -0.061700
  1.237000, -0.060100
  1.239000, -0.058600
  1.241000, -0.057000
  1.243000, -0.055400
  1.245000, -0.053700
  1.247000, -0.052000
  1.249000, -0.050400
  1.251000, -0.048600
  1.253000, -0.046900
  1.255000, -0.045200
  1.257000, -0.043200
  1.259000, -0.041200
  1.261000, -0.039300
  1.263000, -0.037400
  1.265000, -0.035500
  1.267000, -0.033600
  1.269000, -0.031600
  1.271000, -0.029600
  1.273000, -0.027500
  1.275000, -0.025400
  1.277000, -0.023200
  1.279000, -0.021100
  1.281000, -0.019000
  1.283000, -0.016900
  1.285000, -0.014700
  1.287000, -0.012600
  1.289000, -0.010400
  1.291000, -0.008200
  1.293000, -0.006100
  1.295000, -0.004000
  1.297000, -0.001700
  1.299000,  0.000600
  1.301000,  0.002900
  1.303000,  0.005200
  1.305000,  0.007600
  1.307000,  0.009900
  1.309000,  0.012100
  1.311000,  0.014300
  1.313000,  0.016600
  1.315000,  0.018900
  1.317000,  0.021100
  1.319000,  0.023300
  1.321000,  0.025600
  1.323000,  0.027900
  1.325000,  0.030200
  1.327000,  0.032500
  1.329000,  0.034700
  1.331000,  0.036900
  1.333000,  0.039000
  1.335000,  0.041000
  1.337000,  0.042900
  1.339000,  0.045000
  1.341000,  0.047200
  1.343000,  0.049200
  1.345000,  0.051100
  1.347000,  0.053100
  1.349000,  0.055000
  1.351000,  0.056800
  1.353000,  0.058500
  1.355000,  0.060100
  1.357000,  0.061600
  1.359000,  0.063100
  1.361000,  0.064500
  1.363000,  0.065700
  1.365000,  0.067000
  1.367000,  0.068300
  1.369000,  0.069100
  1.371000,  0.069700
  1.373000,  0.070500
  1.375000,  0.071000
  1.377000,  0.071300
  1.379000,  0.071600
  1.381000,  0.071800
  1.383000,  0.071800
  1.385000,  0.071600
  1.387000,  0.071000
  1.389000,  0.070100
  1.391000,  0.069000
  1.393000,  0.067600
  1.395000,  0.065700
  1.397000,  0.063400
  1.399000,  0.060600
