# z (nm)   (kJ/mol)
  0.293000, 18.031400
  0.295000, 17.932500
  0.297000, 17.818200
  0.299000, 17.705500
  0.301000, 17.601000
  0.303000, 17.472300
  0.305000, 17.337700
  0.307000, 17.205200
  0.309000, 17.063200
  0.311000, 16.919500
  0.313000, 16.777700
  0.315000, 16.633500
  0.317000, 16.482100
  0.319000, 16.317500
  0.321000, 16.145000
  0.323000, 15.971600
  0.325000, 15.795500
  0.327000, 15.617700
  0.329000, 15.436400
  0.331000, 15.250900
  0.333000, 15.065400
  0.335000, 14.882100
  0.337000, 14.693100
  0.339000, 14.503600
  0.341000, 14.315100
  0.343000, 14.121900
  0.345000, 13.927600
  0.347000, 13.727900
  0.349000, 13.532600
  0.351000, 13.344500
  0.353000, 13.155300
  0.355000, 12.964100
  0.357000, 12.778400
  0.359000, 12.600700
  0.361000, 12.429400
  0.363000, 12.261100
  0.365000, 12.092000
  0.367000, 11.924500
  0.369000, 11.757100
  0.371000, 11.594800
  0.373000, 11.439500
  0.375000, 11.284500
  0.377000, 11.132600
  0.379000, 10.990200
  0.381000, 10.857300
  0.383000, 10.729400
  0.385000, 10.603400
  0.387000, 10.483400
  0.389000, 10.366600
  0.391000, 10.253600
  0.393000, 10.145800
  0.395000, 10.039900
  0.397000,  9.938400
  0.399000,  9.842300
  0.401000,  9.750800
  0.403000,  9.663700
  0.405000,  9.580700
  0.407000,  9.500700
  0.409000,  9.424300
  0.411000,  9.352100
  0.413000,  9.282300
  0.415000,  9.213900
  0.417000,  9.147600
  0.419000,  9.084200
  0.421000,  9.023400
  0.423000,  8.964000
  0.425000,  8.905900
  0.427000,  8.849200
  0.429000,  8.793500
  0.431000,  8.737600
  0.433000,  8.681300
  0.435000,  8.624600
  0.437000,  8.567000
  0.439000,  8.509400
  0.441000,  8.451300
  0.443000,  8.391600
  0.445000,  8.329900
  0.447000,  8.265800
  0.449000,  8.200200
  0.451000,  8.131800
  0.453000,  8.060000
  0.455000,  7.984900
  0.457000,  7.906000
  0.459000,  7.823800
  0.461000,  7.737900
  0.463000,  7.647600
  0.465000,  7.552300
  0.467000,  7.452400
  0.469000,  7.346300
  0.471000,  7.235900
  0.473000,  7.122400
  0.475000,  7.002500
  0.477000,  6.876600
  0.479000,  6.746400
  0.481000,  6.610400
  0.483000,  6.468300
  0.485000,  6.323500
  0.487000,  6.174400
  0.489000,  6.019500
  0.491000,  5.860600
  0.493000,  5.698200
  0.495000,  5.531400
  0.497000,  5.361200
  0.499000,  5.188900
  0.501000,  5.014600
  0.503000,  4.839100
  0.505000,  4.659900
  0.507000,  4.478000
  0.509000,  4.296400
  0.511000,  4.113500
  0.513000,  3.930100
  0.515000,  3.745000
  0.517000,  3.559200
  0.519000,  3.375200
  0.521000,  3.191400
  0.523000,  3.007600
  0.525000,  2.824400
  0.527000,  2.642500
  0.529000,  2.462300
  0.531000,  2.283900
  0.533000,  2.108100
  0.535000,  1.934500
  0.537000,  1.764000
  0.539000,  1.596700
  0.541000,  1.432100
  0.543000,  1.271100
  0.545000,  1.113000
  0.547000,  0.958100
  0.549000,  0.808000
  0.551000,  0.662900
  0.553000,  0.521900
  0.555000,  0.384300
  0.557000,  0.251300
  0.559000,  0.123300
  0.561000, -0.000100
  0.563000, -0.118600
  0.565000, -0.232600
  0.567000, -0.341500
  0.569000, -0.445600
  0.571000, -0.544700
  0.573000, -0.639100
  0.575000, -0.728700
  0.577000, -0.813300
  0.579000, -0.893100
  0.581000, -0.968000
  0.583000, -1.037800
  0.585000, -1.102700
  0.587000, -1.162900
  0.589000, -1.218400
  0.591000, -1.269300
  0.593000, -1.315700
  0.595000, -1.357500
  0.597000, -1.395000
  0.599000, -1.428100
  0.601000, -1.457300
  0.603000, -1.482700
  0.605000, -1.504400
  0.607000, -1.522000
  0.609000, -1.536000
  0.611000, -1.547100
  0.613000, -1.554600
  0.615000, -1.558800
  0.617000, -1.560100
  0.619000, -1.558900
  0.621000, -1.554800
  0.623000, -1.547800
  0.625000, -1.538400
  0.627000, -1.527100
  0.629000, -1.513700
  0.631000, -1.498200
  0.633000, -1.481000
  0.635000, -1.461900
  0.637000, -1.441300
  0.639000, -1.419500
  0.641000, -1.396400
  0.643000, -1.372200
  0.645000, -1.347300
  0.647000, -1.321400
  0.649000, -1.294600
  0.651000, -1.267200
  0.653000, -1.239300
  0.655000, -1.210900
  0.657000, -1.182200
  0.659000, -1.153300
  0.661000, -1.124300
  0.663000, -1.095400
  0.665000, -1.066400
  0.667000, -1.037500
  0.669000, -1.008900
  0.671000, -0.980500
  0.673000, -0.952400
  0.675000, -0.924700
  0.677000, -0.897400
  0.679000, -0.870400
  0.681000, -0.843900
  0.683000, -0.818100
  0.685000, -0.792600
  0.687000, -0.767700
  0.689000, -0.743400
  0.691000, -0.719800
  0.693000, -0.696600
  0.695000, -0.674000
  0.697000, -0.652000
  0.699000, -0.630600
  0.701000, -0.609800
  0.703000, -0.589700
  0.705000, -0.570200
  0.707000, -0.551300
  0.709000, -0.533000
  0.711000, -0.515100
  0.713000, -0.497800
  0.715000, -0.481100
  0.717000, -0.464900
  0.719000, -0.449200
  0.721000, -0.434000
  0.723000, -0.419300
  0.725000, -0.405000
  0.727000, -0.391100
  0.729000, -0.377600
  0.731000, -0.364500
  0.733000, -0.351800
  0.735000, -0.339300
  0.737000, -0.327000
  0.739000, -0.315100
  0.741000, -0.303400
  0.743000, -0.292000
  0.745000, -0.280700
  0.747000, -0.269600
  0.749000, -0.258500
  0.751000, -0.247600
  0.753000, -0.236900
  0.755000, -0.226300
  0.757000, -0.215800
  0.759000, -0.205300
  0.761000, -0.195000
  0.763000, -0.184700
  0.765000, -0.174500
  0.767000, -0.164400
  0.769000, -0.154400
  0.771000, -0.144600
  0.773000, -0.134600
  0.775000, -0.124700
  0.777000, -0.114900
  0.779000, -0.105000
  0.781000, -0.095300
  0.783000, -0.085700
  0.785000, -0.076100
  0.787000, -0.066500
  0.789000, -0.057300
  0.791000, -0.048100
  0.793000, -0.038800
  0.795000, -0.029800
  0.797000, -0.021000
  0.799000, -0.012300
  0.801000, -0.003900
  0.803000,  0.004500
  0.805000,  0.012700
  0.807000,  0.020700
  0.809000,  0.028500
  0.811000,  0.036000
  0.813000,  0.043200
  0.815000,  0.050100
  0.817000,  0.056700
  0.819000,  0.062900
  0.821000,  0.068900
  0.823000,  0.074600
  0.825000,  0.079800
  0.827000,  0.084600
  0.829000,  0.089100
  0.831000,  0.093300
  0.833000,  0.097100
  0.835000,  0.100500
  0.837000,  0.103500
  0.839000,  0.106100
  0.841000,  0.108400
  0.843000,  0.110200
  0.845000,  0.111500
  0.847000,  0.112200
  0.849000,  0.112600
  0.851000,  0.112700
  0.853000,  0.112500
  0.855000,  0.111800
  0.857000,  0.110700
  0.859000,  0.109300
  0.861000,  0.107400
  0.863000,  0.105000
  0.865000,  0.102500
  0.867000,  0.099600
  0.869000,  0.096400
  0.871000,  0.093000
  0.873000,  0.089200
  0.875000,  0.085000
  0.877000,  0.080500
  0.879000,  0.075800
  0.881000,  0.070800
  0.883000,  0.065600
  0.885000,  0.060100
  0.887000,  0.054400
  0.889000,  0.048600
  0.891000,  0.042600
  0.893000,  0.036400
  0.895000,  0.030200
  0.897000,  0.023800
  0.899000,  0.017200
  0.901000,  0.010500
  0.903000,  0.003800
  0.905000, -0.002900
  0.907000, -0.009700
  0.909000, -0.016500
  0.911000, -0.023300
  0.913000, -0.030000
  0.915000, -0.036800
  0.917000, -0.043500
  0.919000, -0.050100
  0.921000, -0.056700
  0.923000, -0.063200
  0.925000, -0.069500
  0.927000, -0.075700
  0.929000, -0.081600
  0.931000, -0.087500
  0.933000, -0.093200
  0.935000, -0.098700
  0.937000, -0.104100
  0.939000, -0.109100
  0.941000, -0.113900
  0.943000, -0.118600
  0.945000, -0.123100
  0.947000, -0.127200
  0.949000, -0.131100
  0.951000, -0.134700
  0.953000, -0.138100
  0.955000, -0.141300
  0.957000, -0.144300
  0.959000, -0.146900
  0.961000, -0.149300
  0.963000, -0.151500
  0.965000, -0.153700
  0.967000, -0.155500
  0.969000, -0.156900
  0.971000, -0.158200
  0.973000, -0.159300
  0.975000, -0.160200
  0.977000, -0.160900
  0.979000, -0.161400
  0.981000, -0.161700
  0.983000, -0.161800
  0.985000, -0.161600
  0.987000, -0.161200
  0.989000, -0.160800
  0.991000, -0.160200
  0.993000, -0.159500
  0.995000, -0.158700
  0.997000, -0.157800
  0.999000, -0.156700
  1.001000, -0.155400
  1.003000, -0.154000
  1.005000, -0.152400
  1.007000, -0.150800
  1.009000, -0.149400
  1.011000, -0.147800
  1.013000, -0.146000
  1.015000, -0.144100
  1.017000, -0.142200
  1.019000, -0.140300
  1.021000, -0.138200
  1.023000, -0.136200
  1.025000, -0.134300
  1.027000, -0.132300
  1.029000, -0.130200
  1.031000, -0.127900
  1.033000, -0.125600
  1.035000, -0.123200
  1.037000, -0.120800
  1.039000, -0.118400
  1.041000, -0.116000
  1.043000, -0.113700
  1.045000, -0.111400
  1.047000, -0.109000
  1.049000, -0.106500
  1.051000, -0.103800
  1.053000, -0.101000
  1.055000, -0.098000
  1.057000, -0.095100
  1.059000, -0.092200
  1.061000, -0.089100
  1.063000, -0.086100
  1.065000, -0.082900
  1.067000, -0.079600
  1.069000, -0.076200
  1.071000, -0.072700
  1.073000, -0.069100
  1.075000, -0.065400
  1.077000, -0.061700
  1.079000, -0.057900
  1.081000, -0.054000
  1.083000, -0.050000
  1.085000, -0.045900
  1.087000, -0.041700
  1.089000, -0.037500
  1.091000, -0.033100
  1.093000, -0.028700
  1.095000, -0.024200
  1.097000, -0.019600
  1.099000, -0.015000
  1.101000, -0.010200
  1.103000, -0.005500
  1.105000, -0.000700
  1.107000,  0.004200
  1.109000,  0.009100
  1.111000,  0.014000
  1.113000,  0.018800
  1.115000,  0.023600
  1.117000,  0.028400
  1.119000,  0.033200
  1.121000,  0.038000
  1.123000,  0.042700
  1.125000,  0.047300
  1.127000,  0.051800
  1.129000,  0.056200
  1.131000,  0.060300
  1.133000,  0.064400
  1.135000,  0.068400
  1.137000,  0.072200
  1.139000,  0.075900
  1.141000,  0.079400
  1.143000,  0.082700
  1.145000,  0.085800
  1.147000,  0.088700
  1.149000,  0.091300
  1.151000,  0.093800
  1.153000,  0.096000
  1.155000,  0.097900
  1.157000,  0.099600
  1.159000,  0.101200
  1.161000,  0.102400
  1.163000,  0.103300
  1.165000,  0.103900
  1.167000,  0.104100
  1.169000,  0.104200
  1.171000,  0.104100
  1.173000,  0.103600
  1.175000,  0.103100
  1.177000,  0.102200
  1.179000,  0.101000
  1.181000,  0.099600
  1.183000,  0.097900
  1.185000,  0.096000
  1.187000,  0.093900
  1.189000,  0.091700
  1.191000,  0.089200
  1.193000,  0.086400
  1.195000,  0.083600
  1.197000,  0.080600
  1.199000,  0.077400
  1.201000,  0.074200
  1.203000,  0.070900
  1.205000,  0.067300
  1.207000,  0.063800
  1.209000,  0.060200
  1.211000,  0.056400
  1.213000,  0.052800
  1.215000,  0.049100
  1.217000,  0.045400
  1.219000,  0.041700
  1.221000,  0.037900
  1.223000,  0.034100
  1.225000,  0.030300
  1.227000,  0.026700
  1.229000,  0.023300
  1.231000,  0.020000
  1.233000,  0.016600
  1.235000,  0.013300
  1.237000,  0.010200
  1.239000,  0.007100
  1.241000,  0.004200
  1.243000,  0.001300
  1.245000, -0.001400
  1.247000, -0.004100
  1.249000, -0.006600
  1.251000, -0.008900
  1.253000, -0.011000
  1.255000, -0.013000
  1.257000, -0.014800
  1.259000, -0.016500
  1.261000, -0.018100
  1.263000, -0.019500
  1.265000, -0.020800
  1.267000, -0.022000
  1.269000, -0.023000
  1.271000, -0.023800
  1.273000, -0.024500
  1.275000, -0.025200
  1.277000, -0.025800
  1.279000, -0.026400
  1.281000, -0.026800
  1.283000, -0.027100
  1.285000, -0.027200
  1.287000, -0.027100
  1.289000, -0.027100
  1.291000, -0.027000
  1.293000, -0.026800
  1.295000, -0.026600
  1.297000, -0.026400
  1.299000, -0.026000
  1.301000, -0.025500
  1.303000, -0.025100
  1.305000, -0.024600
  1.307000, -0.024000
  1.309000, -0.023400
  1.311000, -0.022800
  1.313000, -0.022200
  1.315000, -0.021400
  1.317000, -0.020700
  1.319000, -0.020000
  1.321000, -0.019300
  1.323000, -0.018500
  1.325000, -0.017700
  1.327000, -0.016900
  1.329000, -0.016000
  1.331000, -0.015100
  1.333000, -0.014100
  1.335000, -0.013200
  1.337000, -0.012200
  1.339000, -0.011200
  1.341000, -0.010200
  1.343000, -0.009200
  1.345000, -0.008200
  1.347000, -0.007100
  1.349000, -0.006000
  1.351000, -0.004900
  1.353000, -0.003800
  1.355000, -0.002800
  1.357000, -0.001800
  1.359000, -0.000700
  1.361000,  0.000400
  1.363000,  0.001600
  1.365000,  0.002700
  1.367000,  0.003600
  1.369000,  0.004800
  1.371000,  0.006000
  1.373000,  0.007100
  1.375000,  0.008100
  1.377000,  0.009000
  1.379000,  0.009900
  1.381000,  0.010800
  1.383000,  0.011500
  1.385000,  0.011900
  1.387000,  0.012300
  1.389000,  0.012700
  1.391000,  0.012800
  1.393000,  0.012600
  1.395000,  0.012300
  1.397000,  0.011500
  1.399000,  0.010400
