# z (nm)   (kJ/mol)
  0.309000, 15.384000
  0.311000, 15.178300
  0.313000, 14.976800
  0.315000, 14.787000
  0.317000, 14.576000
  0.319000, 14.355600
  0.321000, 14.130800
  0.323000, 13.906500
  0.325000, 13.685900
  0.327000, 13.474000
  0.329000, 13.265900
  0.331000, 13.056300
  0.333000, 12.844100
  0.335000, 12.626100
  0.337000, 12.411000
  0.339000, 12.205500
  0.341000, 12.006400
  0.343000, 11.809900
  0.345000, 11.612100
  0.347000, 11.416200
  0.349000, 11.228000
  0.351000, 11.045800
  0.353000, 10.864000
  0.355000, 10.686100
  0.357000, 10.514600
  0.359000, 10.348700
  0.361000, 10.188300
  0.363000, 10.031800
  0.365000,  9.881400
  0.367000,  9.738600
  0.369000,  9.600500
  0.371000,  9.466400
  0.373000,  9.337200
  0.375000,  9.212900
  0.377000,  9.095100
  0.379000,  8.984000
  0.381000,  8.876400
  0.383000,  8.773400
  0.385000,  8.676100
  0.387000,  8.583300
  0.389000,  8.495300
  0.391000,  8.412700
  0.393000,  8.336700
  0.395000,  8.264900
  0.397000,  8.195900
  0.399000,  8.130900
  0.401000,  8.070200
  0.403000,  8.012500
  0.405000,  7.958800
  0.407000,  7.909200
  0.409000,  7.862600
  0.411000,  7.819000
  0.413000,  7.778900
  0.415000,  7.741800
  0.417000,  7.707100
  0.419000,  7.674600
  0.421000,  7.644200
  0.423000,  7.616200
  0.425000,  7.590200
  0.427000,  7.565500
  0.429000,  7.542500
  0.431000,  7.521500
  0.433000,  7.501000
  0.435000,  7.480700
  0.437000,  7.461400
  0.439000,  7.442400
  0.441000,  7.423300
  0.443000,  7.404200
  0.445000,  7.385200
  0.447000,  7.366200
  0.449000,  7.346400
  0.451000,  7.325300
  0.453000,  7.303500
  0.455000,  7.281100
  0.457000,  7.256800
  0.459000,  7.230700
  0.461000,  7.203200
  0.463000,  7.173400
  0.465000,  7.142000
  0.467000,  7.108600
  0.469000,  7.072500
  0.471000,  7.033900
  0.473000,  6.992900
  0.475000,  6.949500
  0.477000,  6.903700
  0.479000,  6.854700
  0.481000,  6.802500
  0.483000,  6.748200
  0.485000,  6.690800
  0.487000,  6.630000
  0.489000,  6.566700
  0.491000,  6.500300
  0.493000,  6.430300
  0.495000,  6.357200
  0.497000,  6.281300
  0.499000,  6.202200
  0.501000,  6.119400
  0.503000,  6.033200
  0.505000,  5.943000
  0.507000,  5.849700
  0.509000,  5.753700
  0.511000,  5.654000
  0.513000,  5.551400
  0.515000,  5.445800
  0.517000,  5.337400
  0.519000,  5.226700
  0.521000,  5.111800
  0.523000,  4.993300
  0.525000,  4.872300
  0.527000,  4.748200
  0.529000,  4.621700
  0.531000,  4.493100
  0.533000,  4.361900
  0.535000,  4.228000
  0.537000,  4.092300
  0.539000,  3.954800
  0.541000,  3.814400
  0.543000,  3.672900
  0.545000,  3.529900
  0.547000,  3.384900
  0.549000,  3.238900
  0.551000,  3.091800
  0.553000,  2.943000
  0.555000,  2.792900
  0.557000,  2.641700
  0.559000,  2.489800
  0.561000,  2.338500
  0.563000,  2.187100
  0.565000,  2.035700
  0.567000,  1.885000
  0.569000,  1.734600
  0.571000,  1.584400
  0.573000,  1.436100
  0.575000,  1.289100
  0.577000,  1.142400
  0.579000,  0.997400
  0.581000,  0.853700
  0.583000,  0.711600
  0.585000,  0.571900
  0.587000,  0.434800
  0.589000,  0.299400
  0.591000,  0.165700
  0.593000,  0.035400
  0.595000, -0.091100
  0.597000, -0.214300
  0.599000, -0.335000
  0.601000, -0.452600
  0.603000, -0.567000
  0.605000, -0.678100
  0.607000, -0.785100
  0.609000, -0.887900
  0.611000, -0.986500
  0.613000, -1.081300
  0.615000, -1.172400
  0.617000, -1.259400
  0.619000, -1.342100
  0.621000, -1.420400
  0.623000, -1.494900
  0.625000, -1.565300
  0.627000, -1.631400
  0.629000, -1.693400
  0.631000, -1.750900
  0.633000, -1.804300
  0.635000, -1.853700
  0.637000, -1.898700
  0.639000, -1.939700
  0.641000, -1.976900
  0.643000, -2.010200
  0.645000, -2.039400
  0.647000, -2.064800
  0.649000, -2.086900
  0.651000, -2.104900
  0.653000, -2.119400
  0.655000, -2.130800
  0.657000, -2.138800
  0.659000, -2.143600
  0.661000, -2.145700
  0.663000, -2.145100
  0.665000, -2.141400
  0.667000, -2.135100
  0.669000, -2.126400
  0.671000, -2.115300
  0.673000, -2.102000
  0.675000, -2.086500
  0.677000, -2.069200
  0.679000, -2.050100
  0.681000, -2.029100
  0.683000, -2.006400
  0.685000, -1.982200
  0.687000, -1.957100
  0.689000, -1.930700
  0.691000, -1.902900
  0.693000, -1.874000
  0.695000, -1.844000
  0.697000, -1.813200
  0.699000, -1.781900
  0.701000, -1.749900
  0.703000, -1.717100
  0.705000, -1.683800
  0.707000, -1.650200
  0.709000, -1.616100
  0.711000, -1.581800
  0.713000, -1.547300
  0.715000, -1.512500
  0.717000, -1.477500
  0.719000, -1.442200
  0.721000, -1.406700
  0.723000, -1.371300
  0.725000, -1.335900
  0.727000, -1.300300
  0.729000, -1.264700
  0.731000, -1.229100
  0.733000, -1.193400
  0.735000, -1.157700
  0.737000, -1.122000
  0.739000, -1.086300
  0.741000, -1.050600
  0.743000, -1.014900
  0.745000, -0.979200
  0.747000, -0.943400
  0.749000, -0.907700
  0.751000, -0.872100
  0.753000, -0.836500
  0.755000, -0.800800
  0.757000, -0.765100
  0.759000, -0.729500
  0.761000, -0.693800
  0.763000, -0.658100
  0.765000, -0.622600
  0.767000, -0.587100
  0.769000, -0.551700
  0.771000, -0.516300
  0.773000, -0.480900
  0.775000, -0.445300
  0.777000, -0.409900
  0.779000, -0.374900
  0.781000, -0.340100
  0.783000, -0.305400
  0.785000, -0.270800
  0.787000, -0.236300
  0.789000, -0.201900
  0.791000, -0.167800
  0.793000, -0.134200
  0.795000, -0.101000
  0.797000, -0.068300
  0.799000, -0.036000
  0.801000, -0.004200
  0.803000,  0.027000
  0.805000,  0.057800
  0.807000,  0.087900
  0.809000,  0.117300
  0.811000,  0.146200
  0.813000,  0.174300
  0.815000,  0.201700
  0.817000,  0.228400
  0.819000,  0.254000
  0.821000,  0.278600
  0.823000,  0.302400
  0.825000,  0.325200
  0.827000,  0.347000
  0.829000,  0.367900
  0.831000,  0.387600
  0.833000,  0.406300
  0.835000,  0.423600
  0.837000,  0.439900
  0.839000,  0.454900
  0.841000,  0.468700
  0.843000,  0.481300
  0.845000,  0.492600
  0.847000,  0.502700
  0.849000,  0.511600
  0.851000,  0.519200
  0.853000,  0.525600
  0.855000,  0.530700
  0.857000,  0.534600
  0.859000,  0.537200
  0.861000,  0.538700
  0.863000,  0.539000
  0.865000,  0.538100
  0.867000,  0.536000
  0.869000,  0.532800
  0.871000,  0.528400
  0.873000,  0.522900
  0.875000,  0.516500
  0.877000,  0.509200
  0.879000,  0.500900
  0.881000,  0.491600
  0.883000,  0.481400
  0.885000,  0.470400
  0.887000,  0.458700
  0.889000,  0.446300
  0.891000,  0.433200
  0.893000,  0.419400
  0.895000,  0.405000
  0.897000,  0.390200
  0.899000,  0.374900
  0.901000,  0.359000
  0.903000,  0.342900
  0.905000,  0.326600
  0.907000,  0.310000
  0.909000,  0.293100
  0.911000,  0.276000
  0.913000,  0.258700
  0.915000,  0.241400
  0.917000,  0.223900
  0.919000,  0.206500
  0.921000,  0.189200
  0.923000,  0.172000
  0.925000,  0.155000
  0.927000,  0.138300
  0.929000,  0.121900
  0.931000,  0.105500
  0.933000,  0.089500
  0.935000,  0.073800
  0.937000,  0.058500
  0.939000,  0.043700
  0.941000,  0.029300
  0.943000,  0.015200
  0.945000,  0.001500
  0.947000, -0.011600
  0.949000, -0.024200
  0.951000, -0.036400
  0.953000, -0.048100
  0.955000, -0.059400
  0.957000, -0.070000
  0.959000, -0.080200
  0.961000, -0.090000
  0.963000, -0.099100
  0.965000, -0.107800
  0.967000, -0.116000
  0.969000, -0.123600
  0.971000, -0.130600
  0.973000, -0.137100
  0.975000, -0.143100
  0.977000, -0.148500
  0.979000, -0.153600
  0.981000, -0.158200
  0.983000, -0.162200
  0.985000, -0.165900
  0.987000, -0.169000
  0.989000, -0.171700
  0.991000, -0.173900
  0.993000, -0.175700
  0.995000, -0.177100
  0.997000, -0.178100
  0.999000, -0.178800
  1.001000, -0.179100
  1.003000, -0.178900
  1.005000, -0.178400
  1.007000, -0.177600
  1.009000, -0.176500
  1.011000, -0.175000
  1.013000, -0.173400
  1.015000, -0.171400
  1.017000, -0.169100
  1.019000, -0.166600
  1.021000, -0.163800
  1.023000, -0.160800
  1.025000, -0.157500
  1.027000, -0.153900
  1.029000, -0.150000
  1.031000, -0.146000
  1.033000, -0.141700
  1.035000, -0.137300
  1.037000, -0.132600
  1.039000, -0.127800
  1.041000, -0.122900
  1.043000, -0.117700
  1.045000, -0.112400
  1.047000, -0.107100
  1.049000, -0.101500
  1.051000, -0.095800
  1.053000, -0.090000
  1.055000, -0.084100
  1.057000, -0.078000
  1.059000, -0.071900
  1.061000, -0.065700
  1.063000, -0.059400
  1.065000, -0.053000
  1.067000, -0.046600
  1.069000, -0.040100
  1.071000, -0.033600
  1.073000, -0.026900
  1.075000, -0.020300
  1.077000, -0.013700
  1.079000, -0.007100
  1.081000, -0.000600
  1.083000,  0.006000
  1.085000,  0.012600
  1.087000,  0.019100
  1.089000,  0.025500
  1.091000,  0.031700
  1.093000,  0.037900
  1.095000,  0.044100
  1.097000,  0.050000
  1.099000,  0.055700
  1.101000,  0.061400
  1.103000,  0.066900
  1.105000,  0.072100
  1.107000,  0.077200
  1.109000,  0.082300
  1.111000,  0.087100
  1.113000,  0.091800
  1.115000,  0.096200
  1.117000,  0.100500
  1.119000,  0.104500
  1.121000,  0.108300
  1.123000,  0.111800
  1.125000,  0.115100
  1.127000,  0.118200
  1.129000,  0.121100
  1.131000,  0.123600
  1.133000,  0.125900
  1.135000,  0.128000
  1.137000,  0.129800
  1.139000,  0.131500
  1.141000,  0.132900
  1.143000,  0.134000
  1.145000,  0.134900
  1.147000,  0.135500
  1.149000,  0.136000
  1.151000,  0.136300
  1.153000,  0.136500
  1.155000,  0.136300
  1.157000,  0.136000
  1.159000,  0.135400
  1.161000,  0.134700
  1.163000,  0.133700
  1.165000,  0.132600
  1.167000,  0.131300
  1.169000,  0.130000
  1.171000,  0.128400
  1.173000,  0.126800
  1.175000,  0.125000
  1.177000,  0.123000
  1.179000,  0.120900
  1.181000,  0.118700
  1.183000,  0.116500
  1.185000,  0.113900
  1.187000,  0.111200
  1.189000,  0.108500
  1.191000,  0.105700
  1.193000,  0.102900
  1.195000,  0.100000
  1.197000,  0.097000
  1.199000,  0.094100
  1.201000,  0.091000
  1.203000,  0.087800
  1.205000,  0.084500
  1.207000,  0.081200
  1.209000,  0.077900
  1.211000,  0.074400
  1.213000,  0.070900
  1.215000,  0.067300
  1.217000,  0.063700
  1.219000,  0.060100
  1.221000,  0.056500
  1.223000,  0.052900
  1.225000,  0.049200
  1.227000,  0.045600
  1.229000,  0.041900
  1.231000,  0.038300
  1.233000,  0.034700
  1.235000,  0.031000
  1.237000,  0.027400
  1.239000,  0.023900
  1.241000,  0.020400
  1.243000,  0.016900
  1.245000,  0.013400
  1.247000,  0.010100
  1.249000,  0.006700
  1.251000,  0.003500
  1.253000,  0.000300
  1.255000, -0.002700
  1.257000, -0.005500
  1.259000, -0.008300
  1.261000, -0.011100
  1.263000, -0.013600
  1.265000, -0.016000
  1.267000, -0.018300
  1.269000, -0.020500
  1.271000, -0.022600
  1.273000, -0.024400
  1.275000, -0.026100
  1.277000, -0.027700
  1.279000, -0.029200
  1.281000, -0.030500
  1.283000, -0.031800
  1.285000, -0.032800
  1.287000, -0.033700
  1.289000, -0.034500
  1.291000, -0.035100
  1.293000, -0.035600
  1.295000, -0.036100
  1.297000, -0.036400
  1.299000, -0.036500
  1.301000, -0.036600
  1.303000, -0.036600
  1.305000, -0.036400
  1.307000, -0.036100
  1.309000, -0.035800
  1.311000, -0.035400
  1.313000, -0.035000
  1.315000, -0.034500
  1.317000, -0.033900
  1.319000, -0.033200
  1.321000, -0.032600
  1.323000, -0.031900
  1.325000, -0.031100
  1.327000, -0.030300
  1.329000, -0.029400
  1.331000, -0.028500
  1.333000, -0.027500
  1.335000, -0.026600
  1.337000, -0.025700
  1.339000, -0.024600
  1.341000, -0.023500
  1.343000, -0.022300
  1.345000, -0.021200
  1.347000, -0.020100
  1.349000, -0.018900
  1.351000, -0.017500
  1.353000, -0.016100
  1.355000, -0.014600
  1.357000, -0.013100
  1.359000, -0.011500
  1.361000, -0.009800
  1.363000, -0.008000
  1.365000, -0.006200
  1.367000, -0.004400
  1.369000, -0.002700
  1.371000, -0.000900
  1.373000,  0.000900
  1.375000,  0.002800
  1.377000,  0.004700
  1.379000,  0.006400
  1.381000,  0.008000
  1.383000,  0.009400
  1.385000,  0.011000
  1.387000,  0.012500
  1.389000,  0.013900
  1.391000,  0.015000
  1.393000,  0.016100
  1.395000,  0.016800
  1.397000,  0.017400
  1.399000,  0.017700
