# z (nm)   (kJ/mol)
  0.307000, 14.591200
  0.309000, 14.400500
  0.311000, 14.202200
  0.313000, 14.010000
  0.315000, 13.798400
  0.317000, 13.589500
  0.319000, 13.392100
  0.321000, 13.180200
  0.323000, 12.967100
  0.325000, 12.763900
  0.327000, 12.555200
  0.329000, 12.329400
  0.331000, 12.099200
  0.333000, 11.881700
  0.335000, 11.673300
  0.337000, 11.460700
  0.339000, 11.242000
  0.341000, 11.022800
  0.343000, 10.813500
  0.345000, 10.605300
  0.347000, 10.395700
  0.349000, 10.190700
  0.351000,  9.989100
  0.353000,  9.788800
  0.355000,  9.593500
  0.357000,  9.405300
  0.359000,  9.218200
  0.361000,  9.038000
  0.363000,  8.865800
  0.365000,  8.697500
  0.367000,  8.534100
  0.369000,  8.377100
  0.371000,  8.222700
  0.373000,  8.071400
  0.375000,  7.928900
  0.377000,  7.794900
  0.379000,  7.665900
  0.381000,  7.540200
  0.383000,  7.420100
  0.385000,  7.307600
  0.387000,  7.201600
  0.389000,  7.099800
  0.391000,  7.001500
  0.393000,  6.909100
  0.395000,  6.823100
  0.397000,  6.742900
  0.399000,  6.667400
  0.401000,  6.596700
  0.403000,  6.531400
  0.405000,  6.470700
  0.407000,  6.414600
  0.409000,  6.363300
  0.411000,  6.316400
  0.413000,  6.273900
  0.415000,  6.236000
  0.417000,  6.202300
  0.419000,  6.172400
  0.421000,  6.145800
  0.423000,  6.122500
  0.425000,  6.102700
  0.427000,  6.085900
  0.429000,  6.072100
  0.431000,  6.061000
  0.433000,  6.052100
  0.435000,  6.045100
  0.437000,  6.040300
  0.439000,  6.037700
  0.441000,  6.036200
  0.443000,  6.035500
  0.445000,  6.035700
  0.447000,  6.036700
  0.449000,  6.038400
  0.451000,  6.040600
  0.453000,  6.042900
  0.455000,  6.045300
  0.457000,  6.047100
  0.459000,  6.047700
  0.461000,  6.048300
  0.463000,  6.048400
  0.465000,  6.046800
  0.467000,  6.043300
  0.469000,  6.038300
  0.471000,  6.031500
  0.473000,  6.022600
  0.475000,  6.011600
  0.477000,  5.997700
  0.479000,  5.980900
  0.481000,  5.961700
  0.483000,  5.939200
  0.485000,  5.913400
  0.487000,  5.884500
  0.489000,  5.852100
  0.491000,  5.816300
  0.493000,  5.776900
  0.495000,  5.733700
  0.497000,  5.686900
  0.499000,  5.636400
  0.501000,  5.581800
  0.503000,  5.523300
  0.505000,  5.461000
  0.507000,  5.394200
  0.509000,  5.322900
  0.511000,  5.247300
  0.513000,  5.167400
  0.515000,  5.083400
  0.517000,  4.996100
  0.519000,  4.905500
  0.521000,  4.810400
  0.523000,  4.710700
  0.525000,  4.607500
  0.527000,  4.502000
  0.529000,  4.392800
  0.531000,  4.278900
  0.533000,  4.162100
  0.535000,  4.042500
  0.537000,  3.920200
  0.539000,  3.794900
  0.541000,  3.666600
  0.543000,  3.536800
  0.545000,  3.404300
  0.547000,  3.268900
  0.549000,  3.131400
  0.551000,  2.992800
  0.553000,  2.852900
  0.555000,  2.710600
  0.557000,  2.567000
  0.559000,  2.422100
  0.561000,  2.275700
  0.563000,  2.128500
  0.565000,  1.980900
  0.567000,  1.833800
  0.569000,  1.687000
  0.571000,  1.540000
  0.573000,  1.393200
  0.575000,  1.248100
  0.577000,  1.104100
  0.579000,  0.960100
  0.581000,  0.817800
  0.583000,  0.677500
  0.585000,  0.539200
  0.587000,  0.402000
  0.589000,  0.266300
  0.591000,  0.133000
  0.593000,  0.001900
  0.595000, -0.127200
  0.597000, -0.254100
  0.599000, -0.378300
  0.601000, -0.499200
  0.603000, -0.616600
  0.605000, -0.730900
  0.607000, -0.842700
  0.609000, -0.951200
  0.611000, -1.056100
  0.613000, -1.157500
  0.615000, -1.255300
  0.617000, -1.349300
  0.619000, -1.439800
  0.621000, -1.526800
  0.623000, -1.610000
  0.625000, -1.689400
  0.627000, -1.764900
  0.629000, -1.836600
  0.631000, -1.904600
  0.633000, -1.968700
  0.635000, -2.029100
  0.637000, -2.085600
  0.639000, -2.138400
  0.641000, -2.187500
  0.643000, -2.232900
  0.645000, -2.274600
  0.647000, -2.312600
  0.649000, -2.347000
  0.651000, -2.378000
  0.653000, -2.405400
  0.655000, -2.429300
  0.657000, -2.449900
  0.659000, -2.467000
  0.661000, -2.481100
  0.663000, -2.492000
  0.665000, -2.500000
  0.667000, -2.504900
  0.669000, -2.506700
  0.671000, -2.505600
  0.673000, -2.501700
  0.675000, -2.495000
  0.677000, -2.485400
  0.679000, -2.473200
  0.681000, -2.458700
  0.683000, -2.441800
  0.685000, -2.422400
  0.687000, -2.400600
  0.689000, -2.376700
  0.691000, -2.350600
  0.693000, -2.322500
  0.695000, -2.292500
  0.697000, -2.260600
  0.699000, -2.226800
  0.701000, -2.191100
  0.703000, -2.153600
  0.705000, -2.114700
  0.707000, -2.074300
  0.709000, -2.032400
  0.711000, -1.989000
  0.713000, -1.944200
  0.715000, -1.898200
  0.717000, -1.851300
  0.719000, -1.803200
  0.721000, -1.753900
  0.723000, -1.703700
  0.725000, -1.652600
  0.727000, -1.600500
  0.729000, -1.547800
  0.731000, -1.494500
  0.733000, -1.440700
  0.735000, -1.386300
  0.737000, -1.331400
  0.739000, -1.276200
  0.741000, -1.220700
  0.743000, -1.165300
  0.745000, -1.109600
  0.747000, -1.053500
  0.749000, -0.997500
  0.751000, -0.941600
  0.753000, -0.886100
  0.755000, -0.830800
  0.757000, -0.775600
  0.759000, -0.720800
  0.761000, -0.666600
  0.763000, -0.612700
  0.765000, -0.559400
  0.767000, -0.506800
  0.769000, -0.454800
  0.771000, -0.403500
  0.773000, -0.353000
  0.775000, -0.303200
  0.777000, -0.254300
  0.779000, -0.206300
  0.781000, -0.159300
  0.783000, -0.113300
  0.785000, -0.068400
  0.787000, -0.024700
  0.789000,  0.017800
  0.791000,  0.059600
  0.793000,  0.100000
  0.795000,  0.139300
  0.797000,  0.177200
  0.799000,  0.213700
  0.801000,  0.248800
  0.803000,  0.282700
  0.805000,  0.315200
  0.807000,  0.346200
  0.809000,  0.375800
  0.811000,  0.403900
  0.813000,  0.430700
  0.815000,  0.456000
  0.817000,  0.479800
  0.819000,  0.502300
  0.821000,  0.523500
  0.823000,  0.543000
  0.825000,  0.561100
  0.827000,  0.577900
  0.829000,  0.593300
  0.831000,  0.607200
  0.833000,  0.619600
  0.835000,  0.630600
  0.837000,  0.640200
  0.839000,  0.648500
  0.841000,  0.655400
  0.843000,  0.660900
  0.845000,  0.665000
  0.847000,  0.667700
  0.849000,  0.669000
  0.851000,  0.669000
  0.853000,  0.667800
  0.855000,  0.665400
  0.857000,  0.661700
  0.859000,  0.656900
  0.861000,  0.650800
  0.863000,  0.643500
  0.865000,  0.635000
  0.867000,  0.625600
  0.869000,  0.615000
  0.871000,  0.603300
  0.873000,  0.590500
  0.875000,  0.576700
  0.877000,  0.561900
  0.879000,  0.546300
  0.881000,  0.529800
  0.883000,  0.512500
  0.885000,  0.494500
  0.887000,  0.475600
  0.889000,  0.455900
  0.891000,  0.435600
  0.893000,  0.414700
  0.895000,  0.393200
  0.897000,  0.371300
  0.899000,  0.348800
  0.901000,  0.326000
  0.903000,  0.303000
  0.905000,  0.279500
  0.907000,  0.255600
  0.909000,  0.231700
  0.911000,  0.207600
  0.913000,  0.183100
  0.915000,  0.158600
  0.917000,  0.133900
  0.919000,  0.109400
  0.921000,  0.085200
  0.923000,  0.061200
  0.925000,  0.037300
  0.927000,  0.013600
  0.929000, -0.010000
  0.931000, -0.033200
  0.933000, -0.055900
  0.935000, -0.078300
  0.937000, -0.100300
  0.939000, -0.121900
  0.941000, -0.142700
  0.943000, -0.163000
  0.945000, -0.182800
  0.947000, -0.201900
  0.949000, -0.220500
  0.951000, -0.238400
  0.953000, -0.255700
  0.955000, -0.272100
  0.957000, -0.287700
  0.959000, -0.302600
  0.961000, -0.316700
  0.963000, -0.330100
  0.965000, -0.342800
  0.967000, -0.354500
  0.969000, -0.365500
  0.971000, -0.375600
  0.973000, -0.385000
  0.975000, -0.393500
  0.977000, -0.401200
  0.979000, -0.408100
  0.981000, -0.414200
  0.983000, -0.419400
  0.985000, -0.423900
  0.987000, -0.427700
  0.989000, -0.430700
  0.991000, -0.433000
  0.993000, -0.434500
  0.995000, -0.435300
  0.997000, -0.435300
  0.999000, -0.434700
  1.001000, -0.433500
  1.003000, -0.431700
  1.005000, -0.429300
  1.007000, -0.426300
  1.009000, -0.422700
  1.011000, -0.418600
  1.013000, -0.413900
  1.015000, -0.408800
  1.017000, -0.403200
  1.019000, -0.397000
  1.021000, -0.390600
  1.023000, -0.383700
  1.025000, -0.376500
  1.027000, -0.369000
  1.029000, -0.361200
  1.031000, -0.353100
  1.033000, -0.344700
  1.035000, -0.336000
  1.037000, -0.327000
  1.039000, -0.317800
  1.041000, -0.308500
  1.043000, -0.298800
  1.045000, -0.289000
  1.047000, -0.279100
  1.049000, -0.269100
  1.051000, -0.258900
  1.053000, -0.248700
  1.055000, -0.238300
  1.057000, -0.227900
  1.059000, -0.217400
  1.061000, -0.206700
  1.063000, -0.196200
  1.065000, -0.185500
  1.067000, -0.174900
  1.069000, -0.164300
  1.071000, -0.153600
  1.073000, -0.143100
  1.075000, -0.132500
  1.077000, -0.121900
  1.079000, -0.111400
  1.081000, -0.101000
  1.083000, -0.090700
  1.085000, -0.080400
  1.087000, -0.070300
  1.089000, -0.060200
  1.091000, -0.050300
  1.093000, -0.040500
  1.095000, -0.030800
  1.097000, -0.021200
  1.099000, -0.011800
  1.101000, -0.002500
  1.103000,  0.006600
  1.105000,  0.015600
  1.107000,  0.024300
  1.109000,  0.032800
  1.111000,  0.041200
  1.113000,  0.049300
  1.115000,  0.057200
  1.117000,  0.064900
  1.119000,  0.072300
  1.121000,  0.079500
  1.123000,  0.086400
  1.125000,  0.093100
  1.127000,  0.099400
  1.129000,  0.105500
  1.131000,  0.111200
  1.133000,  0.116700
  1.135000,  0.121900
  1.137000,  0.126700
  1.139000,  0.131100
  1.141000,  0.135300
  1.143000,  0.139200
  1.145000,  0.142700
  1.147000,  0.145800
  1.149000,  0.148500
  1.151000,  0.150800
  1.153000,  0.152900
  1.155000,  0.154600
  1.157000,  0.155900
  1.159000,  0.156900
  1.161000,  0.157500
  1.163000,  0.157600
  1.165000,  0.157500
  1.167000,  0.156900
  1.169000,  0.156100
  1.171000,  0.154800
  1.173000,  0.153300
  1.175000,  0.151500
  1.177000,  0.149300
  1.179000,  0.146800
  1.181000,  0.144000
  1.183000,  0.140900
  1.185000,  0.137600
  1.187000,  0.134000
  1.189000,  0.130100
  1.191000,  0.126000
  1.193000,  0.121800
  1.195000,  0.117400
  1.197000,  0.112800
  1.199000,  0.107900
  1.201000,  0.103000
  1.203000,  0.098100
  1.205000,  0.092900
  1.207000,  0.087600
  1.209000,  0.082300
  1.211000,  0.077100
  1.213000,  0.071800
  1.215000,  0.066400
  1.217000,  0.061100
  1.219000,  0.055800
  1.221000,  0.050500
  1.223000,  0.045200
  1.225000,  0.040000
  1.227000,  0.034900
  1.229000,  0.030000
  1.231000,  0.025000
  1.233000,  0.020200
  1.235000,  0.015600
  1.237000,  0.011100
  1.239000,  0.006700
  1.241000,  0.002400
  1.243000, -0.001800
  1.245000, -0.005900
  1.247000, -0.009700
  1.249000, -0.013400
  1.251000, -0.017000
  1.253000, -0.020300
  1.255000, -0.023400
  1.257000, -0.026400
  1.259000, -0.029300
  1.261000, -0.032000
  1.263000, -0.034600
  1.265000, -0.037000
  1.267000, -0.039300
  1.269000, -0.041300
  1.271000, -0.043400
  1.273000, -0.045300
  1.275000, -0.047000
  1.277000, -0.048600
  1.279000, -0.050100
  1.281000, -0.051400
  1.283000, -0.052600
  1.285000, -0.053600
  1.287000, -0.054600
  1.289000, -0.055400
  1.291000, -0.056200
  1.293000, -0.056800
  1.295000, -0.057300
  1.297000, -0.057500
  1.299000, -0.057700
  1.301000, -0.057900
  1.303000, -0.057900
  1.305000, -0.057800
  1.307000, -0.057600
  1.309000, -0.057200
  1.311000, -0.056800
  1.313000, -0.056300
  1.315000, -0.055700
  1.317000, -0.054800
  1.319000, -0.053600
  1.321000, -0.052400
  1.323000, -0.051000
  1.325000, -0.049500
  1.327000, -0.047800
  1.329000, -0.046000
  1.331000, -0.043900
  1.333000, -0.041600
  1.335000, -0.039000
  1.337000, -0.036300
  1.339000, -0.033400
  1.341000, -0.030400
  1.343000, -0.027100
  1.345000, -0.023700
  1.347000, -0.020000
  1.349000, -0.016200
  1.351000, -0.012200
  1.353000, -0.008000
  1.355000, -0.003700
  1.357000,  0.000900
  1.359000,  0.005600
  1.361000,  0.010400
  1.363000,  0.015400
  1.365000,  0.020400
  1.367000,  0.025500
  1.369000,  0.030700
  1.371000,  0.036000
  1.373000,  0.041500
  1.375000,  0.046900
  1.377000,  0.052400
  1.379000,  0.057800
  1.381000,  0.063200
  1.383000,  0.068500
  1.385000,  0.073600
  1.387000,  0.078700
  1.389000,  0.083500
  1.391000,  0.087900
  1.393000,  0.092000
  1.395000,  0.095800
  1.397000,  0.099200
  1.399000,  0.102100
