# z (nm)   (kJ/mol)
  0.305000, 14.372200
  0.307000, 14.329100
  0.309000, 14.272200
  0.311000, 14.213800
  0.313000, 14.160400
  0.315000, 14.107800
  0.317000, 14.046600
  0.319000, 13.975100
  0.321000, 13.899700
  0.323000, 13.826000
  0.325000, 13.752700
  0.327000, 13.672600
  0.329000, 13.587700
  0.331000, 13.503100
  0.333000, 13.414800
  0.335000, 13.317000
  0.337000, 13.210100
  0.339000, 13.098000
  0.341000, 12.979200
  0.343000, 12.855300
  0.345000, 12.720800
  0.347000, 12.579000
  0.349000, 12.437600
  0.351000, 12.285000
  0.353000, 12.116400
  0.355000, 11.936800
  0.357000, 11.749700
  0.359000, 11.553300
  0.361000, 11.357500
  0.363000, 11.168600
  0.365000, 10.968900
  0.367000, 10.757000
  0.369000, 10.537700
  0.371000, 10.312200
  0.373000, 10.080400
  0.375000,  9.851800
  0.377000,  9.626000
  0.379000,  9.398500
  0.381000,  9.168000
  0.383000,  8.933300
  0.385000,  8.700800
  0.387000,  8.467700
  0.389000,  8.232900
  0.391000,  8.003400
  0.393000,  7.784500
  0.395000,  7.568200
  0.397000,  7.354800
  0.399000,  7.147700
  0.401000,  6.945300
  0.403000,  6.749000
  0.405000,  6.562200
  0.407000,  6.385900
  0.409000,  6.216100
  0.411000,  6.050700
  0.413000,  5.894200
  0.415000,  5.746100
  0.417000,  5.605400
  0.419000,  5.474900
  0.421000,  5.353800
  0.423000,  5.240400
  0.425000,  5.131300
  0.427000,  5.028700
  0.429000,  4.935200
  0.431000,  4.847100
  0.433000,  4.765400
  0.435000,  4.691300
  0.437000,  4.621500
  0.439000,  4.556800
  0.441000,  4.499000
  0.443000,  4.447900
  0.445000,  4.401700
  0.447000,  4.359600
  0.449000,  4.322600
  0.451000,  4.290400
  0.453000,  4.263500
  0.455000,  4.241900
  0.457000,  4.223600
  0.459000,  4.206000
  0.461000,  4.189500
  0.463000,  4.177600
  0.465000,  4.168000
  0.467000,  4.159100
  0.469000,  4.154800
  0.471000,  4.150000
  0.473000,  4.142500
  0.475000,  4.136500
  0.477000,  4.126800
  0.479000,  4.110600
  0.481000,  4.092200
  0.483000,  4.069900
  0.485000,  4.041800
  0.487000,  4.012300
  0.489000,  3.976400
  0.491000,  3.930800
  0.493000,  3.879300
  0.495000,  3.822500
  0.497000,  3.761000
  0.499000,  3.696700
  0.501000,  3.627800
  0.503000,  3.556100
  0.505000,  3.483600
  0.507000,  3.406700
  0.509000,  3.327700
  0.511000,  3.246400
  0.513000,  3.158400
  0.515000,  3.066300
  0.517000,  2.973400
  0.519000,  2.878300
  0.521000,  2.780300
  0.523000,  2.679500
  0.525000,  2.576900
  0.527000,  2.475800
  0.529000,  2.373300
  0.531000,  2.268900
  0.533000,  2.161400
  0.535000,  2.049900
  0.537000,  1.938100
  0.539000,  1.825400
  0.541000,  1.712200
  0.543000,  1.599700
  0.545000,  1.487200
  0.547000,  1.375300
  0.549000,  1.262600
  0.551000,  1.148700
  0.553000,  1.036500
  0.555000,  0.924200
  0.557000,  0.812500
  0.559000,  0.702900
  0.561000,  0.594600
  0.563000,  0.489700
  0.565000,  0.386600
  0.567000,  0.283800
  0.569000,  0.183100
  0.571000,  0.085000
  0.573000, -0.011000
  0.575000, -0.105000
  0.577000, -0.196400
  0.579000, -0.284700
  0.581000, -0.370100
  0.583000, -0.452700
  0.585000, -0.532400
  0.587000, -0.609300
  0.589000, -0.683700
  0.591000, -0.755000
  0.593000, -0.823200
  0.595000, -0.888700
  0.597000, -0.950900
  0.599000, -1.009600
  0.601000, -1.065200
  0.603000, -1.117900
  0.605000, -1.167300
  0.607000, -1.213900
  0.609000, -1.257700
  0.611000, -1.298400
  0.613000, -1.336000
  0.615000, -1.371600
  0.617000, -1.404500
  0.619000, -1.434700
  0.621000, -1.462400
  0.623000, -1.487500
  0.625000, -1.510300
  0.627000, -1.530700
  0.629000, -1.548600
  0.631000, -1.564300
  0.633000, -1.578400
  0.635000, -1.591100
  0.637000, -1.602300
  0.639000, -1.611600
  0.641000, -1.619500
  0.643000, -1.626000
  0.645000, -1.630800
  0.647000, -1.634300
  0.649000, -1.636700
  0.651000, -1.637800
  0.653000, -1.637700
  0.655000, -1.636300
  0.657000, -1.633900
  0.659000, -1.630500
  0.661000, -1.626400
  0.663000, -1.621200
  0.665000, -1.615000
  0.667000, -1.608200
  0.669000, -1.600600
  0.671000, -1.592500
  0.673000, -1.584000
  0.675000, -1.574400
  0.677000, -1.563900
  0.679000, -1.552600
  0.681000, -1.540900
  0.683000, -1.529000
  0.685000, -1.516500
  0.687000, -1.503300
  0.689000, -1.489600
  0.691000, -1.475600
  0.693000, -1.461000
  0.695000, -1.445900
  0.697000, -1.430400
  0.699000, -1.414600
  0.701000, -1.398500
  0.703000, -1.381800
  0.705000, -1.364900
  0.707000, -1.347700
  0.709000, -1.330300
  0.711000, -1.312600
  0.713000, -1.294500
  0.715000, -1.276000
  0.717000, -1.257400
  0.719000, -1.238800
  0.721000, -1.220100
  0.723000, -1.201300
  0.725000, -1.182200
  0.727000, -1.163000
  0.729000, -1.143700
  0.731000, -1.124600
  0.733000, -1.105500
  0.735000, -1.086200
  0.737000, -1.067100
  0.739000, -1.048100
  0.741000, -1.028900
  0.743000, -1.010100
  0.745000, -0.991400
  0.747000, -0.972800
  0.749000, -0.954300
  0.751000, -0.936200
  0.753000, -0.918100
  0.755000, -0.900200
  0.757000, -0.882700
  0.759000, -0.865600
  0.761000, -0.848800
  0.763000, -0.832200
  0.765000, -0.815900
  0.767000, -0.800000
  0.769000, -0.784300
  0.771000, -0.768900
  0.773000, -0.753700
  0.775000, -0.738900
  0.777000, -0.724400
  0.779000, -0.710400
  0.781000, -0.696800
  0.783000, -0.683500
  0.785000, -0.670500
  0.787000, -0.657900
  0.789000, -0.645600
  0.791000, -0.633400
  0.793000, -0.621600
  0.795000, -0.609900
  0.797000, -0.598600
  0.799000, -0.587600
  0.801000, -0.577000
  0.803000, -0.566700
  0.805000, -0.556700
  0.807000, -0.546900
  0.809000, -0.537400
  0.811000, -0.528200
  0.813000, -0.519200
  0.815000, -0.510400
  0.817000, -0.501800
  0.819000, -0.493300
  0.821000, -0.485000
  0.823000, -0.476900
  0.825000, -0.468900
  0.827000, -0.461300
  0.829000, -0.453900
  0.831000, -0.446800
  0.833000, -0.439900
  0.835000, -0.433300
  0.837000, -0.426800
  0.839000, -0.420600
  0.841000, -0.414600
  0.843000, -0.408700
  0.845000, -0.403100
  0.847000, -0.397700
  0.849000, -0.392400
  0.851000, -0.387400
  0.853000, -0.382600
  0.855000, -0.377900
  0.857000, -0.373500
  0.859000, -0.369300
  0.861000, -0.365400
  0.863000, -0.361700
  0.865000, -0.358200
  0.867000, -0.355000
  0.869000, -0.351900
  0.871000, -0.349000
  0.873000, -0.346400
  0.875000, -0.344000
  0.877000, -0.341800
  0.879000, -0.340000
  0.881000, -0.338400
  0.883000, -0.336900
  0.885000, -0.335700
  0.887000, -0.334700
  0.889000, -0.333900
  0.891000, -0.333300
  0.893000, -0.332900
  0.895000, -0.332700
  0.897000, -0.332600
  0.899000, -0.332800
  0.901000, -0.333100
  0.903000, -0.333700
  0.905000, -0.334300
  0.907000, -0.335200
  0.909000, -0.336100
  0.911000, -0.337300
  0.913000, -0.338600
  0.915000, -0.340000
  0.917000, -0.341500
  0.919000, -0.343000
  0.921000, -0.344700
  0.923000, -0.346600
  0.925000, -0.348600
  0.927000, -0.350600
  0.929000, -0.352600
  0.931000, -0.354700
  0.933000, -0.357000
  0.935000, -0.359400
  0.937000, -0.361700
  0.939000, -0.364000
  0.941000, -0.366200
  0.943000, -0.368500
  0.945000, -0.370700
  0.947000, -0.373000
  0.949000, -0.375300
  0.951000, -0.377400
  0.953000, -0.379500
  0.955000, -0.381600
  0.957000, -0.383600
  0.959000, -0.385500
  0.961000, -0.387300
  0.963000, -0.389000
  0.965000, -0.390600
  0.967000, -0.392200
  0.969000, -0.393500
  0.971000, -0.394700
  0.973000, -0.395700
  0.975000, -0.396700
  0.977000, -0.397600
  0.979000, -0.398300
  0.981000, -0.399000
  0.983000, -0.399500
  0.985000, -0.399700
  0.987000, -0.399700
  0.989000, -0.399600
  0.991000, -0.399300
  0.993000, -0.398900
  0.995000, -0.398500
  0.997000, -0.397800
  0.999000, -0.396800
  1.001000, -0.395700
  1.003000, -0.394400
  1.005000, -0.393000
  1.007000, -0.391400
  1.009000, -0.389700
  1.011000, -0.387900
  1.013000, -0.386000
  1.015000, -0.383700
  1.017000, -0.381300
  1.019000, -0.378900
  1.021000, -0.376200
  1.023000, -0.373500
  1.025000, -0.370600
  1.027000, -0.367700
  1.029000, -0.364500
  1.031000, -0.361100
  1.033000, -0.357700
  1.035000, -0.354200
  1.037000, -0.350700
  1.039000, -0.347200
  1.041000, -0.343600
  1.043000, -0.339800
  1.045000, -0.335900
  1.047000, -0.331900
  1.049000, -0.327900
  1.051000, -0.324100
  1.053000, -0.320100
  1.055000, -0.316100
  1.057000, -0.312000
  1.059000, -0.307700
  1.061000, -0.303400
  1.063000, -0.299100
  1.065000, -0.294800
  1.067000, -0.290400
  1.069000, -0.286000
  1.071000, -0.281500
  1.073000, -0.277200
  1.075000, -0.272800
  1.077000, -0.268500
  1.079000, -0.264100
  1.081000, -0.259700
  1.083000, -0.255100
  1.085000, -0.250600
  1.087000, -0.246000
  1.089000, -0.241300
  1.091000, -0.236700
  1.093000, -0.232100
  1.095000, -0.227500
  1.097000, -0.222800
  1.099000, -0.218300
  1.101000, -0.213800
  1.103000, -0.209300
  1.105000, -0.204600
  1.107000, -0.200100
  1.109000, -0.195600
  1.111000, -0.191100
  1.113000, -0.186500
  1.115000, -0.182100
  1.117000, -0.177700
  1.119000, -0.173300
  1.121000, -0.168800
  1.123000, -0.164400
  1.125000, -0.160100
  1.127000, -0.155800
  1.129000, -0.151600
  1.131000, -0.147500
  1.133000, -0.143500
  1.135000, -0.139600
  1.137000, -0.135700
  1.139000, -0.131900
  1.141000, -0.128200
  1.143000, -0.124700
  1.145000, -0.121200
  1.147000, -0.117800
  1.149000, -0.114400
  1.151000, -0.111100
  1.153000, -0.108000
  1.155000, -0.105100
  1.157000, -0.102100
  1.159000, -0.099300
  1.161000, -0.096600
  1.163000, -0.094000
  1.165000, -0.091600
  1.167000, -0.089300
  1.169000, -0.087000
  1.171000, -0.084800
  1.173000, -0.082800
  1.175000, -0.080900
  1.177000, -0.079100
  1.179000, -0.077500
  1.181000, -0.075900
  1.183000, -0.074500
  1.185000, -0.073100
  1.187000, -0.071700
  1.189000, -0.070600
  1.191000, -0.069400
  1.193000, -0.068300
  1.195000, -0.067400
  1.197000, -0.066600
  1.199000, -0.065800
  1.201000, -0.065100
  1.203000, -0.064400
  1.205000, -0.063800
  1.207000, -0.063300
  1.209000, -0.063000
  1.211000, -0.062600
  1.213000, -0.062200
  1.215000, -0.061900
  1.217000, -0.061600
  1.219000, -0.061400
  1.221000, -0.061200
  1.223000, -0.061000
  1.225000, -0.060900
  1.227000, -0.060800
  1.229000, -0.060700
  1.231000, -0.060700
  1.233000, -0.060800
  1.235000, -0.060800
  1.237000, -0.060800
  1.239000, -0.061000
  1.241000, -0.061200
  1.243000, -0.061300
  1.245000, -0.061500
  1.247000, -0.061600
  1.249000, -0.061600
  1.251000, -0.061600
  1.253000, -0.061500
  1.255000, -0.061500
  1.257000, -0.061500
  1.259000, -0.061500
  1.261000, -0.061400
  1.263000, -0.061300
  1.265000, -0.061200
  1.267000, -0.061000
  1.269000, -0.060800
  1.271000, -0.060700
  1.273000, -0.060400
  1.275000, -0.060100
  1.277000, -0.059700
  1.279000, -0.059100
  1.281000, -0.058600
  1.283000, -0.057800
  1.285000, -0.057100
  1.287000, -0.056300
  1.289000, -0.055200
  1.291000, -0.054000
  1.293000, -0.052900
  1.295000, -0.051700
  1.297000, -0.050400
  1.299000, -0.048700
  1.301000, -0.046900
  1.303000, -0.045000
  1.305000, -0.042800
  1.307000, -0.040400
  1.309000, -0.038000
  1.311000, -0.035500
  1.313000, -0.032800
  1.315000, -0.029800
  1.317000, -0.026500
  1.319000, -0.023000
  1.321000, -0.019500
  1.323000, -0.015700
  1.325000, -0.011600
  1.327000, -0.007400
  1.329000, -0.003100
  1.331000,  0.001400
  1.333000,  0.006100
  1.335000,  0.011000
  1.337000,  0.016000
  1.339000,  0.021300
  1.341000,  0.026600
  1.343000,  0.032100
  1.345000,  0.037800
  1.347000,  0.043800
  1.349000,  0.049900
  1.351000,  0.056000
  1.353000,  0.062300
  1.355000,  0.068600
  1.357000,  0.075100
  1.359000,  0.081800
  1.361000,  0.088500
  1.363000,  0.095200
  1.365000,  0.101800
  1.367000,  0.108400
  1.369000,  0.115100
  1.371000,  0.121800
  1.373000,  0.128400
  1.375000,  0.135000
  1.377000,  0.141600
  1.379000,  0.148100
  1.381000,  0.154400
  1.383000,  0.160300
  1.385000,  0.165800
  1.387000,  0.171200
  1.389000,  0.176700
  1.391000,  0.181700
  1.393000,  0.186200
  1.395000,  0.190300
  1.397000,  0.194000
  1.399000,  0.197100
