# z (nm)   (kJ/mol)
  0.291000, 15.529200
  0.293000, 15.393100
  0.295000, 15.230000
  0.297000, 15.055000
  0.299000, 14.869100
  0.301000, 14.676500
  0.303000, 14.485400
  0.305000, 14.294000
  0.307000, 14.099800
  0.309000, 13.893300
  0.311000, 13.679500
  0.313000, 13.469100
  0.315000, 13.268000
  0.317000, 13.073200
  0.319000, 12.876000
  0.321000, 12.670500
  0.323000, 12.462100
  0.325000, 12.255500
  0.327000, 12.049600
  0.329000, 11.850000
  0.331000, 11.650700
  0.333000, 11.451000
  0.335000, 11.251200
  0.337000, 11.056200
  0.339000, 10.864200
  0.341000, 10.670400
  0.343000, 10.480700
  0.345000, 10.296400
  0.347000, 10.116400
  0.349000,  9.939000
  0.351000,  9.770300
  0.353000,  9.610800
  0.355000,  9.453400
  0.357000,  9.298700
  0.359000,  9.152400
  0.361000,  9.012900
  0.363000,  8.873600
  0.365000,  8.737500
  0.367000,  8.608100
  0.369000,  8.486800
  0.371000,  8.370000
  0.373000,  8.256000
  0.375000,  8.150500
  0.377000,  8.049800
  0.379000,  7.951900
  0.381000,  7.859400
  0.383000,  7.772700
  0.385000,  7.690000
  0.387000,  7.611700
  0.389000,  7.539200
  0.391000,  7.470700
  0.393000,  7.407500
  0.395000,  7.349700
  0.397000,  7.295500
  0.399000,  7.245000
  0.401000,  7.198800
  0.403000,  7.156500
  0.405000,  7.118600
  0.407000,  7.084400
  0.409000,  7.053500
  0.411000,  7.025900
  0.413000,  7.001600
  0.415000,  6.980100
  0.417000,  6.961500
  0.419000,  6.945600
  0.421000,  6.932400
  0.423000,  6.921600
  0.425000,  6.912600
  0.427000,  6.905500
  0.429000,  6.900000
  0.431000,  6.895800
  0.433000,  6.893200
  0.435000,  6.891300
  0.437000,  6.890100
  0.439000,  6.888800
  0.441000,  6.887500
  0.443000,  6.886300
  0.445000,  6.885100
  0.447000,  6.883500
  0.449000,  6.880800
  0.451000,  6.877000
  0.453000,  6.872300
  0.455000,  6.866600
  0.457000,  6.859000
  0.459000,  6.849200
  0.461000,  6.837500
  0.463000,  6.823600
  0.465000,  6.807100
  0.467000,  6.787600
  0.469000,  6.765000
  0.471000,  6.739400
  0.473000,  6.710700
  0.475000,  6.678500
  0.477000,  6.642600
  0.479000,  6.602700
  0.481000,  6.559100
  0.483000,  6.511400
  0.485000,  6.459300
  0.487000,  6.403100
  0.489000,  6.342500
  0.491000,  6.277200
  0.493000,  6.207900
  0.495000,  6.134000
  0.497000,  6.055600
  0.499000,  5.972700
  0.501000,  5.885600
  0.503000,  5.793600
  0.505000,  5.696800
  0.507000,  5.595500
  0.509000,  5.489400
  0.511000,  5.378900
  0.513000,  5.264400
  0.515000,  5.145800
  0.517000,  5.023600
  0.519000,  4.897800
  0.521000,  4.768600
  0.523000,  4.635200
  0.525000,  4.497300
  0.527000,  4.356300
  0.529000,  4.213200
  0.531000,  4.066900
  0.533000,  3.916900
  0.535000,  3.764600
  0.537000,  3.610600
  0.539000,  3.453600
  0.541000,  3.294600
  0.543000,  3.135700
  0.545000,  2.975600
  0.547000,  2.813600
  0.549000,  2.651500
  0.551000,  2.488600
  0.553000,  2.325400
  0.555000,  2.161400
  0.557000,  1.997800
  0.559000,  1.835200
  0.561000,  1.673100
  0.563000,  1.512400
  0.565000,  1.352400
  0.567000,  1.194500
  0.569000,  1.038700
  0.571000,  0.884700
  0.573000,  0.732700
  0.575000,  0.582500
  0.577000,  0.435100
  0.579000,  0.290600
  0.581000,  0.148700
  0.583000,  0.010700
  0.585000, -0.123700
  0.587000, -0.255200
  0.589000, -0.382900
  0.591000, -0.506900
  0.593000, -0.627300
  0.595000, -0.743800
  0.597000, -0.855900
  0.599000, -0.964100
  0.601000, -1.068300
  0.603000, -1.168200
  0.605000, -1.263700
  0.607000, -1.354500
  0.609000, -1.440500
  0.611000, -1.522000
  0.613000, -1.599100
  0.615000, -1.671700
  0.617000, -1.739900
  0.619000, -1.803600
  0.621000, -1.862800
  0.623000, -1.917300
  0.625000, -1.967500
  0.627000, -2.013300
  0.629000, -2.054700
  0.631000, -2.091700
  0.633000, -2.125000
  0.635000, -2.154400
  0.637000, -2.179700
  0.639000, -2.201400
  0.641000, -2.219400
  0.643000, -2.233700
  0.645000, -2.244600
  0.647000, -2.252200
  0.649000, -2.256700
  0.651000, -2.258100
  0.653000, -2.256600
  0.655000, -2.252900
  0.657000, -2.246500
  0.659000, -2.237500
  0.661000, -2.226200
  0.663000, -2.212500
  0.665000, -2.196500
  0.667000, -2.178500
  0.669000, -2.159000
  0.671000, -2.137800
  0.673000, -2.115300
  0.675000, -2.091500
  0.677000, -2.066500
  0.679000, -2.040500
  0.681000, -2.013400
  0.683000, -1.985200
  0.685000, -1.956400
  0.687000, -1.926800
  0.689000, -1.896600
  0.691000, -1.865900
  0.693000, -1.834700
  0.695000, -1.803000
  0.697000, -1.771200
  0.699000, -1.739200
  0.701000, -1.706900
  0.703000, -1.674500
  0.705000, -1.642000
  0.707000, -1.609500
  0.709000, -1.577000
  0.711000, -1.544500
  0.713000, -1.511900
  0.715000, -1.479500
  0.717000, -1.447000
  0.719000, -1.414500
  0.721000, -1.382100
  0.723000, -1.349800
  0.725000, -1.317800
  0.727000, -1.286000
  0.729000, -1.254300
  0.731000, -1.222600
  0.733000, -1.191000
  0.735000, -1.159500
  0.737000, -1.128300
  0.739000, -1.097300
  0.741000, -1.066500
  0.743000, -1.035800
  0.745000, -1.005000
  0.747000, -0.974400
  0.749000, -0.943800
  0.751000, -0.913400
  0.753000, -0.883200
  0.755000, -0.852900
  0.757000, -0.822700
  0.759000, -0.792800
  0.761000, -0.762900
  0.763000, -0.732900
  0.765000, -0.703100
  0.767000, -0.673400
  0.769000, -0.643900
  0.771000, -0.614500
  0.773000, -0.585000
  0.775000, -0.555800
  0.777000, -0.526900
  0.779000, -0.498200
  0.781000, -0.469500
  0.783000, -0.440900
  0.785000, -0.412400
  0.787000, -0.384400
  0.789000, -0.356700
  0.791000, -0.329000
  0.793000, -0.301700
  0.795000, -0.274700
  0.797000, -0.248000
  0.799000, -0.221900
  0.801000, -0.196300
  0.803000, -0.170900
  0.805000, -0.145900
  0.807000, -0.121400
  0.809000, -0.097600
  0.811000, -0.074300
  0.813000, -0.051500
  0.815000, -0.029400
  0.817000, -0.007800
  0.819000,  0.013200
  0.821000,  0.033400
  0.823000,  0.053000
  0.825000,  0.071800
  0.827000,  0.089800
  0.829000,  0.107100
  0.831000,  0.123500
  0.833000,  0.139100
  0.835000,  0.153900
  0.837000,  0.167700
  0.839000,  0.180700
  0.841000,  0.192800
  0.843000,  0.204000
  0.845000,  0.214300
  0.847000,  0.223600
  0.849000,  0.232000
  0.851000,  0.239500
  0.853000,  0.246100
  0.855000,  0.251800
  0.857000,  0.256500
  0.859000,  0.260300
  0.861000,  0.263100
  0.863000,  0.265100
  0.865000,  0.266100
  0.867000,  0.266200
  0.869000,  0.265400
  0.871000,  0.263800
  0.873000,  0.261600
  0.875000,  0.258500
  0.877000,  0.254700
  0.879000,  0.250200
  0.881000,  0.245000
  0.883000,  0.238900
  0.885000,  0.232200
  0.887000,  0.225100
  0.889000,  0.217300
  0.891000,  0.209100
  0.893000,  0.200300
  0.895000,  0.191000
  0.897000,  0.181400
  0.899000,  0.171300
  0.901000,  0.160800
  0.903000,  0.150100
  0.905000,  0.139100
  0.907000,  0.127900
  0.909000,  0.116700
  0.911000,  0.105200
  0.913000,  0.093800
  0.915000,  0.082200
  0.917000,  0.070600
  0.919000,  0.059200
  0.921000,  0.047800
  0.923000,  0.036500
  0.925000,  0.025200
  0.927000,  0.014100
  0.929000,  0.003100
  0.931000, -0.007700
  0.933000, -0.018200
  0.935000, -0.028400
  0.937000, -0.038400
  0.939000, -0.048200
  0.941000, -0.057700
  0.943000, -0.066900
  0.945000, -0.075700
  0.947000, -0.084100
  0.949000, -0.092100
  0.951000, -0.099900
  0.953000, -0.107500
  0.955000, -0.114600
  0.957000, -0.121400
  0.959000, -0.127800
  0.961000, -0.133800
  0.963000, -0.139300
  0.965000, -0.144500
  0.967000, -0.149500
  0.969000, -0.154000
  0.971000, -0.158100
  0.973000, -0.162100
  0.975000, -0.165700
  0.977000, -0.168900
  0.979000, -0.171700
  0.981000, -0.174100
  0.983000, -0.176400
  0.985000, -0.178300
  0.987000, -0.180000
  0.989000, -0.181400
  0.991000, -0.182500
  0.993000, -0.183400
  0.995000, -0.184000
  0.997000, -0.184300
  0.999000, -0.184300
  1.001000, -0.184100
  1.003000, -0.183600
  1.005000, -0.182700
  1.007000, -0.181800
  1.009000, -0.180600
  1.011000, -0.179200
  1.013000, -0.177700
  1.015000, -0.176000
  1.017000, -0.174100
  1.019000, -0.172000
  1.021000, -0.169800
  1.023000, -0.167400
  1.025000, -0.164700
  1.027000, -0.161900
  1.029000, -0.159000
  1.031000, -0.155800
  1.033000, -0.152400
  1.035000, -0.148800
  1.037000, -0.145200
  1.039000, -0.141400
  1.041000, -0.137400
  1.043000, -0.133400
  1.045000, -0.129300
  1.047000, -0.125100
  1.049000, -0.120700
  1.051000, -0.116100
  1.053000, -0.111200
  1.055000, -0.106400
  1.057000, -0.101500
  1.059000, -0.096400
  1.061000, -0.091200
  1.063000, -0.086000
  1.065000, -0.080700
  1.067000, -0.075400
  1.069000, -0.070000
  1.071000, -0.064400
  1.073000, -0.058800
  1.075000, -0.053200
  1.077000, -0.047600
  1.079000, -0.041900
  1.081000, -0.036300
  1.083000, -0.030700
  1.085000, -0.025100
  1.087000, -0.019500
  1.089000, -0.013800
  1.091000, -0.008200
  1.093000, -0.002800
  1.095000,  0.002600
  1.097000,  0.007900
  1.099000,  0.013100
  1.101000,  0.018200
  1.103000,  0.023200
  1.105000,  0.028200
  1.107000,  0.032900
  1.109000,  0.037500
  1.111000,  0.042000
  1.113000,  0.046200
  1.115000,  0.050300
  1.117000,  0.054300
  1.119000,  0.058100
  1.121000,  0.061800
  1.123000,  0.065200
  1.125000,  0.068500
  1.127000,  0.071600
  1.129000,  0.074400
  1.131000,  0.077200
  1.133000,  0.079700
  1.135000,  0.082100
  1.137000,  0.084200
  1.139000,  0.086000
  1.141000,  0.087700
  1.143000,  0.089200
  1.145000,  0.090400
  1.147000,  0.091600
  1.149000,  0.092700
  1.151000,  0.093600
  1.153000,  0.094200
  1.155000,  0.094700
  1.157000,  0.095000
  1.159000,  0.095200
  1.161000,  0.095300
  1.163000,  0.095300
  1.165000,  0.095200
  1.167000,  0.094900
  1.169000,  0.094600
  1.171000,  0.094100
  1.173000,  0.093600
  1.175000,  0.093100
  1.177000,  0.092400
  1.179000,  0.091800
  1.181000,  0.091000
  1.183000,  0.090100
  1.185000,  0.089100
  1.187000,  0.088000
  1.189000,  0.086900
  1.191000,  0.085800
  1.193000,  0.084600
  1.195000,  0.083300
  1.197000,  0.081900
  1.199000,  0.080500
  1.201000,  0.079000
  1.203000,  0.077600
  1.205000,  0.076100
  1.207000,  0.074500
  1.209000,  0.073000
  1.211000,  0.071300
  1.213000,  0.069600
  1.215000,  0.067800
  1.217000,  0.065900
  1.219000,  0.064100
  1.221000,  0.062200
  1.223000,  0.060400
  1.225000,  0.058700
  1.227000,  0.056700
  1.229000,  0.054600
  1.231000,  0.052500
  1.233000,  0.050500
  1.235000,  0.048300
  1.237000,  0.046100
  1.239000,  0.043900
  1.241000,  0.041500
  1.243000,  0.039200
  1.245000,  0.036800
  1.247000,  0.034300
  1.249000,  0.031700
  1.251000,  0.029200
  1.253000,  0.026700
  1.255000,  0.024000
  1.257000,  0.021300
  1.259000,  0.018600
  1.261000,  0.015900
  1.263000,  0.013200
  1.265000,  0.010400
  1.267000,  0.007500
  1.269000,  0.004700
  1.271000,  0.002000
  1.273000, -0.000800
  1.275000, -0.003600
  1.277000, -0.006400
  1.279000, -0.009100
  1.281000, -0.011800
  1.283000, -0.014500
  1.285000, -0.017100
  1.287000, -0.019600
  1.289000, -0.022000
  1.291000, -0.024400
  1.293000, -0.026800
  1.295000, -0.029100
  1.297000, -0.031400
  1.299000, -0.033400
  1.301000, -0.035500
  1.303000, -0.037300
  1.305000, -0.039000
  1.307000, -0.040600
  1.309000, -0.042100
  1.311000, -0.043600
  1.313000, -0.044800
  1.315000, -0.045900
  1.317000, -0.046900
  1.319000, -0.047800
  1.321000, -0.048400
  1.323000, -0.048800
  1.325000, -0.049000
  1.327000, -0.049100
  1.329000, -0.049100
  1.331000, -0.048700
  1.333000, -0.048300
  1.335000, -0.047700
  1.337000, -0.047000
  1.339000, -0.046000
  1.341000, -0.045000
  1.343000, -0.043900
  1.345000, -0.042500
  1.347000, -0.041000
  1.349000, -0.039400
  1.351000, -0.037700
  1.353000, -0.035800
  1.355000, -0.033800
  1.357000, -0.031700
  1.359000, -0.029500
  1.361000, -0.027200
  1.363000, -0.024900
  1.365000, -0.022500
  1.367000, -0.020100
  1.369000, -0.017700
  1.371000, -0.015200
  1.373000, -0.012600
  1.375000, -0.009900
  1.377000, -0.007500
  1.379000, -0.005100
  1.381000, -0.002700
  1.383000, -0.000300
  1.385000,  0.001900
  1.387000,  0.003800
  1.389000,  0.005600
  1.391000,  0.007100
  1.393000,  0.008400
  1.395000,  0.009500
  1.397000,  0.010100
  1.399000,  0.010400
