# z (nm)   (kJ/mol)
  0.257000,  7.853700
  0.259000,  7.521100
  0.261000,  7.226900
  0.263000,  6.895500
  0.265000,  6.554300
  0.267000,  6.241600
  0.269000,  5.935700
  0.271000,  5.626900
  0.273000,  5.325500
  0.275000,  5.024700
  0.277000,  4.724800
  0.279000,  4.434300
  0.281000,  4.151500
  0.283000,  3.875400
  0.285000,  3.607400
  0.287000,  3.345000
  0.289000,  3.091000
  0.291000,  2.848400
  0.293000,  2.612400
  0.295000,  2.384700
  0.297000,  2.163400
  0.299000,  1.949800
  0.301000,  1.747700
  0.303000,  1.554100
  0.305000,  1.370400
  0.307000,  1.195600
  0.309000,  1.029000
  0.311000,  0.871700
  0.313000,  0.722400
  0.315000,  0.581000
  0.317000,  0.448100
  0.319000,  0.324200
  0.321000,  0.208100
  0.323000,  0.100000
  0.325000, -0.000100
  0.327000, -0.092800
  0.329000, -0.176400
  0.331000, -0.251900
  0.333000, -0.322500
  0.335000, -0.387100
  0.337000, -0.444600
  0.339000, -0.496800
  0.341000, -0.544200
  0.343000, -0.585200
  0.345000, -0.620600
  0.347000, -0.651300
  0.349000, -0.677100
  0.351000, -0.700100
  0.353000, -0.721100
  0.355000, -0.739700
  0.357000, -0.754600
  0.359000, -0.766300
  0.361000, -0.776400
  0.363000, -0.784100
  0.365000, -0.790600
  0.367000, -0.796800
  0.369000, -0.801400
  0.371000, -0.804400
  0.373000, -0.807200
  0.375000, -0.809200
  0.377000, -0.810600
  0.379000, -0.811500
  0.381000, -0.810200
  0.383000, -0.808900
  0.385000, -0.808300
  0.387000, -0.807400
  0.389000, -0.807100
  0.391000, -0.805600
  0.393000, -0.802500
  0.395000, -0.800500
  0.397000, -0.798900
  0.399000, -0.796600
  0.401000, -0.793600
  0.403000, -0.789400
  0.405000, -0.784500
  0.407000, -0.779100
  0.409000, -0.772900
  0.411000, -0.766600
  0.413000, -0.759600
  0.415000, -0.751800
  0.417000, -0.743200
  0.419000, -0.733300
  0.421000, -0.722700
  0.423000, -0.710900
  0.425000, -0.698200
  0.427000, -0.684600
  0.429000, -0.669800
  0.431000, -0.653900
  0.433000, -0.637100
  0.435000, -0.619000
  0.437000, -0.599800
  0.439000, -0.579300
  0.441000, -0.557700
  0.443000, -0.535200
  0.445000, -0.511500
  0.447000, -0.486800
  0.449000, -0.461300
  0.451000, -0.434400
  0.453000, -0.406900
  0.455000, -0.379700
  0.457000, -0.352300
  0.459000, -0.323900
  0.461000, -0.295100
  0.463000, -0.265200
  0.465000, -0.234300
  0.467000, -0.204700
  0.469000, -0.175900
  0.471000, -0.147000
  0.473000, -0.118200
  0.475000, -0.090800
  0.477000, -0.065100
  0.479000, -0.039800
  0.481000, -0.015200
  0.483000,  0.007900
  0.485000,  0.030000
  0.487000,  0.050500
  0.489000,  0.068700
  0.491000,  0.085200
  0.493000,  0.099400
  0.495000,  0.111900
  0.497000,  0.122300
  0.499000,  0.130100
  0.501000,  0.136100
  0.503000,  0.139900
  0.505000,  0.141100
  0.507000,  0.139900
  0.509000,  0.136000
  0.511000,  0.129300
  0.513000,  0.120500
  0.515000,  0.109300
  0.517000,  0.094900
  0.519000,  0.077700
  0.521000,  0.058000
  0.523000,  0.036000
  0.525000,  0.011700
  0.527000, -0.014900
  0.529000, -0.044200
  0.531000, -0.075500
  0.533000, -0.108900
  0.535000, -0.144500
  0.537000, -0.181800
  0.539000, -0.221000
  0.541000, -0.261900
  0.543000, -0.304300
  0.545000, -0.348600
  0.547000, -0.394200
  0.549000, -0.441000
  0.551000, -0.489200
  0.553000, -0.538400
  0.555000, -0.587800
  0.557000, -0.638200
  0.559000, -0.689600
  0.561000, -0.741500
  0.563000, -0.793900
  0.565000, -0.846600
  0.567000, -0.899300
  0.569000, -0.951500
  0.571000, -1.003100
  0.573000, -1.054800
  0.575000, -1.106200
  0.577000, -1.157200
  0.579000, -1.207700
  0.581000, -1.257000
  0.583000, -1.305400
  0.585000, -1.353100
  0.587000, -1.399700
  0.589000, -1.445300
  0.591000, -1.489700
  0.593000, -1.532100
  0.595000, -1.572800
  0.597000, -1.612700
  0.599000, -1.651300
  0.601000, -1.687800
  0.603000, -1.722500
  0.605000, -1.755600
  0.607000, -1.787200
  0.609000, -1.816700
  0.611000, -1.844200
  0.613000, -1.869800
  0.615000, -1.893600
  0.617000, -1.915400
  0.619000, -1.935100
  0.621000, -1.952500
  0.623000, -1.968000
  0.625000, -1.981300
  0.627000, -1.992500
  0.629000, -2.001700
  0.631000, -2.008900
  0.633000, -2.013800
  0.635000, -2.016600
  0.637000, -2.017400
  0.639000, -2.016100
  0.641000, -2.012900
  0.643000, -2.007600
  0.645000, -2.000200
  0.647000, -1.990900
  0.649000, -1.979600
  0.651000, -1.966300
  0.653000, -1.951200
  0.655000, -1.934500
  0.657000, -1.915900
  0.659000, -1.895600
  0.661000, -1.873600
  0.663000, -1.849900
  0.665000, -1.824700
  0.667000, -1.797800
  0.669000, -1.769500
  0.671000, -1.740000
  0.673000, -1.709100
  0.675000, -1.676900
  0.677000, -1.643700
  0.679000, -1.609300
  0.681000, -1.573900
  0.683000, -1.537500
  0.685000, -1.499800
  0.687000, -1.461400
  0.689000, -1.422400
  0.691000, -1.382700
  0.693000, -1.342200
  0.695000, -1.301500
  0.697000, -1.260800
  0.699000, -1.219600
  0.701000, -1.177700
  0.703000, -1.135300
  0.705000, -1.092900
  0.707000, -1.050300
  0.709000, -1.007600
  0.711000, -0.965300
  0.713000, -0.923200
  0.715000, -0.880900
  0.717000, -0.838900
  0.719000, -0.797500
  0.721000, -0.756700
  0.723000, -0.716100
  0.725000, -0.676000
  0.727000, -0.636400
  0.729000, -0.597300
  0.731000, -0.559000
  0.733000, -0.521200
  0.735000, -0.484000
  0.737000, -0.447900
  0.739000, -0.412700
  0.741000, -0.378300
  0.743000, -0.344900
  0.745000, -0.312500
  0.747000, -0.281000
  0.749000, -0.250600
  0.751000, -0.221100
  0.753000, -0.192600
  0.755000, -0.165300
  0.757000, -0.139100
  0.759000, -0.113800
  0.761000, -0.089700
  0.763000, -0.066900
  0.765000, -0.045300
  0.767000, -0.024700
  0.769000, -0.005300
  0.771000,  0.012900
  0.773000,  0.029800
  0.775000,  0.045600
  0.777000,  0.060200
  0.779000,  0.073700
  0.781000,  0.086100
  0.783000,  0.097300
  0.785000,  0.107300
  0.787000,  0.116300
  0.789000,  0.124100
  0.791000,  0.130900
  0.793000,  0.136800
  0.795000,  0.141500
  0.797000,  0.145200
  0.799000,  0.147900
  0.801000,  0.149700
  0.803000,  0.150500
  0.805000,  0.150500
  0.807000,  0.149400
  0.809000,  0.147300
  0.811000,  0.144500
  0.813000,  0.140800
  0.815000,  0.136700
  0.817000,  0.131900
  0.819000,  0.126300
  0.821000,  0.120000
  0.823000,  0.113100
  0.825000,  0.105700
  0.827000,  0.097700
  0.829000,  0.089200
  0.831000,  0.080300
  0.833000,  0.070900
  0.835000,  0.060900
  0.837000,  0.050800
  0.839000,  0.040400
  0.841000,  0.029500
  0.843000,  0.018200
  0.845000,  0.006800
  0.847000, -0.004800
  0.849000, -0.016500
  0.851000, -0.028300
  0.853000, -0.040200
  0.855000, -0.052000
  0.857000, -0.064000
  0.859000, -0.076200
  0.861000, -0.088300
  0.863000, -0.100300
  0.865000, -0.112400
  0.867000, -0.124400
  0.869000, -0.136300
  0.871000, -0.148100
  0.873000, -0.159800
  0.875000, -0.171200
  0.877000, -0.182500
  0.879000, -0.193700
  0.881000, -0.204800
  0.883000, -0.215700
  0.885000, -0.226500
  0.887000, -0.237100
  0.889000, -0.247400
  0.891000, -0.257300
  0.893000, -0.267100
  0.895000, -0.276600
  0.897000, -0.285900
  0.899000, -0.294700
  0.901000, -0.303300
  0.903000, -0.311600
  0.905000, -0.319600
  0.907000, -0.327300
  0.909000, -0.334600
  0.911000, -0.341700
  0.913000, -0.348500
  0.915000, -0.354800
  0.917000, -0.360900
  0.919000, -0.366600
  0.921000, -0.372000
  0.923000, -0.376900
  0.925000, -0.381700
  0.927000, -0.386000
  0.929000, -0.389900
  0.931000, -0.393400
  0.933000, -0.396500
  0.935000, -0.399300
  0.937000, -0.401700
  0.939000, -0.403700
  0.941000, -0.405300
  0.943000, -0.406400
  0.945000, -0.407200
  0.947000, -0.407600
  0.949000, -0.407700
  0.951000, -0.407300
  0.953000, -0.406700
  0.955000, -0.405700
  0.957000, -0.404300
  0.959000, -0.402400
  0.961000, -0.400200
  0.963000, -0.397800
  0.965000, -0.394900
  0.967000, -0.391700
  0.969000, -0.388200
  0.971000, -0.384400
  0.973000, -0.380200
  0.975000, -0.375800
  0.977000, -0.371000
  0.979000, -0.365800
  0.981000, -0.360500
  0.983000, -0.355000
  0.985000, -0.349200
  0.987000, -0.343100
  0.989000, -0.336800
  0.991000, -0.330400
  0.993000, -0.323900
  0.995000, -0.317100
  0.997000, -0.310100
  0.999000, -0.303100
  1.001000, -0.295800
  1.003000, -0.288400
  1.005000, -0.280900
  1.007000, -0.273400
  1.009000, -0.265900
  1.011000, -0.258300
  1.013000, -0.250600
  1.015000, -0.242900
  1.017000, -0.235100
  1.019000, -0.227400
  1.021000, -0.219500
  1.023000, -0.211700
  1.025000, -0.203800
  1.027000, -0.195800
  1.029000, -0.188000
  1.031000, -0.180300
  1.033000, -0.172500
  1.035000, -0.164800
  1.037000, -0.157200
  1.039000, -0.149700
  1.041000, -0.142200
  1.043000, -0.134800
  1.045000, -0.127600
  1.047000, -0.120300
  1.049000, -0.113200
  1.051000, -0.106300
  1.053000, -0.099300
  1.055000, -0.092500
  1.057000, -0.086000
  1.059000, -0.079500
  1.061000, -0.073100
  1.063000, -0.066800
  1.065000, -0.060600
  1.067000, -0.054600
  1.069000, -0.048700
  1.071000, -0.042900
  1.073000, -0.037200
  1.075000, -0.031600
  1.077000, -0.026200
  1.079000, -0.020900
  1.081000, -0.015700
  1.083000, -0.010800
  1.085000, -0.006100
  1.087000, -0.001400
  1.089000,  0.003100
  1.091000,  0.007500
  1.093000,  0.011700
  1.095000,  0.015800
  1.097000,  0.019700
  1.099000,  0.023500
  1.101000,  0.027200
  1.103000,  0.030800
  1.105000,  0.034200
  1.107000,  0.037400
  1.109000,  0.040500
  1.111000,  0.043300
  1.113000,  0.046000
  1.115000,  0.048600
  1.117000,  0.051000
  1.119000,  0.053300
  1.121000,  0.055300
  1.123000,  0.057200
  1.125000,  0.059000
  1.127000,  0.060600
  1.129000,  0.062000
  1.131000,  0.063200
  1.133000,  0.064300
  1.135000,  0.065200
  1.137000,  0.065900
  1.139000,  0.066300
  1.141000,  0.066600
  1.143000,  0.066800
  1.145000,  0.066800
  1.147000,  0.066600
  1.149000,  0.066200
  1.151000,  0.065600
  1.153000,  0.064800
  1.155000,  0.063900
  1.157000,  0.062700
  1.159000,  0.061400
  1.161000,  0.059900
  1.163000,  0.058300
  1.165000,  0.056600
  1.167000,  0.054800
  1.169000,  0.052800
  1.171000,  0.050800
  1.173000,  0.048700
  1.175000,  0.046500
  1.177000,  0.044200
  1.179000,  0.041900
  1.181000,  0.039500
  1.183000,  0.037100
  1.185000,  0.034700
  1.187000,  0.032200
  1.189000,  0.029800
  1.191000,  0.027400
  1.193000,  0.024900
  1.195000,  0.022500
  1.197000,  0.020100
  1.199000,  0.017800
  1.201000,  0.015600
  1.203000,  0.013600
  1.205000,  0.011700
  1.207000,  0.009700
  1.209000,  0.007900
  1.211000,  0.006200
  1.213000,  0.004700
  1.215000,  0.003400
  1.217000,  0.002200
  1.219000,  0.001000
  1.221000,  0.000000
  1.223000, -0.000800
  1.225000, -0.001500
  1.227000, -0.002000
  1.229000, -0.002400
  1.231000, -0.002700
  1.233000, -0.002800
  1.235000, -0.002900
  1.237000, -0.002700
  1.239000, -0.002400
  1.241000, -0.002100
  1.243000, -0.001700
  1.245000, -0.001100
  1.247000, -0.000600
  1.249000,  0.000100
  1.251000,  0.000800
  1.253000,  0.001500
  1.255000,  0.002400
  1.257000,  0.003200
  1.259000,  0.004100
  1.261000,  0.004900
  1.263000,  0.005700
  1.265000,  0.006500
  1.267000,  0.007200
  1.269000,  0.007800
  1.271000,  0.008400
  1.273000,  0.008900
  1.275000,  0.009300
  1.277000,  0.009600
  1.279000,  0.009900
  1.281000,  0.010000
  1.283000,  0.009900
  1.285000,  0.009700
  1.287000,  0.009400
  1.289000,  0.009000
  1.291000,  0.008400
  1.293000,  0.007700
  1.295000,  0.007000
  1.297000,  0.006300
  1.299000,  0.005400
  1.301000,  0.004500
  1.303000,  0.003400
  1.305000,  0.002200
  1.307000,  0.001000
  1.309000, -0.000300
  1.311000, -0.001600
  1.313000, -0.003000
  1.315000, -0.004300
  1.317000, -0.005700
  1.319000, -0.007100
  1.321000, -0.008500
  1.323000, -0.009800
  1.325000, -0.011100
  1.327000, -0.012300
  1.329000, -0.013400
  1.331000, -0.014400
  1.333000, -0.015300
  1.335000, -0.016100
  1.337000, -0.016800
  1.339000, -0.017300
  1.341000, -0.017800
  1.343000, -0.018000
  1.345000, -0.018000
  1.347000, -0.018000
  1.349000, -0.017700
  1.351000, -0.017200
  1.353000, -0.016500
  1.355000, -0.015700
  1.357000, -0.014600
  1.359000, -0.013500
  1.361000, -0.012400
  1.363000, -0.011000
  1.365000, -0.009400
  1.367000, -0.007700
  1.369000, -0.005900
  1.371000, -0.004000
  1.373000, -0.002000
  1.375000,  0.000100
  1.377000,  0.002200
  1.379000,  0.004300
  1.381000,  0.006600
  1.383000,  0.008600
  1.385000,  0.010300
  1.387000,  0.011900
  1.389000,  0.013700
  1.391000,  0.015400
  1.393000,  0.016500
  1.395000,  0.017300
  1.397000,  0.017700
  1.399000,  0.017800
