# z (nm)   (kJ/mol)
  0.289000, 17.255200
  0.291000, 17.130900
  0.293000, 16.978900
  0.297000, 16.664100
  0.299000, 16.529100
  0.301000, 16.399300
  0.303000, 16.263100
  0.305000, 16.126300
  0.307000, 15.989700
  0.309000, 15.857400
  0.311000, 15.721800
  0.313000, 15.581400
  0.315000, 15.439900
  0.317000, 15.298000
  0.319000, 15.158800
  0.321000, 15.020100
  0.323000, 14.878000
  0.325000, 14.734500
  0.327000, 14.591300
  0.329000, 14.447500
  0.331000, 14.306500
  0.333000, 14.166800
  0.335000, 14.025300
  0.337000, 13.881700
  0.339000, 13.738400
  0.341000, 13.595700
  0.343000, 13.454000
  0.345000, 13.311300
  0.347000, 13.165600
  0.349000, 13.019600
  0.351000, 12.876800
  0.353000, 12.736600
  0.355000, 12.596800
  0.357000, 12.454600
  0.359000, 12.311000
  0.361000, 12.169600
  0.363000, 12.028900
  0.365000, 11.889200
  0.367000, 11.749700
  0.369000, 11.607300
  0.371000, 11.465900
  0.373000, 11.326600
  0.375000, 11.186100
  0.377000, 11.047600
  0.379000, 10.912400
  0.381000, 10.776800
  0.383000, 10.640500
  0.385000, 10.502600
  0.387000, 10.366600
  0.389000, 10.234300
  0.391000, 10.104700
  0.393000,  9.978300
  0.395000,  9.850900
  0.397000,  9.722400
  0.399000,  9.596100
  0.401000,  9.473600
  0.403000,  9.352500
  0.405000,  9.232200
  0.407000,  9.114500
  0.409000,  8.998700
  0.411000,  8.884400
  0.413000,  8.772800
  0.415000,  8.664700
  0.417000,  8.559300
  0.419000,  8.456100
  0.421000,  8.354400
  0.423000,  8.255800
  0.425000,  8.161800
  0.427000,  8.069200
  0.429000,  7.979300
  0.431000,  7.892600
  0.433000,  7.807000
  0.435000,  7.724300
  0.437000,  7.645000
  0.439000,  7.567900
  0.441000,  7.493400
  0.443000,  7.421500
  0.445000,  7.352100
  0.447000,  7.285400
  0.449000,  7.220800
  0.451000,  7.158200
  0.453000,  7.097500
  0.455000,  7.038900
  0.457000,  6.982000
  0.459000,  6.926400
  0.461000,  6.872000
  0.463000,  6.818400
  0.465000,  6.764700
  0.467000,  6.711500
  0.469000,  6.658900
  0.471000,  6.606000
  0.473000,  6.552700
  0.475000,  6.498600
  0.477000,  6.443600
  0.479000,  6.387500
  0.481000,  6.329200
  0.483000,  6.268900
  0.485000,  6.207000
  0.487000,  6.143200
  0.489000,  6.076500
  0.491000,  6.006600
  0.493000,  5.933700
  0.495000,  5.856700
  0.497000,  5.775500
  0.499000,  5.691200
  0.501000,  5.603000
  0.503000,  5.510400
  0.505000,  5.413200
  0.507000,  5.311000
  0.509000,  5.204500
  0.511000,  5.093500
  0.513000,  4.977900
  0.515000,  4.857200
  0.517000,  4.730800
  0.519000,  4.600900
  0.521000,  4.467700
  0.523000,  4.331000
  0.525000,  4.190900
  0.527000,  4.046600
  0.529000,  3.897100
  0.531000,  3.743400
  0.533000,  3.586700
  0.535000,  3.426200
  0.537000,  3.263100
  0.539000,  3.097700
  0.541000,  2.929800
  0.543000,  2.760200
  0.545000,  2.589800
  0.547000,  2.419500
  0.549000,  2.248800
  0.551000,  2.078900
  0.553000,  1.910800
  0.555000,  1.744100
  0.557000,  1.578800
  0.559000,  1.415000
  0.561000,  1.253100
  0.563000,  1.093000
  0.565000,  0.934900
  0.567000,  0.780600
  0.569000,  0.630300
  0.571000,  0.483100
  0.573000,  0.339600
  0.575000,  0.199400
  0.577000,  0.063100
  0.579000, -0.067800
  0.581000, -0.193500
  0.583000, -0.315000
  0.585000, -0.431900
  0.587000, -0.543400
  0.589000, -0.649300
  0.591000, -0.749500
  0.593000, -0.844500
  0.595000, -0.934700
  0.597000, -1.019600
  0.599000, -1.099200
  0.601000, -1.173700
  0.603000, -1.243300
  0.605000, -1.308000
  0.607000, -1.367800
  0.609000, -1.422900
  0.611000, -1.473300
  0.613000, -1.519300
  0.615000, -1.561100
  0.617000, -1.598900
  0.619000, -1.633000
  0.621000, -1.663500
  0.623000, -1.690600
  0.625000, -1.714500
  0.627000, -1.735100
  0.629000, -1.753300
  0.631000, -1.769000
  0.633000, -1.782000
  0.635000, -1.793200
  0.637000, -1.802500
  0.639000, -1.810400
  0.641000, -1.816900
  0.643000, -1.822200
  0.645000, -1.826800
  0.647000, -1.830600
  0.649000, -1.833200
  0.651000, -1.835200
  0.653000, -1.837100
  0.655000, -1.838800
  0.657000, -1.840400
  0.659000, -1.842100
  0.661000, -1.843700
  0.663000, -1.845300
  0.665000, -1.847100
  0.667000, -1.849200
  0.669000, -1.851600
  0.671000, -1.854300
  0.673000, -1.857300
  0.675000, -1.860800
  0.677000, -1.864700
  0.679000, -1.869000
  0.681000, -1.873500
  0.683000, -1.878200
  0.685000, -1.882900
  0.687000, -1.887800
  0.689000, -1.892700
  0.691000, -1.897600
  0.693000, -1.902400
  0.695000, -1.907000
  0.697000, -1.911400
  0.699000, -1.915500
  0.701000, -1.919200
  0.703000, -1.922500
  0.705000, -1.925200
  0.707000, -1.927300
  0.709000, -1.928600
  0.711000, -1.929300
  0.713000, -1.929100
  0.715000, -1.928000
  0.717000, -1.926000
  0.719000, -1.923000
  0.721000, -1.918900
  0.723000, -1.913800
  0.725000, -1.907500
  0.727000, -1.900000
  0.729000, -1.891300
  0.731000, -1.881400
  0.733000, -1.870300
  0.735000, -1.858000
  0.737000, -1.844400
  0.739000, -1.829600
  0.741000, -1.813600
  0.743000, -1.796400
  0.745000, -1.777900
  0.747000, -1.758100
  0.749000, -1.737300
  0.751000, -1.715400
  0.753000, -1.692500
  0.755000, -1.668500
  0.757000, -1.643300
  0.759000, -1.617000
  0.761000, -1.590000
  0.763000, -1.562100
  0.765000, -1.533300
  0.767000, -1.503700
  0.769000, -1.473400
  0.771000, -1.442200
  0.773000, -1.410300
  0.775000, -1.378200
  0.777000, -1.345400
  0.779000, -1.312100
  0.781000, -1.278500
  0.783000, -1.244200
  0.785000, -1.209600
  0.787000, -1.174700
  0.789000, -1.139600
  0.791000, -1.104400
  0.793000, -1.069000
  0.795000, -1.033700
  0.797000, -0.998300
  0.799000, -0.962600
  0.801000, -0.927000
  0.803000, -0.891800
  0.805000, -0.856800
  0.807000, -0.821800
  0.809000, -0.787000
  0.811000, -0.752400
  0.813000, -0.718300
  0.815000, -0.684900
  0.817000, -0.651700
  0.819000, -0.619000
  0.821000, -0.586700
  0.823000, -0.554900
  0.825000, -0.523600
  0.827000, -0.492800
  0.829000, -0.462700
  0.831000, -0.433300
  0.833000, -0.404400
  0.835000, -0.376500
  0.837000, -0.349300
  0.839000, -0.322800
  0.841000, -0.297000
  0.843000, -0.271900
  0.845000, -0.247700
  0.847000, -0.224600
  0.849000, -0.202100
  0.851000, -0.180400
  0.853000, -0.159500
  0.855000, -0.139600
  0.857000, -0.120500
  0.859000, -0.102100
  0.861000, -0.084700
  0.863000, -0.068100
  0.865000, -0.052300
  0.867000, -0.037400
  0.869000, -0.023400
  0.871000, -0.010300
  0.873000,  0.002100
  0.875000,  0.013500
  0.877000,  0.024100
  0.879000,  0.033800
  0.881000,  0.042700
  0.883000,  0.050900
  0.885000,  0.058400
  0.887000,  0.065000
  0.889000,  0.070800
  0.891000,  0.075900
  0.893000,  0.080300
  0.895000,  0.084000
  0.897000,  0.086900
  0.899000,  0.089200
  0.901000,  0.090800
  0.903000,  0.091700
  0.905000,  0.091900
  0.907000,  0.091500
  0.909000,  0.090400
  0.911000,  0.088700
  0.913000,  0.086600
  0.915000,  0.083900
  0.917000,  0.080600
  0.919000,  0.076800
  0.921000,  0.072500
  0.923000,  0.067600
  0.925000,  0.062200
  0.927000,  0.056600
  0.929000,  0.050400
  0.931000,  0.043900
  0.933000,  0.037000
  0.935000,  0.029600
  0.937000,  0.021800
  0.939000,  0.013700
  0.941000,  0.005300
  0.943000, -0.003500
  0.945000, -0.012600
  0.947000, -0.021800
  0.949000, -0.031100
  0.951000, -0.040700
  0.953000, -0.050500
  0.955000, -0.060500
  0.957000, -0.070600
  0.959000, -0.080900
  0.961000, -0.091400
  0.963000, -0.101900
  0.965000, -0.112300
  0.967000, -0.122800
  0.969000, -0.133400
  0.971000, -0.144000
  0.973000, -0.154500
  0.975000, -0.165000
  0.977000, -0.175400
  0.979000, -0.185800
  0.981000, -0.196000
  0.983000, -0.206200
  0.985000, -0.216300
  0.987000, -0.226200
  0.989000, -0.236000
  0.991000, -0.245400
  0.993000, -0.254600
  0.995000, -0.263700
  0.997000, -0.272600
  0.999000, -0.281300
  1.001000, -0.289700
  1.003000, -0.297900
  1.005000, -0.305700
  1.007000, -0.313400
  1.009000, -0.320700
  1.011000, -0.327800
  1.013000, -0.334500
  1.015000, -0.340800
  1.017000, -0.346900
  1.019000, -0.352700
  1.021000, -0.358200
  1.023000, -0.363300
  1.025000, -0.368100
  1.027000, -0.372600
  1.029000, -0.376900
  1.031000, -0.380700
  1.033000, -0.384200
  1.035000, -0.387300
  1.037000, -0.390100
  1.039000, -0.392500
  1.041000, -0.394700
  1.043000, -0.396500
  1.045000, -0.398000
  1.047000, -0.399100
  1.049000, -0.399800
  1.051000, -0.400300
  1.053000, -0.400500
  1.055000, -0.400300
  1.057000, -0.399800
  1.059000, -0.399000
  1.061000, -0.397800
  1.063000, -0.396300
  1.065000, -0.394600
  1.067000, -0.392500
  1.069000, -0.390000
  1.071000, -0.387200
  1.073000, -0.384200
  1.075000, -0.380800
  1.077000, -0.377200
  1.079000, -0.373200
  1.081000, -0.369000
  1.083000, -0.364500
  1.085000, -0.359700
  1.087000, -0.354600
  1.089000, -0.349200
  1.091000, -0.343600
  1.093000, -0.337700
  1.095000, -0.331400
  1.097000, -0.325000
  1.099000, -0.318500
  1.101000, -0.311600
  1.103000, -0.304500
  1.105000, -0.297400
  1.107000, -0.290100
  1.109000, -0.282400
  1.111000, -0.274500
  1.113000, -0.266500
  1.115000, -0.258300
  1.117000, -0.250000
  1.119000, -0.241700
  1.121000, -0.233400
  1.123000, -0.224900
  1.125000, -0.216300
  1.127000, -0.207600
  1.129000, -0.198900
  1.131000, -0.190200
  1.133000, -0.181500
  1.135000, -0.172800
  1.137000, -0.164100
  1.139000, -0.155600
  1.141000, -0.147200
  1.143000, -0.138700
  1.145000, -0.130400
  1.147000, -0.122200
  1.149000, -0.114100
  1.151000, -0.106300
  1.153000, -0.098600
  1.155000, -0.090900
  1.157000, -0.083500
  1.159000, -0.076300
  1.161000, -0.069300
  1.163000, -0.062400
  1.165000, -0.055800
  1.167000, -0.049500
  1.169000, -0.043500
  1.171000, -0.037600
  1.173000, -0.031900
  1.175000, -0.026500
  1.177000, -0.021400
  1.179000, -0.016500
  1.181000, -0.011800
  1.183000, -0.007500
  1.185000, -0.003600
  1.187000,  0.000200
  1.189000,  0.003700
  1.191000,  0.007000
  1.193000,  0.010100
  1.195000,  0.013000
  1.197000,  0.015600
  1.199000,  0.018100
  1.201000,  0.020400
  1.203000,  0.022400
  1.205000,  0.024200
  1.207000,  0.025800
  1.209000,  0.027300
  1.211000,  0.028500
  1.213000,  0.029500
  1.215000,  0.030400
  1.217000,  0.031100
  1.219000,  0.031800
  1.221000,  0.032300
  1.223000,  0.032700
  1.225000,  0.032800
  1.227000,  0.032900
  1.229000,  0.032900
  1.231000,  0.032900
  1.233000,  0.032800
  1.235000,  0.032500
  1.237000,  0.032100
  1.239000,  0.031600
  1.241000,  0.031000
  1.243000,  0.030300
  1.245000,  0.029500
  1.247000,  0.028700
  1.249000,  0.027900
  1.251000,  0.027000
  1.253000,  0.025900
  1.255000,  0.024800
  1.257000,  0.023700
  1.259000,  0.022600
  1.261000,  0.021400
  1.263000,  0.020000
  1.265000,  0.018700
  1.267000,  0.017300
  1.269000,  0.015900
  1.271000,  0.014400
  1.273000,  0.012700
  1.275000,  0.011100
  1.277000,  0.009300
  1.279000,  0.007600
  1.281000,  0.005900
  1.283000,  0.004100
  1.285000,  0.002100
  1.287000,  0.000000
  1.289000, -0.002100
  1.291000, -0.004100
  1.293000, -0.006200
  1.295000, -0.008300
  1.297000, -0.010300
  1.299000, -0.012500
  1.301000, -0.014600
  1.303000, -0.016700
  1.305000, -0.018600
  1.307000, -0.020600
  1.309000, -0.022800
  1.311000, -0.024900
  1.313000, -0.026700
  1.315000, -0.028400
  1.317000, -0.030100
  1.319000, -0.031800
  1.321000, -0.033400
  1.323000, -0.034800
  1.325000, -0.036100
  1.327000, -0.037300
  1.329000, -0.038400
  1.331000, -0.039200
  1.333000, -0.039800
  1.335000, -0.040300
  1.337000, -0.040500
  1.339000, -0.040600
  1.341000, -0.040400
  1.343000, -0.040100
  1.345000, -0.039600
  1.347000, -0.038800
  1.349000, -0.037800
  1.351000, -0.036700
  1.353000, -0.035300
  1.355000, -0.033700
  1.357000, -0.031900
  1.359000, -0.029800
  1.361000, -0.027500
  1.363000, -0.025000
  1.365000, -0.022500
  1.367000, -0.019900
  1.369000, -0.017100
  1.371000, -0.014200
  1.373000, -0.011200
  1.375000, -0.008100
  1.377000, -0.004800
  1.379000, -0.001500
  1.381000,  0.001900
  1.383000,  0.005200
  1.385000,  0.008400
  1.387000,  0.011500
  1.389000,  0.014500
  1.391000,  0.017200
  1.393000,  0.019500
  1.395000,  0.021800
  1.397000,  0.023900
  1.399000,  0.025600
