# z (nm)   (kJ/mol)
  0.311000, 11.977200
  0.313000, 11.673700
  0.315000, 11.358000
  0.317000, 11.033700
  0.319000, 10.678800
  0.321000, 10.319000
  0.323000,  9.973000
  0.325000,  9.635300
  0.327000,  9.301000
  0.329000,  8.962500
  0.331000,  8.620100
  0.333000,  8.277500
  0.335000,  7.930200
  0.337000,  7.577400
  0.339000,  7.223800
  0.341000,  6.866700
  0.343000,  6.506200
  0.345000,  6.143600
  0.347000,  5.777800
  0.349000,  5.411300
  0.351000,  5.044600
  0.353000,  4.677600
  0.355000,  4.312800
  0.357000,  3.955000
  0.359000,  3.604400
  0.361000,  3.261300
  0.363000,  2.929400
  0.365000,  2.608100
  0.367000,  2.298600
  0.369000,  2.001300
  0.371000,  1.717300
  0.373000,  1.446700
  0.375000,  1.188800
  0.377000,  0.943000
  0.379000,  0.707600
  0.381000,  0.483300
  0.383000,  0.267500
  0.385000,  0.059000
  0.387000, -0.141100
  0.389000, -0.332300
  0.391000, -0.514600
  0.393000, -0.690900
  0.395000, -0.862400
  0.397000, -1.024700
  0.399000, -1.175800
  0.401000, -1.317500
  0.403000, -1.448400
  0.405000, -1.567400
  0.407000, -1.675100
  0.409000, -1.772800
  0.411000, -1.858300
  0.413000, -1.930400
  0.415000, -1.992600
  0.417000, -2.045100
  0.419000, -2.087700
  0.421000, -2.119300
  0.423000, -2.139400
  0.425000, -2.148300
  0.427000, -2.147400
  0.429000, -2.135200
  0.431000, -2.111900
  0.433000, -2.078100
  0.435000, -2.035800
  0.437000, -1.985800
  0.439000, -1.925500
  0.441000, -1.858000
  0.443000, -1.783800
  0.445000, -1.699500
  0.447000, -1.611400
  0.449000, -1.518200
  0.451000, -1.416300
  0.453000, -1.311900
  0.455000, -1.204200
  0.457000, -1.093800
  0.459000, -0.979400
  0.461000, -0.861900
  0.463000, -0.743500
  0.465000, -0.623300
  0.467000, -0.501900
  0.469000, -0.380600
  0.471000, -0.259400
  0.473000, -0.139300
  0.475000, -0.023000
  0.477000,  0.091700
  0.479000,  0.204900
  0.481000,  0.314700
  0.483000,  0.421300
  0.485000,  0.525700
  0.487000,  0.625900
  0.489000,  0.721500
  0.491000,  0.812700
  0.493000,  0.899400
  0.495000,  0.982000
  0.497000,  1.058900
  0.499000,  1.130100
  0.501000,  1.195600
  0.503000,  1.255300
  0.505000,  1.308900
  0.507000,  1.355900
  0.509000,  1.396600
  0.511000,  1.431100
  0.513000,  1.459600
  0.515000,  1.481500
  0.517000,  1.496700
  0.519000,  1.506100
  0.521000,  1.509300
  0.523000,  1.506100
  0.525000,  1.496600
  0.527000,  1.481200
  0.529000,  1.460200
  0.531000,  1.433300
  0.533000,  1.400500
  0.535000,  1.362300
  0.537000,  1.318500
  0.539000,  1.270000
  0.541000,  1.216100
  0.543000,  1.157600
  0.545000,  1.094900
  0.547000,  1.027800
  0.549000,  0.956500
  0.551000,  0.881300
  0.553000,  0.802900
  0.555000,  0.720400
  0.557000,  0.634600
  0.559000,  0.546500
  0.561000,  0.455700
  0.563000,  0.363100
  0.565000,  0.268000
  0.567000,  0.170100
  0.569000,  0.071000
  0.571000, -0.029100
  0.573000, -0.130300
  0.575000, -0.233100
  0.577000, -0.335400
  0.579000, -0.436800
  0.581000, -0.538800
  0.583000, -0.640700
  0.585000, -0.741700
  0.587000, -0.842300
  0.589000, -0.941000
  0.591000, -1.037600
  0.593000, -1.133800
  0.595000, -1.228600
  0.597000, -1.320800
  0.599000, -1.410300
  0.601000, -1.497300
  0.603000, -1.581000
  0.605000, -1.661400
  0.607000, -1.739300
  0.609000, -1.814200
  0.611000, -1.886000
  0.613000, -1.954300
  0.615000, -2.019000
  0.617000, -2.079800
  0.619000, -2.136800
  0.621000, -2.190700
  0.623000, -2.241600
  0.625000, -2.288800
  0.627000, -2.332100
  0.629000, -2.371500
  0.631000, -2.407000
  0.633000, -2.438800
  0.635000, -2.466700
  0.637000, -2.491000
  0.639000, -2.511800
  0.641000, -2.528900
  0.643000, -2.542600
  0.645000, -2.552900
  0.647000, -2.560200
  0.649000, -2.564400
  0.651000, -2.565500
  0.653000, -2.563600
  0.655000, -2.558700
  0.657000, -2.551100
  0.659000, -2.541100
  0.661000, -2.528800
  0.663000, -2.514600
  0.665000, -2.498200
  0.667000, -2.479900
  0.669000, -2.459900
  0.671000, -2.438400
  0.673000, -2.415200
  0.675000, -2.390200
  0.677000, -2.364400
  0.679000, -2.337800
  0.681000, -2.309800
  0.683000, -2.281000
  0.685000, -2.252200
  0.687000, -2.223100
  0.689000, -2.193900
  0.691000, -2.164600
  0.693000, -2.135200
  0.695000, -2.105900
  0.697000, -2.076400
  0.699000, -2.047400
  0.701000, -2.018900
  0.703000, -1.990500
  0.705000, -1.962700
  0.707000, -1.935800
  0.709000, -1.909600
  0.711000, -1.884500
  0.713000, -1.860300
  0.715000, -1.836800
  0.717000, -1.814400
  0.719000, -1.793100
  0.721000, -1.772700
  0.723000, -1.753200
  0.725000, -1.734700
  0.727000, -1.717100
  0.729000, -1.700400
  0.731000, -1.684400
  0.733000, -1.669700
  0.735000, -1.655700
  0.737000, -1.642500
  0.739000, -1.630400
  0.741000, -1.618700
  0.743000, -1.607600
  0.745000, -1.597200
  0.747000, -1.587600
  0.749000, -1.578500
  0.751000, -1.569500
  0.753000, -1.560900
  0.755000, -1.552700
  0.757000, -1.544800
  0.759000, -1.537200
  0.761000, -1.529800
  0.763000, -1.522300
  0.765000, -1.514900
  0.767000, -1.507400
  0.769000, -1.499700
  0.771000, -1.491900
  0.773000, -1.483800
  0.775000, -1.475400
  0.777000, -1.466700
  0.779000, -1.457500
  0.781000, -1.448000
  0.783000, -1.438000
  0.785000, -1.427600
  0.787000, -1.416600
  0.789000, -1.405100
  0.791000, -1.393000
  0.793000, -1.380400
  0.795000, -1.367200
  0.797000, -1.353500
  0.799000, -1.339100
  0.801000, -1.324000
  0.803000, -1.308500
  0.805000, -1.292600
  0.807000, -1.276000
  0.809000, -1.258600
  0.811000, -1.240600
  0.813000, -1.222300
  0.815000, -1.203400
  0.817000, -1.184000
  0.819000, -1.164200
  0.821000, -1.143900
  0.823000, -1.123200
  0.825000, -1.102400
  0.827000, -1.081300
  0.829000, -1.059900
  0.831000, -1.038400
  0.833000, -1.016400
  0.835000, -0.994400
  0.837000, -0.972400
  0.839000, -0.950400
  0.841000, -0.928400
  0.843000, -0.906400
  0.845000, -0.884500
  0.847000, -0.862900
  0.849000, -0.841500
  0.851000, -0.820000
  0.853000, -0.798600
  0.855000, -0.777400
  0.857000, -0.756700
  0.859000, -0.736200
  0.861000, -0.716000
  0.863000, -0.696300
  0.865000, -0.677000
  0.867000, -0.658100
  0.869000, -0.639600
  0.871000, -0.621500
  0.873000, -0.604000
  0.875000, -0.587100
  0.877000, -0.570900
  0.879000, -0.555300
  0.881000, -0.540200
  0.883000, -0.525600
  0.885000, -0.511600
  0.887000, -0.498300
  0.889000, -0.485600
  0.891000, -0.473400
  0.893000, -0.461700
  0.895000, -0.450600
  0.897000, -0.440100
  0.899000, -0.430100
  0.901000, -0.420500
  0.903000, -0.411400
  0.905000, -0.402900
  0.907000, -0.394800
  0.909000, -0.387300
  0.911000, -0.380200
  0.913000, -0.373500
  0.915000, -0.367200
  0.917000, -0.361200
  0.919000, -0.355800
  0.921000, -0.350600
  0.923000, -0.345700
  0.925000, -0.341100
  0.927000, -0.336800
  0.929000, -0.332800
  0.931000, -0.329000
  0.933000, -0.325400
  0.935000, -0.322100
  0.937000, -0.318900
  0.939000, -0.315900
  0.941000, -0.313100
  0.943000, -0.310500
  0.945000, -0.308000
  0.947000, -0.305700
  0.949000, -0.303400
  0.951000, -0.301300
  0.953000, -0.299300
  0.955000, -0.297500
  0.957000, -0.295700
  0.959000, -0.294100
  0.961000, -0.292500
  0.963000, -0.291100
  0.965000, -0.289700
  0.967000, -0.288500
  0.969000, -0.287400
  0.971000, -0.286300
  0.973000, -0.285400
  0.975000, -0.284400
  0.977000, -0.283500
  0.979000, -0.282900
  0.981000, -0.282300
  0.983000, -0.281800
  0.985000, -0.281400
  0.987000, -0.281000
  0.989000, -0.280800
  0.991000, -0.280800
  0.993000, -0.280800
  0.995000, -0.281000
  0.997000, -0.281400
  0.999000, -0.281800
  1.001000, -0.282300
  1.003000, -0.282900
  1.005000, -0.283600
  1.007000, -0.284400
  1.009000, -0.285300
  1.011000, -0.286400
  1.013000, -0.287500
  1.015000, -0.288600
  1.017000, -0.289800
  1.019000, -0.291200
  1.021000, -0.292600
  1.023000, -0.294000
  1.025000, -0.295500
  1.027000, -0.297000
  1.029000, -0.298600
  1.031000, -0.300100
  1.033000, -0.301600
  1.035000, -0.303100
  1.037000, -0.304600
  1.039000, -0.305900
  1.041000, -0.307300
  1.043000, -0.308500
  1.045000, -0.309700
  1.047000, -0.310800
  1.049000, -0.311800
  1.051000, -0.312700
  1.053000, -0.313500
  1.055000, -0.314100
  1.057000, -0.314500
  1.059000, -0.314800
  1.061000, -0.315000
  1.063000, -0.315000
  1.065000, -0.314800
  1.067000, -0.314300
  1.069000, -0.313700
  1.071000, -0.312800
  1.073000, -0.311900
  1.075000, -0.310700
  1.077000, -0.309300
  1.079000, -0.307600
  1.081000, -0.305700
  1.083000, -0.303700
  1.085000, -0.301500
  1.087000, -0.299100
  1.089000, -0.296400
  1.091000, -0.293500
  1.093000, -0.290400
  1.095000, -0.287100
  1.097000, -0.283700
  1.099000, -0.280100
  1.101000, -0.276200
  1.103000, -0.272200
  1.105000, -0.268000
  1.107000, -0.263700
  1.109000, -0.259400
  1.111000, -0.254800
  1.113000, -0.250000
  1.115000, -0.245300
  1.117000, -0.240500
  1.119000, -0.235600
  1.121000, -0.230600
  1.123000, -0.225500
  1.125000, -0.220300
  1.127000, -0.215000
  1.129000, -0.209800
  1.131000, -0.204600
  1.133000, -0.199300
  1.135000, -0.194000
  1.137000, -0.188800
  1.139000, -0.183600
  1.141000, -0.178500
  1.143000, -0.173300
  1.145000, -0.168100
  1.147000, -0.162800
  1.149000, -0.157600
  1.151000, -0.152500
  1.153000, -0.147500
  1.155000, -0.142600
  1.157000, -0.137600
  1.159000, -0.132500
  1.161000, -0.127700
  1.163000, -0.123200
  1.165000, -0.118700
  1.167000, -0.114200
  1.169000, -0.109700
  1.171000, -0.105300
  1.173000, -0.101100
  1.175000, -0.097000
  1.177000, -0.092900
  1.179000, -0.088900
  1.181000, -0.085000
  1.183000, -0.081300
  1.185000, -0.077600
  1.187000, -0.073900
  1.189000, -0.070300
  1.191000, -0.066900
  1.193000, -0.063400
  1.195000, -0.060000
  1.197000, -0.056700
  1.199000, -0.053500
  1.201000, -0.050200
  1.203000, -0.047000
  1.205000, -0.044000
  1.207000, -0.040900
  1.209000, -0.037800
  1.211000, -0.034800
  1.213000, -0.032000
  1.215000, -0.029300
  1.217000, -0.026500
  1.219000, -0.023700
  1.221000, -0.020900
  1.223000, -0.018200
  1.225000, -0.015500
  1.227000, -0.012900
  1.229000, -0.010400
  1.231000, -0.007800
  1.233000, -0.005300
  1.235000, -0.003000
  1.237000, -0.000800
  1.239000,  0.001600
  1.241000,  0.003800
  1.243000,  0.005900
  1.245000,  0.008000
  1.247000,  0.010000
  1.249000,  0.012000
  1.251000,  0.013800
  1.253000,  0.015400
  1.255000,  0.016900
  1.257000,  0.018300
  1.259000,  0.019600
  1.261000,  0.020700
  1.263000,  0.021800
  1.265000,  0.022800
  1.267000,  0.023600
  1.269000,  0.024100
  1.271000,  0.024400
  1.273000,  0.024500
  1.275000,  0.024600
  1.277000,  0.024600
  1.279000,  0.024300
  1.281000,  0.023900
  1.283000,  0.023200
  1.285000,  0.022500
  1.287000,  0.021600
  1.289000,  0.020600
  1.291000,  0.019500
  1.293000,  0.018100
  1.295000,  0.016700
  1.297000,  0.015200
  1.299000,  0.013600
  1.301000,  0.011800
  1.303000,  0.009900
  1.305000,  0.008000
  1.307000,  0.006000
  1.309000,  0.004000
  1.311000,  0.001900
  1.313000, -0.000200
  1.315000, -0.002300
  1.317000, -0.004400
  1.319000, -0.006500
  1.321000, -0.008600
  1.323000, -0.010600
  1.325000, -0.012400
  1.327000, -0.014200
  1.329000, -0.015800
  1.331000, -0.017300
  1.333000, -0.018700
  1.335000, -0.020000
  1.337000, -0.021000
  1.339000, -0.021600
  1.341000, -0.022200
  1.343000, -0.022700
  1.345000, -0.022900
  1.347000, -0.022800
  1.349000, -0.022600
  1.351000, -0.022100
  1.353000, -0.021400
  1.355000, -0.020300
  1.357000, -0.018800
  1.359000, -0.017200
  1.361000, -0.015400
  1.363000, -0.013200
  1.365000, -0.010900
  1.367000, -0.008300
  1.369000, -0.005400
  1.371000, -0.002300
  1.373000,  0.000800
  1.375000,  0.004300
  1.377000,  0.007900
  1.379000,  0.011700
  1.381000,  0.015600
  1.383000,  0.019600
  1.385000,  0.023600
  1.387000,  0.027600
  1.389000,  0.031600
  1.391000,  0.035700
  1.393000,  0.039600
  1.395000,  0.043200
  1.397000,  0.046700
  1.399000,  0.049900
