# z (nm)   (kJ/mol)
  0.235000,  9.876500
  0.237000,  9.643900
  0.239000,  9.339200
  0.241000,  9.027000
  0.243000,  8.747400
  0.245000,  8.471800
  0.247000,  8.180700
  0.249000,  7.895100
  0.251000,  7.622700
  0.253000,  7.356500
  0.255000,  7.092800
  0.257000,  6.832400
  0.259000,  6.575700
  0.261000,  6.322200
  0.263000,  6.076200
  0.265000,  5.837400
  0.267000,  5.604100
  0.269000,  5.378100
  0.271000,  5.157500
  0.273000,  4.943300
  0.275000,  4.735000
  0.277000,  4.535300
  0.279000,  4.341800
  0.281000,  4.155100
  0.283000,  3.976800
  0.285000,  3.806500
  0.287000,  3.642800
  0.289000,  3.484700
  0.291000,  3.335300
  0.293000,  3.194500
  0.295000,  3.059300
  0.297000,  2.930400
  0.299000,  2.809400
  0.301000,  2.694100
  0.303000,  2.585300
  0.305000,  2.484500
  0.307000,  2.388700
  0.309000,  2.296800
  0.311000,  2.210800
  0.313000,  2.130500
  0.315000,  2.056000
  0.317000,  1.986100
  0.319000,  1.919900
  0.321000,  1.858000
  0.323000,  1.801600
  0.325000,  1.751600
  0.327000,  1.706900
  0.329000,  1.665400
  0.331000,  1.627400
  0.333000,  1.594400
  0.335000,  1.566100
  0.337000,  1.541800
  0.339000,  1.522100
  0.341000,  1.507200
  0.343000,  1.495900
  0.345000,  1.487800
  0.347000,  1.483400
  0.349000,  1.482600
  0.351000,  1.485400
  0.353000,  1.491600
  0.355000,  1.500200
  0.357000,  1.511700
  0.359000,  1.527200
  0.361000,  1.546500
  0.363000,  1.567800
  0.365000,  1.590700
  0.367000,  1.617100
  0.369000,  1.646400
  0.371000,  1.676900
  0.373000,  1.708800
  0.375000,  1.742200
  0.377000,  1.777200
  0.379000,  1.813900
  0.381000,  1.851600
  0.383000,  1.889700
  0.385000,  1.929500
  0.387000,  1.970000
  0.389000,  2.010400
  0.391000,  2.051200
  0.393000,  2.091700
  0.395000,  2.132300
  0.397000,  2.172300
  0.399000,  2.211000
  0.401000,  2.249000
  0.403000,  2.286200
  0.405000,  2.322200
  0.407000,  2.356800
  0.409000,  2.390100
  0.411000,  2.421600
  0.413000,  2.451100
  0.415000,  2.478600
  0.417000,  2.504000
  0.419000,  2.526800
  0.421000,  2.547000
  0.423000,  2.564600
  0.425000,  2.579500
  0.427000,  2.591900
  0.429000,  2.601300
  0.431000,  2.607800
  0.433000,  2.611200
  0.435000,  2.611500
  0.437000,  2.608600
  0.439000,  2.602400
  0.441000,  2.593100
  0.443000,  2.580600
  0.445000,  2.564800
  0.447000,  2.545800
  0.449000,  2.523400
  0.451000,  2.497900
  0.453000,  2.469400
  0.455000,  2.437500
  0.457000,  2.402400
  0.459000,  2.364500
  0.461000,  2.324000
  0.463000,  2.280400
  0.465000,  2.234000
  0.467000,  2.185200
  0.469000,  2.134000
  0.471000,  2.080300
  0.473000,  2.024400
  0.475000,  1.966600
  0.477000,  1.906500
  0.479000,  1.844800
  0.481000,  1.781100
  0.483000,  1.715400
  0.485000,  1.648600
  0.487000,  1.580900
  0.489000,  1.511300
  0.491000,  1.440500
  0.493000,  1.369000
  0.495000,  1.296500
  0.497000,  1.223500
  0.499000,  1.149800
  0.501000,  1.075700
  0.503000,  1.001300
  0.505000,  0.926800
  0.507000,  0.852400
  0.509000,  0.777800
  0.511000,  0.702800
  0.513000,  0.628500
  0.515000,  0.555400
  0.517000,  0.482500
  0.519000,  0.409500
  0.521000,  0.337600
  0.523000,  0.266600
  0.525000,  0.196300
  0.527000,  0.127200
  0.529000,  0.058800
  0.531000, -0.008400
  0.533000, -0.074000
  0.535000, -0.138000
  0.537000, -0.200500
  0.539000, -0.261700
  0.541000, -0.321500
  0.543000, -0.379800
  0.545000, -0.436400
  0.547000, -0.491000
  0.549000, -0.544000
  0.551000, -0.595300
  0.553000, -0.644500
  0.555000, -0.691900
  0.557000, -0.737400
  0.559000, -0.781200
  0.561000, -0.823000
  0.563000, -0.862800
  0.565000, -0.900600
  0.567000, -0.936500
  0.569000, -0.970400
  0.571000, -1.002400
  0.573000, -1.032400
  0.575000, -1.060200
  0.577000, -1.086100
  0.579000, -1.110100
  0.581000, -1.132300
  0.583000, -1.152600
  0.585000, -1.171000
  0.587000, -1.187700
  0.589000, -1.202300
  0.591000, -1.214900
  0.593000, -1.225800
  0.595000, -1.235200
  0.597000, -1.242900
  0.599000, -1.248700
  0.601000, -1.252900
  0.603000, -1.255500
  0.605000, -1.256700
  0.607000, -1.256300
  0.609000, -1.254500
  0.611000, -1.251100
  0.613000, -1.246400
  0.615000, -1.240300
  0.617000, -1.232800
  0.619000, -1.224000
  0.621000, -1.214100
  0.623000, -1.203000
  0.625000, -1.190600
  0.627000, -1.177100
  0.629000, -1.162500
  0.631000, -1.146800
  0.633000, -1.130300
  0.635000, -1.112700
  0.637000, -1.094300
  0.639000, -1.074900
  0.641000, -1.054600
  0.643000, -1.033300
  0.645000, -1.011400
  0.647000, -0.988800
  0.649000, -0.965400
  0.651000, -0.941200
  0.653000, -0.916500
  0.655000, -0.891200
  0.657000, -0.865300
  0.659000, -0.838900
  0.661000, -0.812000
  0.663000, -0.784500
  0.665000, -0.756600
  0.667000, -0.728300
  0.669000, -0.699600
  0.671000, -0.670600
  0.673000, -0.641400
  0.675000, -0.611800
  0.677000, -0.582100
  0.679000, -0.552300
  0.681000, -0.522200
  0.683000, -0.492100
  0.685000, -0.461900
  0.687000, -0.431600
  0.689000, -0.401300
  0.691000, -0.371000
  0.693000, -0.340900
  0.695000, -0.310800
  0.697000, -0.280900
  0.699000, -0.251300
  0.701000, -0.221900
  0.703000, -0.192700
  0.705000, -0.163900
  0.707000, -0.135300
  0.709000, -0.107100
  0.711000, -0.079300
  0.713000, -0.052100
  0.715000, -0.025300
  0.717000,  0.000900
  0.719000,  0.026600
  0.721000,  0.052000
  0.723000,  0.076700
  0.725000,  0.100800
  0.727000,  0.124200
  0.729000,  0.147000
  0.731000,  0.169200
  0.733000,  0.190600
  0.735000,  0.211100
  0.737000,  0.230800
  0.739000,  0.249600
  0.741000,  0.267600
  0.743000,  0.284800
  0.745000,  0.301000
  0.747000,  0.316400
  0.749000,  0.331000
  0.751000,  0.344500
  0.753000,  0.356900
  0.755000,  0.368500
  0.757000,  0.379000
  0.759000,  0.388500
  0.761000,  0.396900
  0.763000,  0.404300
  0.765000,  0.410700
  0.767000,  0.416100
  0.769000,  0.420500
  0.771000,  0.423900
  0.773000,  0.426200
  0.775000,  0.427500
  0.777000,  0.427800
  0.779000,  0.427100
  0.781000,  0.425400
  0.783000,  0.422700
  0.785000,  0.419100
  0.787000,  0.414600
  0.789000,  0.409200
  0.791000,  0.402900
  0.793000,  0.395900
  0.795000,  0.388100
  0.797000,  0.379500
  0.799000,  0.370000
  0.801000,  0.359800
  0.803000,  0.349100
  0.805000,  0.337800
  0.807000,  0.325600
  0.809000,  0.312900
  0.811000,  0.299700
  0.813000,  0.285800
  0.815000,  0.271600
  0.817000,  0.256900
  0.819000,  0.242000
  0.821000,  0.226700
  0.823000,  0.211100
  0.825000,  0.195400
  0.827000,  0.179400
  0.829000,  0.163400
  0.831000,  0.147400
  0.833000,  0.131200
  0.835000,  0.114900
  0.837000,  0.098700
  0.839000,  0.082700
  0.841000,  0.066800
  0.843000,  0.051000
  0.845000,  0.035300
  0.847000,  0.019800
  0.849000,  0.004500
  0.851000, -0.010500
  0.853000, -0.025400
  0.855000, -0.039700
  0.857000, -0.053500
  0.859000, -0.066900
  0.861000, -0.080300
  0.863000, -0.093400
  0.865000, -0.105900
  0.867000, -0.117900
  0.869000, -0.129400
  0.871000, -0.140500
  0.873000, -0.151000
  0.875000, -0.161100
  0.877000, -0.170700
  0.879000, -0.179800
  0.881000, -0.188300
  0.883000, -0.196300
  0.885000, -0.203700
  0.887000, -0.210700
  0.889000, -0.217100
  0.891000, -0.223200
  0.893000, -0.228800
  0.895000, -0.233900
  0.897000, -0.238400
  0.899000, -0.242600
  0.901000, -0.246200
  0.903000, -0.249400
  0.905000, -0.252200
  0.907000, -0.254600
  0.909000, -0.256500
  0.911000, -0.258000
  0.913000, -0.259200
  0.915000, -0.259900
  0.917000, -0.260300
  0.919000, -0.260300
  0.921000, -0.259900
  0.923000, -0.259300
  0.925000, -0.258300
  0.927000, -0.257100
  0.929000, -0.255600
  0.931000, -0.253800
  0.933000, -0.251800
  0.935000, -0.249600
  0.937000, -0.247100
  0.939000, -0.244400
  0.941000, -0.241500
  0.943000, -0.238400
  0.945000, -0.235100
  0.947000, -0.231700
  0.949000, -0.228100
  0.951000, -0.224300
  0.953000, -0.220500
  0.955000, -0.216500
  0.957000, -0.212500
  0.959000, -0.208300
  0.961000, -0.203900
  0.963000, -0.199500
  0.965000, -0.195100
  0.967000, -0.190600
  0.969000, -0.186000
  0.971000, -0.181300
  0.973000, -0.176500
  0.975000, -0.171800
  0.977000, -0.167200
  0.979000, -0.162500
  0.981000, -0.157700
  0.983000, -0.153000
  0.985000, -0.148300
  0.987000, -0.143500
  0.989000, -0.138800
  0.991000, -0.134000
  0.993000, -0.129200
  0.995000, -0.124500
  0.997000, -0.119800
  0.999000, -0.115200
  1.001000, -0.110600
  1.003000, -0.106100
  1.005000, -0.101700
  1.007000, -0.097300
  1.009000, -0.092900
  1.011000, -0.088700
  1.013000, -0.084600
  1.015000, -0.080500
  1.017000, -0.076500
  1.019000, -0.072700
  1.021000, -0.068900
  1.023000, -0.065200
  1.025000, -0.061700
  1.027000, -0.058300
  1.029000, -0.054900
  1.031000, -0.051500
  1.033000, -0.048300
  1.035000, -0.045100
  1.037000, -0.042000
  1.039000, -0.039100
  1.041000, -0.036200
  1.043000, -0.033500
  1.045000, -0.031000
  1.047000, -0.028500
  1.049000, -0.026200
  1.051000, -0.024000
  1.053000, -0.021900
  1.055000, -0.019900
  1.057000, -0.017900
  1.059000, -0.016000
  1.061000, -0.014200
  1.063000, -0.012500
  1.065000, -0.010900
  1.067000, -0.009300
  1.069000, -0.007700
  1.071000, -0.006200
  1.073000, -0.004700
  1.075000, -0.003400
  1.077000, -0.002100
  1.079000, -0.000800
  1.081000,  0.000500
  1.083000,  0.001700
  1.085000,  0.002800
  1.087000,  0.003900
  1.089000,  0.004900
  1.091000,  0.005900
  1.093000,  0.006900
  1.095000,  0.007900
  1.097000,  0.008800
  1.099000,  0.009700
  1.101000,  0.010500
  1.103000,  0.011300
  1.105000,  0.012000
  1.107000,  0.012700
  1.109000,  0.013400
  1.111000,  0.014000
  1.113000,  0.014600
  1.115000,  0.015200
  1.117000,  0.015800
  1.119000,  0.016300
  1.121000,  0.016800
  1.123000,  0.017200
  1.125000,  0.017400
  1.127000,  0.017600
  1.129000,  0.017800
  1.131000,  0.017900
  1.133000,  0.017900
  1.135000,  0.017800
  1.137000,  0.017700
  1.139000,  0.017500
  1.141000,  0.017200
  1.143000,  0.016800
  1.145000,  0.016300
  1.147000,  0.015700
  1.149000,  0.015000
  1.151000,  0.014200
  1.153000,  0.013200
  1.155000,  0.012100
  1.157000,  0.010900
  1.159000,  0.009700
  1.161000,  0.008400
  1.163000,  0.007000
  1.165000,  0.005500
  1.167000,  0.004000
  1.169000,  0.002400
  1.171000,  0.000700
  1.173000, -0.001100
  1.175000, -0.003000
  1.177000, -0.004900
  1.179000, -0.006800
  1.181000, -0.008900
  1.183000, -0.011000
  1.185000, -0.013000
  1.187000, -0.015100
  1.189000, -0.017200
  1.191000, -0.019200
  1.193000, -0.021300
  1.195000, -0.023500
  1.197000, -0.025500
  1.199000, -0.027400
  1.201000, -0.029200
  1.203000, -0.031100
  1.205000, -0.032800
  1.207000, -0.034400
  1.209000, -0.036000
  1.211000, -0.037400
  1.213000, -0.038700
  1.215000, -0.040000
  1.217000, -0.041100
  1.219000, -0.042200
  1.221000, -0.043000
  1.223000, -0.043700
  1.225000, -0.044400
  1.227000, -0.044900
  1.229000, -0.045200
  1.231000, -0.045600
  1.233000, -0.045700
  1.235000, -0.045700
  1.237000, -0.045600
  1.239000, -0.045300
  1.241000, -0.044900
  1.243000, -0.044400
  1.245000, -0.043800
  1.247000, -0.043200
  1.249000, -0.042500
  1.251000, -0.041700
  1.253000, -0.040800
  1.255000, -0.039800
  1.257000, -0.038700
  1.259000, -0.037600
  1.261000, -0.036500
  1.263000, -0.035300
  1.265000, -0.034100
  1.267000, -0.032900
  1.269000, -0.031600
  1.271000, -0.030300
  1.273000, -0.028900
  1.275000, -0.027600
  1.277000, -0.026200
  1.279000, -0.024900
  1.281000, -0.023600
  1.283000, -0.022300
  1.285000, -0.021100
  1.287000, -0.019900
  1.289000, -0.018600
  1.291000, -0.017400
  1.293000, -0.016200
  1.295000, -0.015100
  1.297000, -0.014000
  1.299000, -0.012900
  1.301000, -0.011800
  1.303000, -0.010600
  1.305000, -0.009400
  1.307000, -0.008300
  1.309000, -0.007200
  1.311000, -0.006200
  1.313000, -0.005100
  1.315000, -0.004000
  1.317000, -0.002800
  1.319000, -0.001600
  1.321000, -0.000400
  1.323000,  0.000900
  1.325000,  0.002200
  1.327000,  0.003700
  1.329000,  0.005400
  1.331000,  0.007100
  1.333000,  0.008800
  1.335000,  0.010600
  1.337000,  0.012500
  1.339000,  0.014600
  1.341000,  0.016800
  1.343000,  0.019000
  1.345000,  0.021400
  1.347000,  0.023900
  1.349000,  0.026500
  1.351000,  0.029100
  1.353000,  0.031900
  1.355000,  0.034800
  1.357000,  0.037800
  1.359000,  0.041000
  1.361000,  0.044200
  1.363000,  0.047500
  1.365000,  0.050800
  1.367000,  0.054300
  1.369000,  0.057700
  1.371000,  0.061200
  1.373000,  0.064700
  1.375000,  0.068400
  1.377000,  0.071900
  1.379000,  0.075200
  1.381000,  0.078500
  1.383000,  0.081800
  1.385000,  0.084900
  1.387000,  0.087800
  1.389000,  0.090500
  1.391000,  0.092900
  1.393000,  0.095000
  1.395000,  0.096900
  1.397000,  0.098400
  1.399000,  0.099300
