# z (nm)   (kJ/mol)
  0.261000, 11.846400
  0.263000, 11.568800
  0.265000, 11.270700
  0.267000, 10.959500
  0.269000, 10.685900
  0.271000, 10.418700
  0.273000, 10.147800
  0.275000,  9.875300
  0.277000,  9.601800
  0.279000,  9.334500
  0.281000,  9.066700
  0.283000,  8.806000
  0.285000,  8.554700
  0.287000,  8.299900
  0.289000,  8.042800
  0.291000,  7.794900
  0.293000,  7.554200
  0.295000,  7.315800
  0.297000,  7.081600
  0.299000,  6.854700
  0.301000,  6.636800
  0.303000,  6.422800
  0.305000,  6.213600
  0.307000,  6.011100
  0.309000,  5.814100
  0.311000,  5.625800
  0.313000,  5.444900
  0.315000,  5.268500
  0.317000,  5.099200
  0.319000,  4.937300
  0.321000,  4.782900
  0.323000,  4.633700
  0.325000,  4.490500
  0.327000,  4.355900
  0.329000,  4.226300
  0.331000,  4.101600
  0.333000,  3.983700
  0.335000,  3.871300
  0.337000,  3.764100
  0.339000,  3.662900
  0.341000,  3.567500
  0.343000,  3.477200
  0.345000,  3.392300
  0.347000,  3.312600
  0.349000,  3.237700
  0.351000,  3.167900
  0.353000,  3.102600
  0.355000,  3.041800
  0.357000,  2.985400
  0.359000,  2.933500
  0.361000,  2.885100
  0.363000,  2.840100
  0.365000,  2.798700
  0.367000,  2.760900
  0.369000,  2.726600
  0.371000,  2.695800
  0.373000,  2.667900
  0.375000,  2.642600
  0.377000,  2.619500
  0.379000,  2.599000
  0.381000,  2.581500
  0.383000,  2.565900
  0.385000,  2.552500
  0.387000,  2.541200
  0.389000,  2.531500
  0.391000,  2.523700
  0.393000,  2.518000
  0.395000,  2.514100
  0.397000,  2.512100
  0.399000,  2.511300
  0.401000,  2.511800
  0.403000,  2.513800
  0.405000,  2.517000
  0.407000,  2.521600
  0.409000,  2.526900
  0.411000,  2.532500
  0.413000,  2.539300
  0.415000,  2.547200
  0.417000,  2.555400
  0.419000,  2.564200
  0.421000,  2.573700
  0.423000,  2.583600
  0.425000,  2.593500
  0.427000,  2.603600
  0.429000,  2.613800
  0.431000,  2.624100
  0.433000,  2.634100
  0.435000,  2.643700
  0.437000,  2.652800
  0.439000,  2.661400
  0.441000,  2.669500
  0.443000,  2.676900
  0.445000,  2.683300
  0.447000,  2.688900
  0.449000,  2.693500
  0.451000,  2.696700
  0.453000,  2.698600
  0.455000,  2.699000
  0.457000,  2.697800
  0.459000,  2.694900
  0.461000,  2.690200
  0.463000,  2.683800
  0.465000,  2.675400
  0.467000,  2.665000
  0.469000,  2.652400
  0.471000,  2.637600
  0.473000,  2.620600
  0.475000,  2.601200
  0.477000,  2.579100
  0.479000,  2.554500
  0.481000,  2.527600
  0.483000,  2.498200
  0.485000,  2.466300
  0.487000,  2.431700
  0.489000,  2.394500
  0.491000,  2.354900
  0.493000,  2.312800
  0.495000,  2.268200
  0.497000,  2.221000
  0.499000,  2.171400
  0.501000,  2.119400
  0.503000,  2.064900
  0.505000,  2.007700
  0.507000,  1.948600
  0.509000,  1.887800
  0.511000,  1.824600
  0.513000,  1.759200
  0.515000,  1.692100
  0.517000,  1.623900
  0.519000,  1.554000
  0.521000,  1.482300
  0.523000,  1.409400
  0.525000,  1.335300
  0.527000,  1.259800
  0.529000,  1.183700
  0.531000,  1.107200
  0.533000,  1.029700
  0.535000,  0.951400
  0.537000,  0.872000
  0.539000,  0.793100
  0.541000,  0.714400
  0.543000,  0.635300
  0.545000,  0.556500
  0.547000,  0.477500
  0.549000,  0.399300
  0.551000,  0.322200
  0.553000,  0.245700
  0.555000,  0.169400
  0.557000,  0.094100
  0.559000,  0.020500
  0.561000, -0.052800
  0.563000, -0.125600
  0.565000, -0.196900
  0.567000, -0.266700
  0.569000, -0.335100
  0.571000, -0.402000
  0.573000, -0.466900
  0.575000, -0.530100
  0.577000, -0.591900
  0.579000, -0.651800
  0.581000, -0.709800
  0.583000, -0.765600
  0.585000, -0.819400
  0.587000, -0.871000
  0.589000, -0.920700
  0.591000, -0.968300
  0.593000, -1.013500
  0.595000, -1.056400
  0.597000, -1.097200
  0.599000, -1.135700
  0.601000, -1.172000
  0.603000, -1.206000
  0.605000, -1.237900
  0.607000, -1.267500
  0.609000, -1.294600
  0.611000, -1.319400
  0.613000, -1.341900
  0.615000, -1.362200
  0.617000, -1.380200
  0.619000, -1.396000
  0.621000, -1.409700
  0.623000, -1.421100
  0.625000, -1.430500
  0.627000, -1.437900
  0.629000, -1.443200
  0.631000, -1.446400
  0.633000, -1.447500
  0.635000, -1.446800
  0.637000, -1.444300
  0.639000, -1.440000
  0.641000, -1.433900
  0.643000, -1.425900
  0.645000, -1.416300
  0.647000, -1.405000
  0.649000, -1.392100
  0.651000, -1.377700
  0.653000, -1.361800
  0.655000, -1.344400
  0.657000, -1.325600
  0.659000, -1.305600
  0.661000, -1.284400
  0.663000, -1.261900
  0.665000, -1.238300
  0.667000, -1.213600
  0.669000, -1.187900
  0.671000, -1.161100
  0.673000, -1.133400
  0.675000, -1.104900
  0.677000, -1.075500
  0.679000, -1.045600
  0.681000, -1.015100
  0.683000, -0.983900
  0.685000, -0.952200
  0.687000, -0.919900
  0.689000, -0.887200
  0.691000, -0.854200
  0.693000, -0.820800
  0.695000, -0.787000
  0.697000, -0.752800
  0.699000, -0.718400
  0.701000, -0.684000
  0.703000, -0.649400
  0.705000, -0.614800
  0.707000, -0.580200
  0.709000, -0.545500
  0.711000, -0.511100
  0.713000, -0.476800
  0.715000, -0.442700
  0.717000, -0.408900
  0.719000, -0.375200
  0.721000, -0.341600
  0.723000, -0.308400
  0.725000, -0.275600
  0.727000, -0.243200
  0.729000, -0.211200
  0.731000, -0.179500
  0.733000, -0.148400
  0.735000, -0.117600
  0.737000, -0.087300
  0.739000, -0.057600
  0.741000, -0.028400
  0.743000,  0.000200
  0.745000,  0.028200
  0.747000,  0.055500
  0.749000,  0.082200
  0.751000,  0.108200
  0.753000,  0.133600
  0.755000,  0.158200
  0.757000,  0.182100
  0.759000,  0.205200
  0.761000,  0.227500
  0.763000,  0.249000
  0.765000,  0.269800
  0.767000,  0.289800
  0.769000,  0.308900
  0.771000,  0.327200
  0.773000,  0.344600
  0.775000,  0.361100
  0.777000,  0.376900
  0.779000,  0.392100
  0.781000,  0.406300
  0.783000,  0.419600
  0.785000,  0.432100
  0.787000,  0.443700
  0.789000,  0.454300
  0.791000,  0.463900
  0.793000,  0.472800
  0.795000,  0.480900
  0.797000,  0.487900
  0.799000,  0.494000
  0.801000,  0.499200
  0.803000,  0.503400
  0.805000,  0.506800
  0.807000,  0.509300
  0.809000,  0.511000
  0.811000,  0.511900
  0.813000,  0.512100
  0.815000,  0.511200
  0.817000,  0.509400
  0.819000,  0.506900
  0.821000,  0.503700
  0.823000,  0.499600
  0.825000,  0.494800
  0.827000,  0.489400
  0.829000,  0.483200
  0.831000,  0.476400
  0.833000,  0.468900
  0.835000,  0.460700
  0.837000,  0.451900
  0.839000,  0.442500
  0.841000,  0.432500
  0.843000,  0.422000
  0.845000,  0.411000
  0.847000,  0.399600
  0.849000,  0.387800
  0.851000,  0.375500
  0.853000,  0.362800
  0.855000,  0.349800
  0.857000,  0.336600
  0.859000,  0.322900
  0.861000,  0.309000
  0.863000,  0.294900
  0.865000,  0.280500
  0.867000,  0.266000
  0.869000,  0.251200
  0.871000,  0.236200
  0.873000,  0.221300
  0.875000,  0.206400
  0.877000,  0.191400
  0.879000,  0.176600
  0.881000,  0.161800
  0.883000,  0.147000
  0.885000,  0.132400
  0.887000,  0.117900
  0.889000,  0.103600
  0.891000,  0.089300
  0.893000,  0.075200
  0.895000,  0.061500
  0.897000,  0.048000
  0.899000,  0.034700
  0.901000,  0.021800
  0.903000,  0.009200
  0.905000, -0.003000
  0.907000, -0.015000
  0.909000, -0.026600
  0.911000, -0.037700
  0.913000, -0.048300
  0.915000, -0.058700
  0.917000, -0.068600
  0.919000, -0.078100
  0.921000, -0.087100
  0.923000, -0.095600
  0.925000, -0.103500
  0.927000, -0.111000
  0.929000, -0.118100
  0.931000, -0.124700
  0.933000, -0.130700
  0.935000, -0.136300
  0.937000, -0.141400
  0.939000, -0.146000
  0.941000, -0.150000
  0.943000, -0.153600
  0.945000, -0.156800
  0.947000, -0.159500
  0.949000, -0.161800
  0.951000, -0.163600
  0.953000, -0.165000
  0.955000, -0.165900
  0.957000, -0.166400
  0.959000, -0.166400
  0.961000, -0.166100
  0.963000, -0.165500
  0.965000, -0.164500
  0.967000, -0.163100
  0.969000, -0.161400
  0.971000, -0.159300
  0.973000, -0.157000
  0.975000, -0.154400
  0.977000, -0.151500
  0.979000, -0.148300
  0.981000, -0.145000
  0.983000, -0.141500
  0.985000, -0.137600
  0.987000, -0.133600
  0.989000, -0.129400
  0.991000, -0.125100
  0.993000, -0.120500
  0.995000, -0.115800
  0.997000, -0.111000
  0.999000, -0.106100
  1.001000, -0.101000
  1.003000, -0.095900
  1.005000, -0.090500
  1.007000, -0.085200
  1.009000, -0.079900
  1.011000, -0.074400
  1.013000, -0.068900
  1.015000, -0.063400
  1.017000, -0.057900
  1.019000, -0.052300
  1.021000, -0.046600
  1.023000, -0.040900
  1.025000, -0.035300
  1.027000, -0.029700
  1.029000, -0.024100
  1.031000, -0.018500
  1.033000, -0.012900
  1.035000, -0.007400
  1.037000, -0.001800
  1.039000,  0.003700
  1.041000,  0.009000
  1.043000,  0.014300
  1.045000,  0.019700
  1.047000,  0.024900
  1.049000,  0.030100
  1.051000,  0.035100
  1.053000,  0.040100
  1.055000,  0.044900
  1.057000,  0.049700
  1.059000,  0.054300
  1.061000,  0.058700
  1.063000,  0.063000
  1.065000,  0.067100
  1.067000,  0.071200
  1.069000,  0.075100
  1.071000,  0.078900
  1.073000,  0.082400
  1.075000,  0.085800
  1.077000,  0.089100
  1.079000,  0.092200
  1.081000,  0.095000
  1.083000,  0.097600
  1.085000,  0.100000
  1.087000,  0.102300
  1.089000,  0.104300
  1.091000,  0.106100
  1.093000,  0.107700
  1.095000,  0.109100
  1.097000,  0.110100
  1.099000,  0.111000
  1.101000,  0.111800
  1.103000,  0.112300
  1.105000,  0.112700
  1.107000,  0.112900
  1.109000,  0.112800
  1.111000,  0.112600
  1.113000,  0.112200
  1.115000,  0.111600
  1.117000,  0.110900
  1.119000,  0.110000
  1.121000,  0.109000
  1.123000,  0.107900
  1.125000,  0.106700
  1.127000,  0.105300
  1.129000,  0.103800
  1.131000,  0.102100
  1.133000,  0.100400
  1.135000,  0.098500
  1.137000,  0.096500
  1.139000,  0.094600
  1.141000,  0.092600
  1.143000,  0.090500
  1.145000,  0.088400
  1.147000,  0.086300
  1.149000,  0.084200
  1.151000,  0.082000
  1.153000,  0.079800
  1.155000,  0.077600
  1.157000,  0.075500
  1.159000,  0.073300
  1.161000,  0.071000
  1.163000,  0.068800
  1.165000,  0.066600
  1.167000,  0.064500
  1.169000,  0.062400
  1.171000,  0.060300
  1.173000,  0.058100
  1.175000,  0.056000
  1.177000,  0.053900
  1.179000,  0.051800
  1.181000,  0.049700
  1.183000,  0.047600
  1.185000,  0.045500
  1.187000,  0.043400
  1.189000,  0.041200
  1.191000,  0.039000
  1.193000,  0.036900
  1.195000,  0.034600
  1.197000,  0.032300
  1.199000,  0.030000
  1.201000,  0.027700
  1.203000,  0.025500
  1.205000,  0.023200
  1.207000,  0.020900
  1.209000,  0.018400
  1.211000,  0.016000
  1.213000,  0.013600
  1.215000,  0.011200
  1.217000,  0.008900
  1.219000,  0.006500
  1.221000,  0.004000
  1.223000,  0.001700
  1.225000, -0.000700
  1.227000, -0.003100
  1.229000, -0.005500
  1.231000, -0.007800
  1.233000, -0.010100
  1.235000, -0.012300
  1.237000, -0.014400
  1.239000, -0.016600
  1.241000, -0.018600
  1.243000, -0.020500
  1.245000, -0.022300
  1.247000, -0.024000
  1.249000, -0.025500
  1.251000, -0.027000
  1.253000, -0.028300
  1.255000, -0.029500
  1.257000, -0.030500
  1.259000, -0.031400
  1.261000, -0.032100
  1.263000, -0.032600
  1.265000, -0.033000
  1.267000, -0.033300
  1.269000, -0.033400
  1.271000, -0.033400
  1.273000, -0.033200
  1.275000, -0.032900
  1.277000, -0.032600
  1.279000, -0.032100
  1.281000, -0.031300
  1.283000, -0.030500
  1.285000, -0.029600
  1.287000, -0.028600
  1.289000, -0.027500
  1.291000, -0.026200
  1.293000, -0.024900
  1.295000, -0.023500
  1.297000, -0.022100
  1.299000, -0.020700
  1.301000, -0.019200
  1.303000, -0.017700
  1.305000, -0.016200
  1.307000, -0.014800
  1.309000, -0.013400
  1.311000, -0.011900
  1.313000, -0.010400
  1.315000, -0.008900
  1.317000, -0.007500
  1.319000, -0.006100
  1.321000, -0.004800
  1.323000, -0.003400
  1.325000, -0.002100
  1.327000, -0.000700
  1.329000,  0.000500
  1.331000,  0.001700
  1.333000,  0.002900
  1.335000,  0.004200
  1.337000,  0.005600
  1.339000,  0.006900
  1.341000,  0.008100
  1.343000,  0.009300
  1.345000,  0.010500
  1.347000,  0.011700
  1.349000,  0.013100
  1.351000,  0.014500
  1.353000,  0.015700
  1.355000,  0.017100
  1.357000,  0.018600
  1.359000,  0.020000
  1.361000,  0.021500
  1.363000,  0.023000
  1.365000,  0.024500
  1.367000,  0.026200
  1.369000,  0.027900
  1.371000,  0.029500
  1.373000,  0.031200
  1.375000,  0.032900
  1.377000,  0.034700
  1.379000,  0.036300
  1.381000,  0.038000
  1.383000,  0.039700
  1.385000,  0.041300
  1.387000,  0.042900
  1.389000,  0.044400
  1.391000,  0.045700
  1.393000,  0.046900
  1.395000,  0.047700
  1.397000,  0.048100
  1.399000,  0.048200
