# z (nm)   (kJ/mol)
  0.325000,  6.134000
  0.329000,  6.111600
  0.333000,  6.063200
  0.335000,  6.037800
  0.337000,  6.008400
  0.343000,  5.921000
  0.345000,  5.884700
  0.351000,  5.804700
  0.353000,  5.761600
  0.355000,  5.715400
  0.357000,  5.667400
  0.361000,  5.564800
  0.363000,  5.513200
  0.365000,  5.459600
  0.369000,  5.402900
  0.371000,  5.343300
  0.373000,  5.288200
  0.375000,  5.231600
  0.379000,  5.098600
  0.383000,  4.981900
  0.385000,  4.912300
  0.387000,  4.846000
  0.389000,  4.781600
  0.391000,  4.717300
  0.393000,  4.658100
  0.395000,  4.598900
  0.397000,  4.541500
  0.399000,  4.484100
  0.401000,  4.416000
  0.403000,  4.350300
  0.405000,  4.290400
  0.407000,  4.227800
  0.409000,  4.169100
  0.411000,  4.113000
  0.413000,  4.054400
  0.415000,  3.998000
  0.417000,  3.944600
  0.419000,  3.890600
  0.421000,  3.836100
  0.423000,  3.784200
  0.425000,  3.735000
  0.427000,  3.687200
  0.429000,  3.641700
  0.431000,  3.597500
  0.433000,  3.555300
  0.435000,  3.515100
  0.437000,  3.477100
  0.439000,  3.441500
  0.441000,  3.407600
  0.443000,  3.375400
  0.445000,  3.345100
  0.447000,  3.316600
  0.449000,  3.289700
  0.451000,  3.264500
  0.453000,  3.241000
  0.455000,  3.218500
  0.457000,  3.197300
  0.459000,  3.178100
  0.461000,  3.160000
  0.463000,  3.142800
  0.465000,  3.126400
  0.467000,  3.110500
  0.469000,  3.095500
  0.471000,  3.080200
  0.473000,  3.066100
  0.475000,  3.052400
  0.477000,  3.037600
  0.479000,  3.022200
  0.481000,  3.007100
  0.483000,  2.991100
  0.485000,  2.974300
  0.487000,  2.955700
  0.489000,  2.934600
  0.491000,  2.912300
  0.493000,  2.886000
  0.495000,  2.857000
  0.497000,  2.826600
  0.499000,  2.795300
  0.501000,  2.762700
  0.503000,  2.726100
  0.505000,  2.682400
  0.507000,  2.633700
  0.509000,  2.582400
  0.511000,  2.529100
  0.513000,  2.472200
  0.515000,  2.410600
  0.517000,  2.345600
  0.519000,  2.278900
  0.521000,  2.211200
  0.523000,  2.139000
  0.525000,  2.060800
  0.527000,  1.978200
  0.529000,  1.892100
  0.531000,  1.805100
  0.533000,  1.715300
  0.535000,  1.620100
  0.537000,  1.521600
  0.539000,  1.419700
  0.541000,  1.316200
  0.543000,  1.209400
  0.545000,  1.098700
  0.547000,  0.986600
  0.549000,  0.872800
  0.551000,  0.758100
  0.553000,  0.643800
  0.555000,  0.529000
  0.557000,  0.413700
  0.559000,  0.298500
  0.561000,  0.183700
  0.563000,  0.069200
  0.565000, -0.044000
  0.567000, -0.155000
  0.569000, -0.263900
  0.571000, -0.370600
  0.573000, -0.475500
  0.575000, -0.577400
  0.577000, -0.676400
  0.579000, -0.772800
  0.581000, -0.866000
  0.583000, -0.955900
  0.585000, -1.041800
  0.587000, -1.123600
  0.589000, -1.201500
  0.591000, -1.275400
  0.593000, -1.345100
  0.595000, -1.410200
  0.597000, -1.470400
  0.599000, -1.526200
  0.601000, -1.577900
  0.603000, -1.625400
  0.605000, -1.668600
  0.607000, -1.707300
  0.609000, -1.741700
  0.611000, -1.771600
  0.613000, -1.797400
  0.615000, -1.819500
  0.617000, -1.837700
  0.619000, -1.852000
  0.621000, -1.862800
  0.623000, -1.870500
  0.625000, -1.874900
  0.627000, -1.876500
  0.629000, -1.875200
  0.631000, -1.871400
  0.633000, -1.865100
  0.635000, -1.856800
  0.637000, -1.846700
  0.639000, -1.834500
  0.641000, -1.820700
  0.643000, -1.806000
  0.645000, -1.789900
  0.647000, -1.772900
  0.649000, -1.755400
  0.651000, -1.737000
  0.653000, -1.718400
  0.655000, -1.699800
  0.657000, -1.681000
  0.659000, -1.662300
  0.661000, -1.643800
  0.663000, -1.625900
  0.665000, -1.609000
  0.667000, -1.592900
  0.669000, -1.577200
  0.671000, -1.562300
  0.673000, -1.548400
  0.675000, -1.535300
  0.677000, -1.523700
  0.679000, -1.513300
  0.681000, -1.504100
  0.683000, -1.495900
  0.685000, -1.488900
  0.687000, -1.483100
  0.689000, -1.478500
  0.691000, -1.474800
  0.693000, -1.472200
  0.695000, -1.470600
  0.697000, -1.470000
  0.699000, -1.470200
  0.701000, -1.471300
  0.703000, -1.473100
  0.705000, -1.475800
  0.707000, -1.478900
  0.709000, -1.482500
  0.711000, -1.486700
  0.713000, -1.491500
  0.715000, -1.496700
  0.717000, -1.501900
  0.719000, -1.507200
  0.721000, -1.512600
  0.723000, -1.518000
  0.725000, -1.523500
  0.727000, -1.528800
  0.729000, -1.533900
  0.731000, -1.538900
  0.733000, -1.543600
  0.735000, -1.547700
  0.737000, -1.551300
  0.739000, -1.554700
  0.741000, -1.557400
  0.743000, -1.559500
  0.745000, -1.560900
  0.747000, -1.561600
  0.749000, -1.561400
  0.751000, -1.560400
  0.753000, -1.558700
  0.755000, -1.556300
  0.757000, -1.553100
  0.759000, -1.549000
  0.761000, -1.544100
  0.763000, -1.538500
  0.765000, -1.532000
  0.767000, -1.524700
  0.769000, -1.516500
  0.771000, -1.507400
  0.773000, -1.497700
  0.775000, -1.487200
  0.777000, -1.475700
  0.779000, -1.463300
  0.781000, -1.450300
  0.783000, -1.436600
  0.785000, -1.422200
  0.787000, -1.407200
  0.789000, -1.391500
  0.791000, -1.375100
  0.793000, -1.358000
  0.795000, -1.340400
  0.797000, -1.322200
  0.799000, -1.303600
  0.801000, -1.284500
  0.803000, -1.264800
  0.805000, -1.244500
  0.807000, -1.223800
  0.809000, -1.202800
  0.811000, -1.181300
  0.813000, -1.159400
  0.815000, -1.137400
  0.817000, -1.115200
  0.819000, -1.092700
  0.821000, -1.069700
  0.823000, -1.046500
  0.825000, -1.023200
  0.827000, -0.999700
  0.829000, -0.975900
  0.831000, -0.952000
  0.833000, -0.928000
  0.835000, -0.904000
  0.837000, -0.880000
  0.839000, -0.856300
  0.841000, -0.832400
  0.843000, -0.808500
  0.845000, -0.784700
  0.847000, -0.760600
  0.849000, -0.736800
  0.851000, -0.713100
  0.853000, -0.689500
  0.855000, -0.666000
  0.857000, -0.642600
  0.859000, -0.619600
  0.861000, -0.596700
  0.863000, -0.573900
  0.865000, -0.551200
  0.867000, -0.528800
  0.869000, -0.506500
  0.871000, -0.484500
  0.873000, -0.462700
  0.875000, -0.441100
  0.877000, -0.420000
  0.879000, -0.399200
  0.881000, -0.378900
  0.883000, -0.358700
  0.885000, -0.338900
  0.887000, -0.319600
  0.889000, -0.300700
  0.891000, -0.282100
  0.893000, -0.264000
  0.895000, -0.246200
  0.897000, -0.228900
  0.899000, -0.212100
  0.901000, -0.195700
  0.903000, -0.179700
  0.905000, -0.164100
  0.907000, -0.149100
  0.909000, -0.134600
  0.911000, -0.120400
  0.913000, -0.106800
  0.915000, -0.093800
  0.917000, -0.081200
  0.919000, -0.069000
  0.921000, -0.057300
  0.923000, -0.046300
  0.925000, -0.035600
  0.927000, -0.025500
  0.929000, -0.016000
  0.931000, -0.007100
  0.933000,  0.001400
  0.935000,  0.009400
  0.937000,  0.016800
  0.939000,  0.023700
  0.941000,  0.030100
  0.943000,  0.035900
  0.945000,  0.041300
  0.947000,  0.046200
  0.949000,  0.050500
  0.951000,  0.054300
  0.953000,  0.057500
  0.955000,  0.060400
  0.957000,  0.062800
  0.959000,  0.064800
  0.961000,  0.066100
  0.963000,  0.066900
  0.965000,  0.067300
  0.967000,  0.067200
  0.969000,  0.066600
  0.971000,  0.065500
  0.973000,  0.064000
  0.975000,  0.062200
  0.977000,  0.060200
  0.979000,  0.057900
  0.981000,  0.055200
  0.983000,  0.052100
  0.985000,  0.048500
  0.987000,  0.044600
  0.989000,  0.040300
  0.991000,  0.035400
  0.993000,  0.030400
  0.995000,  0.025000
  0.997000,  0.019200
  0.999000,  0.013100
  1.001000,  0.006500
  1.003000, -0.000200
  1.005000, -0.007100
  1.007000, -0.014400
  1.009000, -0.021700
  1.011000, -0.029200
  1.013000, -0.037200
  1.015000, -0.045500
  1.017000, -0.053800
  1.019000, -0.062200
  1.021000, -0.070800
  1.023000, -0.079600
  1.025000, -0.088500
  1.027000, -0.097400
  1.029000, -0.106400
  1.031000, -0.115600
  1.033000, -0.124700
  1.035000, -0.133900
  1.037000, -0.143200
  1.039000, -0.152300
  1.041000, -0.161400
  1.043000, -0.170500
  1.045000, -0.179600
  1.047000, -0.188400
  1.049000, -0.197100
  1.051000, -0.205800
  1.053000, -0.214400
  1.055000, -0.222800
  1.057000, -0.230900
  1.059000, -0.238800
  1.061000, -0.246400
  1.063000, -0.253800
  1.065000, -0.260900
  1.067000, -0.267800
  1.069000, -0.274300
  1.071000, -0.280300
  1.073000, -0.286100
  1.075000, -0.291600
  1.077000, -0.296600
  1.079000, -0.301300
  1.081000, -0.305700
  1.083000, -0.309600
  1.085000, -0.313100
  1.087000, -0.316100
  1.089000, -0.318700
  1.091000, -0.320900
  1.093000, -0.322700
  1.095000, -0.323900
  1.097000, -0.324600
  1.099000, -0.324900
  1.101000, -0.324900
  1.103000, -0.324400
  1.105000, -0.323400
  1.107000, -0.321900
  1.109000, -0.320200
  1.111000, -0.318200
  1.113000, -0.315700
  1.115000, -0.312800
  1.117000, -0.309500
  1.119000, -0.305900
  1.121000, -0.301900
  1.123000, -0.297700
  1.125000, -0.293300
  1.127000, -0.288600
  1.129000, -0.283600
  1.131000, -0.278300
  1.133000, -0.272700
  1.135000, -0.266900
  1.137000, -0.260700
  1.139000, -0.254300
  1.141000, -0.247700
  1.143000, -0.241100
  1.145000, -0.234400
  1.147000, -0.227600
  1.149000, -0.220600
  1.151000, -0.213600
  1.153000, -0.206400
  1.155000, -0.199200
  1.157000, -0.192100
  1.159000, -0.184900
  1.161000, -0.177600
  1.163000, -0.170400
  1.165000, -0.163400
  1.167000, -0.156400
  1.169000, -0.149400
  1.171000, -0.142400
  1.173000, -0.135600
  1.175000, -0.129000
  1.177000, -0.122400
  1.179000, -0.115800
  1.181000, -0.109400
  1.183000, -0.103100
  1.185000, -0.097100
  1.187000, -0.091200
  1.189000, -0.085400
  1.191000, -0.079800
  1.193000, -0.074300
  1.195000, -0.068900
  1.197000, -0.063800
  1.199000, -0.058800
  1.201000, -0.053800
  1.203000, -0.049000
  1.205000, -0.044500
  1.207000, -0.040200
  1.209000, -0.036000
  1.211000, -0.032000
  1.213000, -0.028000
  1.215000, -0.024100
  1.217000, -0.020300
  1.219000, -0.016700
  1.221000, -0.013100
  1.223000, -0.009700
  1.225000, -0.006400
  1.227000, -0.003200
  1.229000, -0.000100
  1.231000,  0.002900
  1.233000,  0.005900
  1.235000,  0.008800
  1.237000,  0.011500
  1.239000,  0.014200
  1.241000,  0.016700
  1.243000,  0.019000
  1.245000,  0.021300
  1.247000,  0.023500
  1.249000,  0.025600
  1.251000,  0.027600
  1.253000,  0.029600
  1.255000,  0.031400
  1.257000,  0.033000
  1.259000,  0.034600
  1.261000,  0.036100
  1.263000,  0.037400
  1.265000,  0.038600
  1.267000,  0.039800
  1.269000,  0.040800
  1.271000,  0.041700
  1.273000,  0.042300
  1.275000,  0.043000
  1.277000,  0.043500
  1.279000,  0.043800
  1.281000,  0.044000
  1.283000,  0.044000
  1.285000,  0.043800
  1.287000,  0.043500
  1.289000,  0.043100
  1.291000,  0.042500
  1.293000,  0.041900
  1.295000,  0.041100
  1.297000,  0.040300
  1.299000,  0.039300
  1.301000,  0.038200
  1.303000,  0.037000
  1.305000,  0.035600
  1.307000,  0.034100
  1.309000,  0.032500
  1.311000,  0.030800
  1.313000,  0.029000
  1.315000,  0.027000
  1.317000,  0.025000
  1.319000,  0.022900
  1.321000,  0.020800
  1.323000,  0.018600
  1.325000,  0.016500
  1.327000,  0.014200
  1.329000,  0.011800
  1.331000,  0.009300
  1.333000,  0.006900
  1.335000,  0.004500
  1.337000,  0.002000
  1.339000, -0.000500
  1.341000, -0.003000
  1.343000, -0.005500
  1.345000, -0.008000
  1.347000, -0.010500
  1.349000, -0.013000
  1.351000, -0.015400
  1.353000, -0.017800
  1.355000, -0.020200
  1.357000, -0.022600
  1.359000, -0.025000
  1.361000, -0.027500
  1.363000, -0.030100
  1.365000, -0.032700
  1.367000, -0.035000
  1.369000, -0.037400
  1.371000, -0.040000
  1.373000, -0.042600
  1.375000, -0.045200
  1.377000, -0.047700
  1.379000, -0.050200
  1.381000, -0.052800
  1.383000, -0.055500
  1.385000, -0.058200
  1.387000, -0.060900
  1.389000, -0.064000
  1.391000, -0.067100
  1.393000, -0.070000
  1.395000, -0.073400
  1.397000, -0.076600
  1.399000, -0.079900
