# #h[nm], U[kJ/mol]
  0.137220, 63.070000
  0.139528, 56.320000
  0.141836, 49.640000
  0.144144, 43.060000
  0.146451, 36.650000
  0.148759, 30.440000
  0.151067, 24.490000
  0.153375, 18.830000
  0.155683, 13.490000
  0.157990,  8.490000
  0.160298,  3.850000
  0.162606, -0.440000
  0.164914, -4.380000
  0.167222, -7.990000
  0.169529,-11.290000
  0.171837,-14.300000
  0.174145,-17.030000
  0.176453,-19.520000
  0.178761,-21.770000
  0.181068,-23.820000
  0.183376,-25.670000
  0.185684,-27.350000
  0.187992,-28.890000
  0.190300,-30.310000
  0.192607,-31.620000
  0.194915,-32.840000
  0.197223,-33.950000
  0.199531,-34.950000
  0.201839,-35.840000
  0.204146,-36.590000
  0.206454,-37.210000
  0.208762,-37.710000
  0.211070,-38.090000
  0.213378,-38.360000
  0.215686,-38.540000
  0.217993,-38.620000
  0.220301,-38.600000
  0.222609,-38.480000
  0.224917,-38.250000
  0.227225,-37.930000
  0.229532,-37.530000
  0.231840,-37.080000
  0.234148,-36.580000
  0.236456,-36.090000
  0.238764,-35.600000
  0.241071,-35.140000
  0.243379,-34.710000
  0.245687,-34.300000
  0.247995,-33.900000
  0.250303,-33.480000
  0.252610,-33.020000
  0.254918,-32.520000
  0.257226,-31.940000
  0.259534,-31.290000
  0.261842,-30.580000
  0.264149,-29.820000
  0.266457,-29.030000
  0.268765,-28.220000
  0.271073,-27.420000
  0.273381,-26.640000
  0.275688,-25.890000
  0.277996,-25.180000
  0.280304,-24.490000
  0.282612,-23.820000
  0.284920,-23.160000
  0.287228,-22.500000
  0.289535,-21.840000
  0.291843,-21.180000
  0.294151,-20.520000
  0.296459,-19.870000
  0.298767,-19.230000
  0.301074,-18.630000
  0.303382,-18.050000
  0.305690,-17.520000
  0.307998,-17.030000
  0.310306,-16.580000
  0.312613,-16.170000
  0.314921,-15.790000
  0.317229,-15.430000
  0.319537,-15.090000
  0.321845,-14.760000
  0.324152,-14.450000
  0.326460,-14.150000
  0.328768,-13.860000
  0.331076,-13.600000
  0.333384,-13.350000
  0.335691,-13.120000
  0.337999,-12.900000
  0.340307,-12.700000
  0.342615,-12.510000
  0.344923,-12.310000
  0.347230,-12.090000
  0.349538,-11.860000
  0.351846,-11.610000
  0.354154,-11.330000
  0.356462,-11.020000
  0.358770,-10.700000
  0.361077,-10.360000
  0.363385,-10.010000
  0.365693, -9.670000
  0.368001, -9.330000
  0.370309, -9.000000
  0.372616, -8.700000
  0.374924, -8.410000
  0.377232, -8.130000
  0.379540, -7.890000
  0.381848, -7.660000
  0.384155, -7.450000
  0.386463, -7.260000
  0.388771, -7.090000
  0.391079, -6.930000
  0.393387, -6.790000
  0.395694, -6.660000
  0.398002, -6.540000
  0.400310, -6.430000
  0.402618, -6.320000
  0.404926, -6.200000
  0.407233, -6.060000
  0.409541, -5.920000
  0.411849, -5.750000
  0.414157, -5.560000
  0.416465, -5.340000
  0.418772, -5.110000
  0.421080, -4.850000
  0.423388, -4.560000
  0.425696, -4.250000
  0.428004, -3.930000
  0.430311, -3.570000
  0.432619, -3.200000
  0.434927, -2.810000
  0.437235, -2.410000
  0.439543, -2.000000
  0.441851, -1.590000
  0.444158, -1.180000
  0.446466, -0.790000
  0.448774, -0.420000
  0.451082, -0.070000
  0.453390,  0.260000
  0.455697,  0.560000
  0.458005,  0.830000
  0.460313,  1.070000
  0.462621,  1.290000
  0.464929,  1.470000
  0.467236,  1.620000
  0.469544,  1.740000
  0.471852,  1.810000
  0.474160,  1.850000
  0.476468,  1.850000
  0.478775,  1.810000
  0.481083,  1.730000
  0.483391,  1.610000
  0.485699,  1.460000
  0.488007,  1.270000
  0.490314,  1.070000
  0.492622,  0.840000
  0.494930,  0.610000
  0.497238,  0.380000
  0.499546,  0.140000
  0.501853, -0.080000
  0.504161, -0.280000
  0.506469, -0.480000
  0.508777, -0.670000
  0.511085, -0.840000
  0.513393, -1.010000
  0.515700, -1.170000
  0.518008, -1.330000
  0.520316, -1.490000
  0.522624, -1.640000
  0.524932, -1.800000
  0.527239, -1.950000
  0.529547, -2.110000
  0.531855, -2.250000
  0.534163, -2.390000
  0.536471, -2.510000
  0.538778, -2.620000
  0.541086, -2.720000
  0.543394, -2.800000
  0.545702, -2.860000
  0.548010, -2.910000
  0.550317, -2.930000
  0.552625, -2.940000
  0.554933, -2.940000
  0.557241, -2.940000
  0.559549, -2.920000
  0.561856, -2.900000
  0.564164, -2.890000
  0.566472, -2.870000
  0.568780, -2.840000
  0.571088, -2.820000
  0.573395, -2.800000
  0.575703, -2.770000
  0.578011, -2.730000
  0.580319, -2.690000
  0.582627, -2.640000
  0.584935, -2.590000
  0.587242, -2.530000
  0.589550, -2.460000
  0.591858, -2.390000
  0.594166, -2.330000
  0.596474, -2.270000
  0.598781, -2.220000
  0.601089, -2.170000
  0.603397, -2.120000
  0.605705, -2.070000
  0.608013, -2.020000
  0.610320, -1.970000
  0.612628, -1.920000
  0.614936, -1.870000
  0.617244, -1.820000
  0.619552, -1.770000
  0.621859, -1.720000
  0.624167, -1.660000
  0.626475, -1.610000
  0.628783, -1.560000
  0.631091, -1.510000
  0.633398, -1.470000
  0.635706, -1.420000
  0.638014, -1.380000
  0.640322, -1.340000
  0.642630, -1.300000
  0.644937, -1.260000
  0.647245, -1.230000
  0.649553, -1.190000
  0.651861, -1.160000
  0.654169, -1.140000
  0.656477, -1.120000
  0.658784, -1.090000
  0.661092, -1.060000
  0.663400, -1.030000
  0.665708, -1.000000
  0.668016, -0.970000
  0.670323, -0.930000
  0.672631, -0.890000
  0.674939, -0.850000
  0.677247, -0.810000
  0.679555, -0.770000
  0.681862, -0.730000
  0.684170, -0.690000
  0.686478, -0.650000
  0.688786, -0.620000
  0.691094, -0.580000
  0.693401, -0.550000
  0.695709, -0.520000
  0.698017, -0.490000
  0.700325, -0.450000
  0.702633, -0.410000
  0.704940, -0.360000
  0.707248, -0.310000
  0.709556, -0.260000
  0.711864, -0.210000
  0.714172, -0.150000
  0.716479, -0.100000
  0.718787, -0.040000
  0.721095,  0.010000
  0.723403,  0.050000
  0.725711,  0.100000
  0.728019,  0.130000
  0.730326,  0.170000
  0.732634,  0.190000
  0.734942,  0.210000
  0.737250,  0.230000
  0.739558,  0.250000
  0.741865,  0.260000
  0.744173,  0.280000
  0.746481,  0.300000
  0.748789,  0.310000
  0.751097,  0.330000
  0.753404,  0.350000
  0.755712,  0.370000
  0.758020,  0.390000
  0.760328,  0.410000
  0.762636,  0.430000
  0.764943,  0.440000
  0.767251,  0.460000
  0.769559,  0.460000
  0.771867,  0.470000
  0.774175,  0.460000
  0.776482,  0.450000
  0.778790,  0.430000
  0.781098,  0.400000
  0.783406,  0.370000
  0.785714,  0.340000
  0.788021,  0.310000
  0.790329,  0.270000
  0.792637,  0.230000
  0.794945,  0.190000
  0.797253,  0.160000
  0.799561,  0.130000
  0.801868,  0.090000
  0.804176,  0.060000
  0.806484,  0.030000
  0.808792,  0.000000
  0.811100, -0.030000
  0.813407, -0.060000
  0.815715, -0.080000
  0.818023, -0.110000
  0.820331, -0.130000
  0.822639, -0.150000
  0.824946, -0.170000
  0.827254, -0.190000
  0.829562, -0.200000
  0.831870, -0.210000
  0.834178, -0.220000
  0.836485, -0.230000
  0.838793, -0.230000
  0.841101, -0.230000
  0.843409, -0.230000
  0.845717, -0.240000
  0.848024, -0.240000
  0.850332, -0.250000
  0.852640, -0.260000
  0.854948, -0.270000
  0.857256, -0.280000
  0.859563, -0.300000
  0.861871, -0.320000
  0.864179, -0.340000
  0.866487, -0.360000
  0.868795, -0.390000
  0.871103, -0.410000
  0.873410, -0.440000
  0.875718, -0.460000
  0.878026, -0.480000
  0.880334, -0.500000
  0.882642, -0.520000
  0.884949, -0.530000
  0.887257, -0.550000
  0.889565, -0.560000
  0.891873, -0.560000
  0.894181, -0.570000
  0.896488, -0.570000
  0.898796, -0.560000
  0.901104, -0.560000
  0.903412, -0.560000
  0.905720, -0.550000
  0.908027, -0.530000
  0.910335, -0.520000
  0.912643, -0.510000
  0.914951, -0.490000
  0.917259, -0.480000
  0.919566, -0.470000
  0.921874, -0.460000
  0.924182, -0.460000
  0.926490, -0.450000
  0.928798, -0.440000
  0.931105, -0.440000
  0.933413, -0.440000
  0.935721, -0.440000
  0.938029, -0.450000
  0.940337, -0.450000
  0.942645, -0.460000
  0.944952, -0.460000
  0.947260, -0.470000
  0.949568, -0.470000
  0.951876, -0.480000
  0.954184, -0.490000
  0.956491, -0.490000
  0.958799, -0.500000
  0.961107, -0.500000
  0.963415, -0.510000
  0.965723, -0.510000
  0.968030, -0.510000
  0.970338, -0.510000
  0.972646, -0.510000
  0.974954, -0.510000
  0.977262, -0.500000
  0.979569, -0.490000
  0.981877, -0.480000
  0.984185, -0.460000
  0.986493, -0.450000
  0.988801, -0.420000
  0.991108, -0.400000
  0.993416, -0.370000
  0.995724, -0.340000
  0.998032, -0.320000
  1.000340, -0.290000
  1.002647, -0.270000
  1.004955, -0.250000
  1.007263, -0.230000
  1.009571, -0.210000
  1.011879, -0.200000
  1.014187, -0.190000
  1.016494, -0.190000
  1.018802, -0.180000
  1.021110, -0.180000
  1.023418, -0.180000
  1.025726, -0.180000
  1.028033, -0.190000
  1.030341, -0.190000
  1.032649, -0.190000
  1.034957, -0.180000
  1.037265, -0.180000
  1.039572, -0.170000
  1.041880, -0.150000
  1.044188, -0.140000
  1.046496, -0.120000
  1.048804, -0.100000
  1.051111, -0.080000
  1.053419, -0.060000
  1.055727, -0.040000
  1.058035, -0.020000
  1.060343,  0.000000
  1.062650,  0.020000
  1.064958,  0.030000
  1.067266,  0.040000
  1.069574,  0.040000
  1.071882,  0.040000
  1.074189,  0.040000
  1.076497,  0.030000
  1.078805,  0.030000
  1.081113,  0.020000
  1.083421,  0.000000
  1.085729, -0.010000
  1.088036, -0.030000
  1.090344, -0.040000
  1.092652, -0.050000
  1.094960, -0.060000
  1.097268, -0.070000
  1.099575, -0.080000
  1.101883, -0.090000
  1.104191, -0.100000
  1.106499, -0.100000
  1.108807, -0.100000
  1.111114, -0.100000
  1.113422, -0.100000
  1.115730, -0.100000
  1.118038, -0.100000
  1.120346, -0.090000
  1.122653, -0.090000
  1.124961, -0.090000
  1.127269, -0.080000
  1.129577, -0.080000
  1.131885, -0.080000
  1.134192, -0.070000
  1.136500, -0.070000
  1.138808, -0.060000
  1.141116, -0.060000
  1.143424, -0.060000
  1.145731, -0.050000
  1.148039, -0.060000
  1.150347, -0.060000
  1.152655, -0.060000
  1.154963, -0.070000
  1.157271, -0.080000
  1.159578, -0.090000
  1.161886, -0.100000
  1.164194, -0.120000
  1.166502, -0.140000
  1.168810, -0.160000
  1.171117, -0.180000
  1.173425, -0.210000
  1.175733, -0.240000
  1.178041, -0.260000
  1.180349, -0.290000
  1.182656, -0.310000
  1.184964, -0.340000
  1.187272, -0.350000
  1.189580, -0.360000
  1.191888, -0.350000
  1.194195, -0.350000
  1.196503, -0.320000
  1.198811, -0.300000
  1.201119, -0.260000
  1.203427, -0.220000
  1.205734, -0.170000
  1.208042, -0.120000
  1.210350, -0.080000
  1.212658, -0.030000
  1.214966,  0.000000
  1.217273,  0.030000
  1.219581,  0.040000
  1.221889,  0.050000
  1.224197,  0.050000
  1.226505,  0.030000
  1.228812,  0.020000
  1.231120, -0.010000
  1.233428, -0.030000
  1.235736, -0.060000
  1.238044, -0.080000
  1.240352, -0.100000
  1.242659, -0.110000
  1.244967, -0.130000
  1.247275, -0.130000
  1.249583, -0.140000
  1.251891, -0.140000
  1.254198, -0.140000
  1.256506, -0.140000
  1.258814, -0.140000
  1.261122, -0.140000
  1.263430, -0.140000
  1.265737, -0.130000
  1.268045, -0.130000
  1.270353, -0.130000
  1.272661, -0.130000
  1.274969, -0.130000
  1.277276, -0.120000
  1.279584, -0.120000
  1.281892, -0.110000
  1.284200, -0.110000
  1.286508, -0.100000
  1.288815, -0.090000
  1.291123, -0.070000
  1.293431, -0.060000
  1.295739, -0.040000
  1.298047, -0.020000
  1.300354, -0.010000
  1.302662,  0.010000
  1.304970,  0.030000
  1.307278,  0.040000
  1.309586,  0.060000
  1.311894,  0.070000
  1.314201,  0.070000
  1.316509,  0.080000
  1.318817,  0.070000
  1.321125,  0.070000
  1.323433,  0.060000
  1.325740,  0.050000
  1.328048,  0.040000
  1.330356,  0.030000
  1.332664,  0.020000
  1.334972,  0.010000
  1.337279,  0.000000
  1.339587,  0.000000
  1.341895, -0.010000
  1.344203, -0.010000
  1.346511, -0.010000
  1.348818,  0.000000
