# #h[nm], U[kJ/mol]
  0.138870, 54.990000
  0.140113, 51.530000
  0.141356, 48.060000
  0.142600, 44.590000
  0.143843, 41.140000
  0.145086, 37.700000
  0.146329, 34.290000
  0.147572, 30.910000
  0.148815, 27.570000
  0.150058, 24.270000
  0.151302, 21.030000
  0.152545, 17.830000
  0.153788, 14.700000
  0.155031, 11.630000
  0.156274,  8.640000
  0.157517,  5.710000
  0.158761,  2.870000
  0.160004,  0.110000
  0.161247, -2.560000
  0.162490, -5.130000
  0.163733, -7.600000
  0.164976, -9.980000
  0.166219,-12.250000
  0.167463,-14.410000
  0.168706,-16.460000
  0.169949,-18.400000
  0.171192,-20.240000
  0.172435,-21.970000
  0.173678,-23.600000
  0.174921,-25.130000
  0.176165,-26.570000
  0.177408,-27.920000
  0.178651,-29.190000
  0.179894,-30.370000
  0.181137,-31.490000
  0.182380,-32.530000
  0.183624,-33.510000
  0.184867,-34.440000
  0.186110,-35.310000
  0.187353,-36.130000
  0.188596,-36.900000
  0.189839,-37.640000
  0.191082,-38.340000
  0.192326,-39.000000
  0.193569,-39.640000
  0.194812,-40.240000
  0.196055,-40.810000
  0.197298,-41.360000
  0.198541,-41.870000
  0.199785,-42.360000
  0.201028,-42.820000
  0.202271,-43.250000
  0.203514,-43.640000
  0.204757,-44.010000
  0.206000,-44.330000
  0.207243,-44.630000
  0.208487,-44.880000
  0.209730,-45.100000
  0.210973,-45.280000
  0.212216,-45.420000
  0.213459,-45.520000
  0.214702,-45.600000
  0.215945,-45.640000
  0.217189,-45.640000
  0.218432,-45.620000
  0.219675,-45.570000
  0.220918,-45.500000
  0.222161,-45.410000
  0.223404,-45.300000
  0.224648,-45.160000
  0.225891,-45.010000
  0.227134,-44.840000
  0.228377,-44.650000
  0.229620,-44.440000
  0.230863,-44.200000
  0.232106,-43.940000
  0.233350,-43.660000
  0.234593,-43.340000
  0.235836,-43.000000
  0.237079,-42.630000
  0.238322,-42.230000
  0.239565,-41.810000
  0.240809,-41.370000
  0.242052,-40.910000
  0.243295,-40.440000
  0.244538,-39.950000
  0.245781,-39.460000
  0.247024,-38.950000
  0.248267,-38.440000
  0.249511,-37.920000
  0.250754,-37.410000
  0.251997,-36.890000
  0.253240,-36.360000
  0.254483,-35.840000
  0.255726,-35.320000
  0.256969,-34.810000
  0.258213,-34.290000
  0.259456,-33.770000
  0.260699,-33.260000
  0.261942,-32.760000
  0.263185,-32.270000
  0.264428,-31.780000
  0.265672,-31.300000
  0.266915,-30.830000
  0.268158,-30.370000
  0.269401,-29.910000
  0.270644,-29.470000
  0.271887,-29.040000
  0.273130,-28.620000
  0.274374,-28.200000
  0.275617,-27.800000
  0.276860,-27.400000
  0.278103,-27.010000
  0.279346,-26.630000
  0.280589,-26.260000
  0.281833,-25.890000
  0.283076,-25.530000
  0.284319,-25.180000
  0.285562,-24.840000
  0.286805,-24.500000
  0.288048,-24.180000
  0.289291,-23.860000
  0.290535,-23.560000
  0.291778,-23.270000
  0.293021,-22.990000
  0.294264,-22.720000
  0.295507,-22.470000
  0.296750,-22.240000
  0.297993,-22.020000
  0.299237,-21.810000
  0.300480,-21.610000
  0.301723,-21.430000
  0.302966,-21.250000
  0.304209,-21.090000
  0.305452,-20.940000
  0.306696,-20.790000
  0.307939,-20.660000
  0.309182,-20.530000
  0.310425,-20.400000
  0.311668,-20.270000
  0.312911,-20.150000
  0.314154,-20.030000
  0.315398,-19.910000
  0.316641,-19.790000
  0.317884,-19.670000
  0.319127,-19.540000
  0.320370,-19.420000
  0.321613,-19.290000
  0.322857,-19.170000
  0.324100,-19.040000
  0.325343,-18.910000
  0.326586,-18.780000
  0.327829,-18.650000
  0.329072,-18.510000
  0.330315,-18.380000
  0.331559,-18.240000
  0.332802,-18.100000
  0.334045,-17.960000
  0.335288,-17.820000
  0.336531,-17.680000
  0.337774,-17.530000
  0.339017,-17.390000
  0.340261,-17.250000
  0.341504,-17.110000
  0.342747,-16.970000
  0.343990,-16.840000
  0.345233,-16.710000
  0.346476,-16.580000
  0.347720,-16.460000
  0.348963,-16.340000
  0.350206,-16.230000
  0.351449,-16.120000
  0.352692,-16.020000
  0.353935,-15.930000
  0.355178,-15.840000
  0.356422,-15.760000
  0.357665,-15.680000
  0.358908,-15.610000
  0.360151,-15.550000
  0.361394,-15.500000
  0.362637,-15.450000
  0.363881,-15.400000
  0.365124,-15.360000
  0.366367,-15.310000
  0.367610,-15.270000
  0.368853,-15.220000
  0.370096,-15.160000
  0.371339,-15.100000
  0.372583,-15.030000
  0.373826,-14.940000
  0.375069,-14.840000
  0.376312,-14.730000
  0.377555,-14.610000
  0.378798,-14.470000
  0.380041,-14.310000
  0.381285,-14.140000
  0.382528,-13.960000
  0.383771,-13.760000
  0.385014,-13.550000
  0.386257,-13.330000
  0.387500,-13.110000
  0.388744,-12.890000
  0.389987,-12.660000
  0.391230,-12.430000
  0.392473,-12.210000
  0.393716,-11.980000
  0.394959,-11.760000
  0.396202,-11.550000
  0.397446,-11.340000
  0.398689,-11.130000
  0.399932,-10.930000
  0.401175,-10.740000
  0.402418,-10.550000
  0.403661,-10.370000
  0.404904,-10.200000
  0.406148,-10.030000
  0.407391, -9.870000
  0.408634, -9.710000
  0.409877, -9.560000
  0.411120, -9.420000
  0.412363, -9.280000
  0.413607, -9.150000
  0.414850, -9.040000
  0.416093, -8.930000
  0.417336, -8.820000
  0.418579, -8.730000
  0.419822, -8.650000
  0.421065, -8.570000
  0.422309, -8.500000
  0.423552, -8.450000
  0.424795, -8.400000
  0.426038, -8.340000
  0.427281, -8.300000
  0.428524, -8.270000
  0.429768, -8.230000
  0.431011, -8.190000
  0.432254, -8.150000
  0.433497, -8.110000
  0.434740, -8.050000
  0.435983, -8.000000
  0.437226, -7.930000
  0.438470, -7.850000
  0.439713, -7.760000
  0.440956, -7.650000
  0.442199, -7.530000
  0.443442, -7.390000
  0.444685, -7.240000
  0.445928, -7.070000
  0.447172, -6.890000
  0.448415, -6.690000
  0.449658, -6.480000
  0.450901, -6.270000
  0.452144, -6.030000
  0.453387, -5.790000
  0.454631, -5.540000
  0.455874, -5.290000
  0.457117, -5.020000
  0.458360, -4.750000
  0.459603, -4.470000
  0.460846, -4.190000
  0.462089, -3.920000
  0.463333, -3.640000
  0.464576, -3.370000
  0.465819, -3.090000
  0.467062, -2.830000
  0.468305, -2.570000
  0.469548, -2.320000
  0.470792, -2.080000
  0.472035, -1.850000
  0.473278, -1.640000
  0.474521, -1.440000
  0.475764, -1.260000
  0.477007, -1.090000
  0.478250, -0.950000
  0.479494, -0.820000
  0.480737, -0.720000
  0.481980, -0.640000
  0.483223, -0.580000
  0.484466, -0.540000
  0.485709, -0.530000
  0.486952, -0.530000
  0.488196, -0.550000
  0.489439, -0.600000
  0.490682, -0.660000
  0.491925, -0.730000
  0.493168, -0.820000
  0.494411, -0.920000
  0.495655, -1.020000
  0.496898, -1.140000
  0.498141, -1.260000
  0.499384, -1.380000
  0.500627, -1.500000
  0.501870, -1.630000
  0.503113, -1.750000
  0.504357, -1.870000
  0.505600, -1.980000
  0.506843, -2.080000
  0.508086, -2.180000
  0.509329, -2.280000
  0.510572, -2.370000
  0.511816, -2.450000
  0.513059, -2.530000
  0.514302, -2.600000
  0.515545, -2.670000
  0.516788, -2.740000
  0.518031, -2.800000
  0.519274, -2.850000
  0.520518, -2.900000
  0.521761, -2.950000
  0.523004, -3.000000
  0.524247, -3.040000
  0.525490, -3.090000
  0.526733, -3.130000
  0.527976, -3.170000
  0.529220, -3.210000
  0.530463, -3.240000
  0.531706, -3.280000
  0.532949, -3.310000
  0.534192, -3.340000
  0.535435, -3.370000
  0.536679, -3.400000
  0.537922, -3.430000
  0.539165, -3.450000
  0.540408, -3.470000
  0.541651, -3.490000
  0.542894, -3.500000
  0.544137, -3.520000
  0.545381, -3.530000
  0.546624, -3.540000
  0.547867, -3.560000
  0.549110, -3.570000
  0.550353, -3.580000
  0.551596, -3.590000
  0.552840, -3.600000
  0.554083, -3.610000
  0.555326, -3.620000
  0.556569, -3.630000
  0.557812, -3.630000
  0.559055, -3.640000
  0.560298, -3.650000
  0.561542, -3.660000
  0.562785, -3.680000
  0.564028, -3.690000
  0.565271, -3.700000
  0.566514, -3.710000
  0.567757, -3.720000
  0.569000, -3.730000
  0.570244, -3.740000
  0.571487, -3.750000
  0.572730, -3.760000
  0.573973, -3.760000
  0.575216, -3.770000
  0.576459, -3.770000
  0.577703, -3.770000
  0.578946, -3.770000
  0.580189, -3.770000
  0.581432, -3.760000
  0.582675, -3.750000
  0.583918, -3.740000
  0.585161, -3.730000
  0.586405, -3.720000
  0.587648, -3.700000
  0.588891, -3.680000
  0.590134, -3.660000
  0.591377, -3.640000
  0.592620, -3.610000
  0.593864, -3.590000
  0.595107, -3.560000
  0.596350, -3.530000
  0.597593, -3.510000
  0.598836, -3.480000
  0.600079, -3.460000
  0.601322, -3.430000
  0.602566, -3.410000
  0.603809, -3.390000
  0.605052, -3.370000
  0.606295, -3.350000
  0.607538, -3.330000
  0.608781, -3.320000
  0.610024, -3.310000
  0.611268, -3.300000
  0.612511, -3.290000
  0.613754, -3.280000
  0.614997, -3.270000
  0.616240, -3.260000
  0.617483, -3.260000
  0.618727, -3.250000
  0.619970, -3.240000
  0.621213, -3.230000
  0.622456, -3.220000
  0.623699, -3.200000
  0.624942, -3.190000
  0.626185, -3.170000
  0.627429, -3.140000
  0.628672, -3.120000
  0.629915, -3.090000
  0.631158, -3.060000
  0.632401, -3.020000
  0.633644, -2.980000
  0.634888, -2.940000
  0.636131, -2.900000
  0.637374, -2.850000
  0.638617, -2.810000
  0.639860, -2.760000
  0.641103, -2.710000
  0.642346, -2.670000
  0.643590, -2.620000
  0.644833, -2.570000
  0.646076, -2.530000
  0.647319, -2.490000
  0.648562, -2.440000
  0.649805, -2.400000
  0.651048, -2.370000
  0.652292, -2.330000
  0.653535, -2.300000
  0.654778, -2.270000
  0.656021, -2.250000
  0.657264, -2.230000
  0.658507, -2.210000
  0.659751, -2.190000
  0.660994, -2.170000
  0.662237, -2.150000
  0.663480, -2.140000
  0.664723, -2.120000
  0.665966, -2.100000
  0.667209, -2.090000
  0.668453, -2.080000
  0.669696, -2.060000
  0.670939, -2.040000
  0.672182, -2.030000
  0.673425, -2.010000
  0.674668, -1.990000
  0.675912, -1.970000
  0.677155, -1.960000
  0.678398, -1.940000
  0.679641, -1.910000
  0.680884, -1.890000
  0.682127, -1.870000
  0.683370, -1.850000
  0.684614, -1.820000
  0.685857, -1.800000
  0.687100, -1.780000
  0.688343, -1.750000
  0.689586, -1.730000
  0.690829, -1.710000
  0.692072, -1.680000
  0.693316, -1.660000
  0.694559, -1.640000
  0.695802, -1.620000
  0.697045, -1.600000
  0.698288, -1.580000
  0.699531, -1.560000
  0.700775, -1.540000
  0.702018, -1.520000
  0.703261, -1.510000
  0.704504, -1.490000
  0.705747, -1.480000
  0.706990, -1.470000
  0.708233, -1.450000
  0.709477, -1.440000
  0.710720, -1.430000
  0.711963, -1.420000
  0.713206, -1.410000
  0.714449, -1.390000
  0.715692, -1.380000
  0.716936, -1.370000
  0.718179, -1.350000
  0.719422, -1.340000
  0.720665, -1.320000
  0.721908, -1.300000
  0.723151, -1.280000
  0.724394, -1.260000
  0.725638, -1.240000
  0.726881, -1.220000
  0.728124, -1.190000
  0.729367, -1.170000
  0.730610, -1.140000
  0.731853, -1.110000
  0.733096, -1.080000
  0.734340, -1.050000
  0.735583, -1.020000
  0.736826, -0.990000
  0.738069, -0.960000
  0.739312, -0.920000
  0.740555, -0.890000
  0.741799, -0.860000
  0.743042, -0.830000
  0.744285, -0.800000
  0.745528, -0.770000
  0.746771, -0.740000
  0.748014, -0.720000
  0.749257, -0.690000
  0.750501, -0.660000
  0.751744, -0.630000
  0.752987, -0.600000
  0.754230, -0.570000
  0.755473, -0.540000
  0.756716, -0.510000
  0.757960, -0.490000
  0.759203, -0.460000
  0.760446, -0.430000
  0.761689, -0.410000
  0.762932, -0.380000
  0.764175, -0.350000
  0.765418, -0.330000
  0.766662, -0.300000
  0.767905, -0.270000
  0.769148, -0.250000
  0.770391, -0.220000
  0.771634, -0.200000
  0.772877, -0.180000
  0.774120, -0.160000
  0.775364, -0.140000
  0.776607, -0.120000
  0.777850, -0.100000
  0.779093, -0.090000
  0.780336, -0.080000
  0.781579, -0.070000
  0.782823, -0.060000
  0.784066, -0.060000
  0.785309, -0.050000
  0.786552, -0.050000
  0.787795, -0.050000
  0.789038, -0.060000
  0.790281, -0.060000
  0.791525, -0.060000
  0.792768, -0.070000
  0.794011, -0.070000
  0.795254, -0.080000
  0.796497, -0.090000
  0.797740, -0.090000
  0.798984, -0.100000
  0.800227, -0.100000
  0.801470, -0.110000
  0.802713, -0.120000
  0.803956, -0.120000
  0.805199, -0.130000
  0.806442, -0.140000
  0.807686, -0.140000
  0.808929, -0.150000
  0.810172, -0.160000
  0.811415, -0.170000
  0.812658, -0.180000
  0.813901, -0.190000
  0.815144, -0.200000
  0.816388, -0.210000
  0.817631, -0.220000
  0.818874, -0.230000
  0.820117, -0.240000
  0.821360, -0.260000
  0.822603, -0.270000
  0.823847, -0.290000
  0.825090, -0.300000
  0.826333, -0.320000
  0.827576, -0.330000
  0.828819, -0.340000
  0.830062, -0.360000
  0.831305, -0.370000
  0.832549, -0.390000
  0.833792, -0.400000
  0.835035, -0.410000
  0.836278, -0.420000
  0.837521, -0.430000
  0.838764, -0.430000
  0.840007, -0.430000
  0.841251, -0.440000
  0.842494, -0.440000
  0.843737, -0.440000
  0.844980, -0.440000
  0.846223, -0.440000
  0.847466, -0.440000
  0.848710, -0.450000
  0.849953, -0.450000
  0.851196, -0.450000
  0.852439, -0.450000
  0.853682, -0.450000
  0.854925, -0.460000
  0.856168, -0.460000
  0.857412, -0.470000
  0.858655, -0.480000
  0.859898, -0.490000
  0.861141, -0.500000
  0.862384, -0.520000
  0.863627, -0.530000
  0.864871, -0.550000
  0.866114, -0.560000
  0.867357, -0.580000
  0.868600, -0.600000
  0.869843, -0.620000
  0.871086, -0.630000
  0.872329, -0.650000
  0.873573, -0.670000
  0.874816, -0.680000
  0.876059, -0.690000
  0.877302, -0.710000
  0.878545, -0.710000
  0.879788, -0.720000
  0.881031, -0.720000
  0.882275, -0.720000
  0.883518, -0.720000
  0.884761, -0.720000
  0.886004, -0.710000
  0.887247, -0.700000
  0.888490, -0.690000
  0.889734, -0.670000
  0.890977, -0.660000
  0.892220, -0.640000
  0.893463, -0.630000
  0.894706, -0.610000
  0.895949, -0.590000
  0.897192, -0.570000
  0.898436, -0.550000
  0.899679, -0.540000
  0.900922, -0.520000
  0.902165, -0.510000
  0.903408, -0.490000
  0.904651, -0.480000
  0.905895, -0.470000
  0.907138, -0.460000
  0.908381, -0.450000
  0.909624, -0.440000
  0.910867, -0.440000
  0.912110, -0.440000
  0.913353, -0.440000
  0.914597, -0.440000
  0.915840, -0.440000
  0.917083, -0.450000
  0.918326, -0.460000
  0.919569, -0.460000
  0.920812, -0.470000
  0.922055, -0.470000
  0.923299, -0.480000
  0.924542, -0.490000
  0.925785, -0.500000
  0.927028, -0.510000
  0.928271, -0.520000
  0.929514, -0.530000
  0.930758, -0.530000
  0.932001, -0.540000
  0.933244, -0.550000
  0.934487, -0.560000
  0.935730, -0.560000
  0.936973, -0.570000
  0.938216, -0.570000
  0.939460, -0.570000
  0.940703, -0.570000
  0.941946, -0.580000
  0.943189, -0.570000
  0.944432, -0.570000
  0.945675, -0.570000
  0.946919, -0.560000
  0.948162, -0.560000
  0.949405, -0.550000
  0.950648, -0.550000
  0.951891, -0.540000
  0.953134, -0.530000
  0.954377, -0.520000
  0.955621, -0.510000
  0.956864, -0.500000
  0.958107, -0.500000
  0.959350, -0.490000
  0.960593, -0.480000
  0.961836, -0.470000
  0.963079, -0.460000
  0.964323, -0.450000
  0.965566, -0.450000
  0.966809, -0.440000
  0.968052, -0.430000
  0.969295, -0.420000
  0.970538, -0.410000
  0.971782, -0.410000
  0.973025, -0.400000
  0.974268, -0.400000
  0.975511, -0.390000
  0.976754, -0.390000
  0.977997, -0.390000
  0.979240, -0.380000
  0.980484, -0.380000
  0.981727, -0.380000
  0.982970, -0.380000
  0.984213, -0.370000
  0.985456, -0.370000
  0.986699, -0.370000
  0.987943, -0.360000
  0.989186, -0.360000
  0.990429, -0.350000
  0.991672, -0.350000
  0.992915, -0.340000
  0.994158, -0.340000
  0.995401, -0.340000
  0.996645, -0.330000
  0.997888, -0.320000
  0.999131, -0.310000
  1.000374, -0.310000
  1.001617, -0.300000
  1.002860, -0.290000
  1.004103, -0.290000
  1.005347, -0.280000
  1.006590, -0.270000
  1.007833, -0.260000
  1.009076, -0.260000
  1.010319, -0.250000
  1.011562, -0.250000
  1.012806, -0.240000
  1.014049, -0.230000
  1.015292, -0.220000
  1.016535, -0.220000
  1.017778, -0.210000
  1.019021, -0.200000
  1.020264, -0.200000
  1.021508, -0.190000
  1.022751, -0.180000
  1.023994, -0.180000
  1.025237, -0.170000
  1.026480, -0.160000
  1.027723, -0.160000
  1.028967, -0.160000
  1.030210, -0.150000
  1.031453, -0.150000
  1.032696, -0.150000
  1.033939, -0.150000
  1.035182, -0.140000
  1.036425, -0.140000
  1.037669, -0.140000
  1.038912, -0.140000
  1.040155, -0.140000
  1.041398, -0.140000
  1.042641, -0.140000
  1.043884, -0.140000
  1.045127, -0.140000
  1.046371, -0.140000
  1.047614, -0.140000
  1.048857, -0.140000
  1.050100, -0.140000
  1.051343, -0.140000
  1.052586, -0.140000
  1.053830, -0.140000
  1.055073, -0.140000
  1.056316, -0.140000
  1.057559, -0.130000
  1.058802, -0.130000
  1.060045, -0.130000
  1.061288, -0.130000
  1.062532, -0.130000
  1.063775, -0.120000
  1.065018, -0.120000
  1.066261, -0.110000
  1.067504, -0.110000
  1.068747, -0.100000
  1.069991, -0.090000
  1.071234, -0.090000
  1.072477, -0.080000
  1.073720, -0.070000
  1.074963, -0.060000
  1.076206, -0.050000
  1.077449, -0.040000
  1.078693, -0.030000
  1.079936, -0.020000
  1.081179, -0.010000
  1.082422, -0.010000
  1.083665,  0.000000
  1.084908,  0.010000
  1.086151,  0.010000
  1.087395,  0.020000
  1.088638,  0.020000
  1.089881,  0.030000
  1.091124,  0.030000
  1.092367,  0.030000
  1.093610,  0.040000
  1.094854,  0.040000
  1.096097,  0.040000
  1.097340,  0.040000
  1.098583,  0.040000
  1.099826,  0.040000
  1.101069,  0.040000
  1.102312,  0.040000
  1.103556,  0.040000
  1.104799,  0.040000
  1.106042,  0.040000
  1.107285,  0.040000
  1.108528,  0.030000
  1.109771,  0.030000
  1.111015,  0.030000
  1.112258,  0.030000
  1.113501,  0.030000
  1.114744,  0.020000
  1.115987,  0.020000
  1.117230,  0.010000
  1.118473,  0.010000
  1.119717,  0.010000
  1.120960,  0.000000
  1.122203,  0.000000
  1.123446, -0.010000
  1.124689, -0.010000
  1.125932, -0.010000
  1.127175, -0.020000
  1.128419, -0.020000
  1.129662, -0.020000
  1.130905, -0.030000
  1.132148, -0.040000
  1.133391, -0.040000
  1.134634, -0.050000
  1.135878, -0.050000
  1.137121, -0.060000
  1.138364, -0.060000
  1.139607, -0.070000
  1.140850, -0.070000
  1.142093, -0.070000
  1.143336, -0.080000
  1.144580, -0.080000
  1.145823, -0.080000
  1.147066, -0.080000
  1.148309, -0.090000
  1.149552, -0.090000
  1.150795, -0.090000
  1.152039, -0.090000
  1.153282, -0.090000
  1.154525, -0.080000
  1.155768, -0.090000
  1.157011, -0.090000
  1.158254, -0.080000
  1.159497, -0.080000
  1.160741, -0.080000
  1.161984, -0.070000
  1.163227, -0.070000
  1.164470, -0.070000
  1.165713, -0.070000
  1.166956, -0.070000
  1.168199, -0.070000
  1.169443, -0.070000
  1.170686, -0.070000
  1.171929, -0.060000
  1.173172, -0.060000
  1.174415, -0.070000
  1.175658, -0.070000
  1.176902, -0.070000
  1.178145, -0.080000
  1.179388, -0.090000
  1.180631, -0.090000
  1.181874, -0.100000
  1.183117, -0.110000
  1.184360, -0.120000
  1.185604, -0.130000
  1.186847, -0.140000
  1.188090, -0.150000
  1.189333, -0.160000
  1.190576, -0.170000
  1.191819, -0.180000
  1.193063, -0.190000
  1.194306, -0.200000
  1.195549, -0.210000
  1.196792, -0.230000
  1.198035, -0.240000
  1.199278, -0.250000
  1.200521, -0.260000
  1.201765, -0.270000
  1.203008, -0.270000
  1.204251, -0.280000
  1.205494, -0.290000
  1.206737, -0.300000
  1.207980, -0.300000
  1.209223, -0.310000
  1.210467, -0.320000
  1.211710, -0.320000
  1.212953, -0.320000
  1.214196, -0.320000
  1.215439, -0.330000
  1.216682, -0.330000
  1.217926, -0.320000
  1.219169, -0.320000
  1.220412, -0.310000
  1.221655, -0.310000
  1.222898, -0.300000
  1.224141, -0.300000
  1.225384, -0.300000
  1.226628, -0.290000
  1.227871, -0.290000
  1.229114, -0.280000
  1.230357, -0.280000
  1.231600, -0.270000
  1.232843, -0.270000
  1.234087, -0.260000
  1.235330, -0.260000
  1.236573, -0.250000
  1.237816, -0.250000
  1.239059, -0.250000
  1.240302, -0.250000
  1.241545, -0.250000
  1.242789, -0.250000
  1.244032, -0.250000
  1.245275, -0.250000
  1.246518, -0.240000
  1.247761, -0.240000
  1.249004, -0.240000
  1.250247, -0.240000
  1.251491, -0.240000
  1.252734, -0.240000
  1.253977, -0.240000
  1.255220, -0.230000
  1.256463, -0.230000
  1.257706, -0.230000
  1.258950, -0.220000
  1.260193, -0.220000
  1.261436, -0.220000
  1.262679, -0.210000
  1.263922, -0.210000
  1.265165, -0.200000
  1.266408, -0.190000
  1.267652, -0.190000
  1.268895, -0.180000
  1.270138, -0.180000
  1.271381, -0.170000
  1.272624, -0.170000
  1.273867, -0.160000
  1.275110, -0.150000
  1.276354, -0.150000
  1.277597, -0.140000
  1.278840, -0.140000
  1.280083, -0.130000
  1.281326, -0.130000
  1.282569, -0.120000
  1.283813, -0.120000
  1.285056, -0.120000
  1.286299, -0.120000
  1.287542, -0.110000
  1.288785, -0.110000
  1.290028, -0.110000
  1.291271, -0.110000
  1.292515, -0.110000
  1.293758, -0.110000
  1.295001, -0.110000
  1.296244, -0.110000
  1.297487, -0.110000
  1.298730, -0.100000
  1.299974, -0.100000
  1.301217, -0.100000
  1.302460, -0.100000
  1.303703, -0.100000
  1.304946, -0.090000
  1.306189, -0.080000
  1.307432, -0.080000
  1.308676, -0.070000
  1.309919, -0.060000
  1.311162, -0.050000
  1.312405, -0.040000
  1.313648, -0.030000
  1.314891, -0.020000
  1.316134, -0.010000
  1.317378,  0.000000
  1.318621,  0.010000
  1.319864,  0.020000
  1.321107,  0.030000
  1.322350,  0.040000
  1.323593,  0.050000
  1.324837,  0.060000
  1.326080,  0.060000
  1.327323,  0.060000
  1.328566,  0.070000
  1.329809,  0.070000
  1.331052,  0.070000
  1.332295,  0.070000
  1.333539,  0.060000
  1.334782,  0.060000
  1.336025,  0.060000
  1.337268,  0.050000
  1.338511,  0.040000
  1.339754,  0.030000
  1.340998,  0.020000
  1.342241,  0.010000
  1.343484,  0.000000
