# z (nm)   (kJ/mol)
  0.0580  273.93793
  0.0600  270.60272
  0.0620  267.84799
  0.0640  264.86352
  0.0660  262.17545
  0.0680  259.45843
  0.0700  256.76969
  0.0720  253.98262
  0.0740  251.17810
  0.0760  248.28166
  0.0780  245.30540
  0.0800  242.23654
  0.0820  239.07594
  0.0840  235.81088
  0.0860  232.44550
  0.0880  228.97537
  0.0900  225.40497
  0.0920  221.74273
  0.0940  217.98598
  0.0960  214.14404
  0.0980  210.22098
  0.1000  206.22735
  0.1020  202.16699
  0.1040  198.05805
  0.1060  193.90714
  0.1080  189.73668
  0.1100  185.56209
  0.1120  181.40245
  0.1140  177.28578
  0.1160  173.23044
  0.1180  169.26203
  0.1200  165.39452
  0.1220  161.64244
  0.1240  158.00987
  0.1260  154.49949
  0.1280  151.10285
  0.1300  147.80551
  0.1320  144.58994
  0.1340  141.43756
  0.1360  138.32881
  0.1380  135.23931
  0.1400  132.15257
  0.1420  129.05042
  0.1440  125.94332
  0.1460  122.83005
  0.1480  119.71954
  0.1500  116.62485
  0.1520  113.55962
  0.1540  110.53489
  0.1560  107.54507
  0.1580  104.59763
  0.1600  101.69343
  0.1620   98.82460
  0.1640   95.97704
  0.1660   93.15628
  0.1680   90.36931
  0.1700   87.61231
  0.1720   84.88903
  0.1740   82.20959
  0.1760   79.56808
  0.1780   76.97398
  0.1800   74.42114
  0.1820   71.92654
  0.1840   69.47774
  0.1860   67.08228
  0.1880   64.74290
  0.1900   62.46620
  0.1920   60.24066
  0.1940   58.06307
  0.1960   55.93375
  0.1980   53.82980
  0.2000   51.73342
  0.2020   49.63585
  0.2040   47.53224
  0.2060   45.43400
  0.2080   43.35970
  0.2100   41.33018
  0.2120   39.38241
  0.2140   37.53743
  0.2160   35.80007
  0.2180   34.15501
  0.2200   32.56892
  0.2220   31.01193
  0.2240   29.45128
  0.2260   27.87111
  0.2280   26.27773
  0.2300   24.68139
  0.2320   23.11345
  0.2340   21.59458
  0.2360   20.15014
  0.2380   18.78386
  0.2400   17.49256
  0.2420   16.25708
  0.2440   15.06774
  0.2460   13.90930
  0.2480   12.77682
  0.2500   11.65937
  0.2520   10.57485
  0.2540    9.53427
  0.2560    8.52895
  0.2580    7.57143
  0.2600    6.66291
  0.2620    5.79187
  0.2640    4.97779
  0.2660    4.20568
  0.2680    3.47404
  0.2700    2.77095
  0.2720    2.09434
  0.2740    1.44257
  0.2760    0.81652
  0.2780    0.21932
  0.2800   -0.35803
  0.2820   -0.91232
  0.2840   -1.42445
  0.2860   -1.90296
  0.2880   -2.34032
  0.2900   -2.73750
  0.2920   -3.09194
  0.2940   -3.41527
  0.2960   -3.71013
  0.2980   -3.97714
  0.3000   -4.22923
  0.3020   -4.46184
  0.3040   -4.68741
  0.3060   -4.89053
  0.3080   -5.07813
  0.3100   -5.23684
  0.3120   -5.37570
  0.3140   -5.49321
  0.3160   -5.59167
  0.3180   -5.67884
  0.3200   -5.75501
  0.3220   -5.81341
  0.3240   -5.86109
  0.3260   -5.90589
  0.3280   -5.93636
  0.3300   -5.95047
  0.3320   -5.95004
  0.3340   -5.93035
  0.3360   -5.89977
  0.3380   -5.84666
  0.3400   -5.76383
  0.3420   -5.68809
  0.3440   -5.60216
  0.3460   -5.52239
  0.3480   -5.44533
  0.3500   -5.38061
  0.3520   -5.33438
  0.3540   -5.29506
  0.3560   -5.27244
  0.3580   -5.25212
  0.3600   -5.23428
  0.3620   -5.21097
  0.3640   -5.17650
  0.3660   -5.14603
  0.3680   -5.10561
  0.3700   -5.05992
  0.3720   -5.00503
  0.3740   -4.95400
  0.3760   -4.89570
  0.3780   -4.83475
  0.3800   -4.77429
  0.3820   -4.70519
  0.3840   -4.63488
  0.3860   -4.56377
  0.3880   -4.48014
  0.3900   -4.38654
  0.3920   -4.29139
  0.3940   -4.18780
  0.3960   -4.07095
  0.3980   -3.95476
  0.4000   -3.83211
  0.4020   -3.70104
  0.4040   -3.56304
  0.4060   -3.41744
  0.4080   -3.26908
  0.4100   -3.11104
  0.4120   -2.95058
  0.4140   -2.79793
  0.4160   -2.64895
  0.4180   -2.50169
  0.4200   -2.35746
  0.4220   -2.22605
  0.4240   -2.09184
  0.4260   -1.96825
  0.4280   -1.83519
  0.4300   -1.70901
  0.4320   -1.58591
  0.4340   -1.45961
  0.4360   -1.32869
  0.4380   -1.19984
  0.4400   -1.07809
  0.4420   -0.95118
  0.4440   -0.83108
  0.4460   -0.71755
  0.4480   -0.60918
  0.4500   -0.51101
  0.4520   -0.42057
  0.4540   -0.33117
  0.4560   -0.25339
  0.4580   -0.17992
  0.4600   -0.10909
  0.4620   -0.04563
  0.4640    0.01512
  0.4660    0.06788
  0.4680    0.11747
  0.4700    0.16595
  0.4720    0.20504
  0.4740    0.23774
  0.4760    0.26817
  0.4780    0.29271
  0.4800    0.31403
  0.4820    0.32606
  0.4840    0.33873
  0.4860    0.34384
  0.4880    0.35048
  0.4900    0.35213
  0.4920    0.35515
  0.4940    0.36084
  0.4960    0.35741
  0.4980    0.35726
  0.5000    0.34814
  0.5020    0.33055
  0.5040    0.31718
  0.5060    0.29859
  0.5080    0.28182
  0.5100    0.25361
  0.5120    0.21486
  0.5140    0.18273
  0.5160    0.15028
  0.5180    0.12400
  0.5200    0.09720
  0.5220    0.07628
  0.5240    0.05742
  0.5260    0.03990
  0.5280    0.01683
  0.5300   -0.00281
  0.5320   -0.03150
  0.5340   -0.06401
  0.5360   -0.10482
  0.5380   -0.15495
  0.5400   -0.21270
  0.5420   -0.27564
  0.5440   -0.33192
  0.5460   -0.39043
  0.5480   -0.45302
  0.5500   -0.50471
  0.5520   -0.56239
  0.5540   -0.61515
  0.5560   -0.65835
  0.5580   -0.70063
  0.5600   -0.73817
  0.5620   -0.77359
  0.5640   -0.80096
  0.5660   -0.82198
  0.5680   -0.84231
  0.5700   -0.86465
  0.5720   -0.88024
  0.5740   -0.89580
  0.5760   -0.90669
  0.5780   -0.91795
  0.5800   -0.92502
  0.5820   -0.92067
  0.5840   -0.92305
  0.5860   -0.92789
  0.5880   -0.91599
  0.5900   -0.91047
  0.5920   -0.90949
  0.5940   -0.90719
  0.5960   -0.90744
  0.5980   -0.90833
  0.6000   -0.91381
  0.6020   -0.91628
  0.6040   -0.92163
  0.6060   -0.92275
  0.6080   -0.91767
  0.6100   -0.90722
  0.6120   -0.88709
  0.6140   -0.86639
  0.6160   -0.83578
  0.6180   -0.79697
  0.6200   -0.76388
  0.6220   -0.72325
  0.6240   -0.67713
  0.6260   -0.63988
  0.6280   -0.59429
  0.6300   -0.55568
  0.6320   -0.52059
  0.6340   -0.48188
  0.6360   -0.44296
  0.6380   -0.40813
  0.6400   -0.37109
  0.6420   -0.33926
  0.6440   -0.31398
  0.6460   -0.28584
  0.6480   -0.25573
  0.6500   -0.23069
  0.6520   -0.19830
  0.6540   -0.16966
  0.6560   -0.14244
  0.6580   -0.10953
  0.6600   -0.07466
  0.6620   -0.04587
  0.6640   -0.00859
  0.6660    0.02649
  0.6680    0.06555
  0.6700    0.10236
  0.6720    0.14303
  0.6740    0.18331
  0.6760    0.22219
  0.6780    0.25948
  0.6800    0.29550
  0.6820    0.32252
  0.6840    0.34528
  0.6860    0.36341
  0.6880    0.37022
  0.6900    0.37509
  0.6920    0.37808
  0.6940    0.38428
  0.6960    0.39426
  0.6980    0.40588
  0.7000    0.43134
  0.7020    0.44609
  0.7040    0.47166
  0.7060    0.50141
  0.7080    0.53299
  0.7100    0.55719
  0.7120    0.58022
  0.7140    0.60526
  0.7160    0.62506
  0.7180    0.63546
  0.7200    0.64610
  0.7220    0.64648
  0.7240    0.64461
  0.7260    0.63456
  0.7280    0.63282
  0.7300    0.61687
  0.7320    0.60499
  0.7340    0.59144
  0.7360    0.58131
  0.7380    0.57912
  0.7400    0.57696
  0.7420    0.57454
  0.7440    0.57942
  0.7460    0.58247
  0.7480    0.58452
  0.7500    0.58977
  0.7520    0.60097
  0.7540    0.61527
  0.7560    0.62326
  0.7580    0.62836
  0.7600    0.62800
  0.7620    0.62622
  0.7640    0.61619
  0.7660    0.60125
  0.7680    0.57526
  0.7700    0.55207
  0.7720    0.52056
  0.7740    0.49260
  0.7760    0.46544
  0.7780    0.43634
  0.7800    0.41168
  0.7820    0.39068
  0.7840    0.37759
  0.7860    0.36834
  0.7880    0.36090
  0.7900    0.35942
  0.7920    0.36459
  0.7940    0.37194
  0.7960    0.38438
  0.7980    0.39503
  0.8000    0.40672
  0.8020    0.41466
  0.8040    0.42118
  0.8060    0.42324
  0.8080    0.42175
  0.8100    0.41547
  0.8120    0.39480
  0.8140    0.37682
  0.8160    0.34967
  0.8180    0.32729
  0.8200    0.30708
  0.8220    0.28503
  0.8240    0.26533
  0.8260    0.25137
  0.8280    0.24250
  0.8300    0.23740
  0.8320    0.23420
  0.8340    0.23296
  0.8360    0.23676
  0.8380    0.24136
  0.8400    0.24211
  0.8420    0.23522
  0.8440    0.23702
  0.8460    0.23608
  0.8480    0.23582
  0.8500    0.23529
  0.8520    0.23028
  0.8540    0.22555
  0.8560    0.21920
  0.8580    0.21298
  0.8600    0.20167
  0.8620    0.19056
  0.8640    0.17654
  0.8660    0.15768
  0.8680    0.13881
  0.8700    0.11972
  0.8720    0.09865
  0.8740    0.08015
  0.8760    0.06203
  0.8780    0.04729
  0.8800    0.03363
  0.8820    0.02185
  0.8840    0.01368
  0.8860    0.00629
  0.8880   -0.00312
  0.8900   -0.00536
  0.8920   -0.00734
  0.8940   -0.00991
  0.8960   -0.01577
  0.8980   -0.02195
  0.9000   -0.03234
  0.9020   -0.04225
  0.9040   -0.05177
  0.9060   -0.06081
  0.9080   -0.07354
  0.9100   -0.08093
  0.9120   -0.09079
  0.9140   -0.09506
  0.9160   -0.08954
  0.9180   -0.08684
  0.9200   -0.08351
  0.9220   -0.06767
  0.9240   -0.05416
  0.9260   -0.04104
  0.9280   -0.02981
  0.9300   -0.01444
  0.9320   -0.00161
  0.9340    0.01044
  0.9360    0.02330
  0.9380    0.03533
  0.9400    0.04468
  0.9420    0.04690
  0.9440    0.04625
  0.9460    0.04958
  0.9480    0.05166
  0.9500    0.04989
  0.9520    0.04771
  0.9540    0.04761
  0.9560    0.04897
  0.9580    0.04204
  0.9600    0.04552
  0.9620    0.05052
  0.9640    0.05667
  0.9660    0.05871
  0.9680    0.05548
  0.9700    0.05330
  0.9720    0.04973
  0.9740    0.03362
  0.9760    0.02152
  0.9780    0.01226
  0.9800    0.00180
  0.9820    0.00083
  0.9840   -0.00219
  0.9860   -0.00241
  0.9880    0.00141
  0.9900    0.00618
  0.9920    0.00345
  0.9940    0.00377
  0.9960    0.00093
  0.9980   -0.00941
  1.0000   -0.02226
