# PMF between COM of SHIE and Gold slab.
#
#             SHIE
# z (nm)   (kJ/mol)               
  0.1568  243.7916
  0.1600  234.0606
  0.1632  222.4702
  0.1664  209.0209
  0.1696  194.3956
  0.1728  179.8796
  0.1760  166.4716
  0.1792  154.5936
  0.1824  144.4656
  0.1856  135.4256
  0.1888  126.5586
  0.1920  117.8536
  0.1952  109.6316
  0.1984  102.1546
  0.2016   95.1536
  0.2048   88.0496
  0.2080   80.8716
  0.2112   73.8176
  0.2144   66.7746
  0.2176   59.5986
  0.2208   52.4616
  0.2240   45.6136
  0.2272   39.0246
  0.2304   32.5156
  0.2336   26.1276
  0.2368   20.1296
  0.2400   14.5836
  0.2432    9.1986
  0.2464    3.7536
  0.2496   -1.6564
  0.2528   -6.8154
  0.2560  -11.6274
  0.2592  -16.1824
  0.2624  -20.6104
  0.2656  -24.9224
  0.2688  -28.9994
  0.2720  -32.6704
  0.2752  -35.8694
  0.2784  -38.6974
  0.2816  -41.3544
  0.2848  -44.0044
  0.2880  -46.6284
  0.2912  -49.0584
  0.2944  -51.1704
  0.2976  -53.0034
  0.3008  -54.6754
  0.3040  -56.2534
  0.3072  -57.7354
  0.3104  -59.0654
  0.3136  -60.1764
  0.3168  -60.9434
  0.3200  -61.2814
  0.3232  -61.1914
  0.3264  -60.7864
  0.3296  -60.2004
  0.3328  -59.5294
  0.3360  -58.7774
  0.3392  -57.9214
  0.3424  -56.9934
  0.3456  -56.0874
  0.3488  -55.2784
  0.3520  -54.6084
  0.3552  -54.0764
  0.3584  -53.6394
  0.3616  -53.2184
  0.3648  -52.7494
  0.3680  -52.1724
  0.3712  -51.3324
  0.3744  -50.1944
  0.3776  -48.8874
  0.3808  -47.5374
  0.3840  -46.1294
  0.3872  -44.7174
  0.3904  -43.4684
  0.3936  -42.4624
  0.3968  -41.6754
  0.4000  -41.0274
  0.4032  -40.4344
  0.4064  -39.8534
  0.4096  -39.3084
  0.4128  -38.7984
  0.4160  -38.3044
  0.4192  -37.8124
  0.4224  -37.3114
  0.4256  -36.7474
  0.4288  -36.0174
  0.4320  -35.1334
  0.4352  -34.1724
  0.4384  -33.1414
  0.4416  -32.0264
  0.4448  -30.8344
  0.4480  -29.6384
  0.4512  -28.5204
  0.4544  -27.5504
  0.4576  -26.7084
  0.4608  -25.9394
  0.4640  -25.2434
  0.4672  -24.6624
  0.4704  -24.1754
  0.4736  -23.7324
  0.4768  -23.3254
  0.4800  -22.9784
  0.4832  -22.7104
  0.4864  -22.5164
  0.4896  -22.3834
  0.4928  -22.2894
  0.4960  -22.1644
  0.4992  -21.9914
  0.5024  -21.8074
  0.5056  -21.6904
  0.5088  -21.6274
  0.5120  -21.5354
  0.5152  -21.3414
  0.5184  -21.0514
  0.5216  -20.7434
  0.5248  -20.4704
  0.5280  -20.1854
  0.5312  -19.8184
  0.5344  -19.3484
  0.5376  -18.7664
  0.5408  -18.1044
  0.5440  -17.3834
  0.5472  -16.6214
  0.5504  -15.8634
  0.5536  -15.1104
  0.5568  -14.3364
  0.5600  -13.4984
  0.5632  -12.6384
  0.5664  -11.8344
  0.5696  -11.1284
  0.5728  -10.5264
  0.5760   -9.9894
  0.5792   -9.4784
  0.5824   -8.9854
  0.5856   -8.5194
  0.5888   -8.1054
  0.5920   -7.7424
  0.5952   -7.4434
  0.5984   -7.2084
  0.6016   -7.0334
  0.6048   -6.9144
  0.6080   -6.8184
  0.6112   -6.7204
  0.6144   -6.6224
  0.6176   -6.5184
  0.6208   -6.4514
  0.6240   -6.4244
  0.6272   -6.4364
  0.6304   -6.4684
  0.6336   -6.4974
  0.6368   -6.5064
  0.6400   -6.5024
  0.6432   -6.4824
  0.6464   -6.4364
  0.6496   -6.3804
  0.6528   -6.3274
  0.6560   -6.2824
  0.6592   -6.2644
  0.6624   -6.2494
  0.6656   -6.2034
  0.6688   -6.1164
  0.6720   -5.9864
  0.6752   -5.8274
  0.6784   -5.6634
  0.6816   -5.5174
  0.6848   -5.3834
  0.6880   -5.2524
  0.6912   -5.1014
  0.6944   -4.9304
  0.6976   -4.7524
  0.7008   -4.5864
  0.7040   -4.4374
  0.7072   -4.2924
  0.7104   -4.1514
  0.7136   -4.0154
  0.7168   -3.8894
  0.7200   -3.7894
  0.7232   -3.7024
  0.7264   -3.6164
  0.7296   -3.5204
  0.7328   -3.4174
  0.7360   -3.3234
  0.7392   -3.2454
  0.7424   -3.1994
  0.7456   -3.1854
  0.7488   -3.1764
  0.7520   -3.1434
  0.7552   -3.0774
  0.7584   -2.9974
  0.7616   -2.9174
  0.7648   -2.8494
  0.7680   -2.7924
  0.7712   -2.7464
  0.7744   -2.6954
  0.7776   -2.6454
  0.7808   -2.5894
  0.7840   -2.5194
  0.7872   -2.4494
  0.7904   -2.3644
  0.7936   -2.2864
  0.7968   -2.2134
  0.8000   -2.1434
  0.8032   -2.0614
  0.8064   -1.9674
  0.8096   -1.8554
  0.8128   -1.7224
  0.8160   -1.5784
  0.8192   -1.4484
  0.8224   -1.3504
  0.8256   -1.2774
  0.8288   -1.2114
  0.8320   -1.1254
  0.8352   -0.9844
  0.8384   -0.8054
  0.8416   -0.6054
  0.8448   -0.4224
  0.8480   -0.2794
  0.8512   -0.1794
  0.8544   -0.1004
  0.8576   -0.0174
  0.8608    0.0776
  0.8640    0.1906
  0.8672    0.3056
  0.8704    0.4066
  0.8736    0.4856
  0.8768    0.5416
  0.8800    0.5896
  0.8832    0.6406
  0.8864    0.6836
  0.8896    0.7116
  0.8928    0.7206
  0.8960    0.7256
  0.8992    0.7316
  0.9024    0.7426
  0.9056    0.7626
  0.9088    0.7746
  0.9120    0.7656
  0.9152    0.7306
  0.9184    0.6896
  0.9216    0.6546
  0.9248    0.6446
  0.9280    0.6496
  0.9312    0.6666
  0.9344    0.6736
  0.9376    0.6656
  0.9408    0.6406
  0.9440    0.6066
  0.9472    0.5696
  0.9504    0.5226
  0.9536    0.4776
  0.9568    0.4366
  0.9600    0.4036
  0.9632    0.3846
  0.9664    0.3786
  0.9696    0.3906
  0.9728    0.4196
  0.9760    0.4416
  0.9792    0.4436
  0.9824    0.3916
  0.9856    0.2956
  0.9888    0.1856
  0.9920    0.1036
  0.9952    0.0836
  0.9984    0.1086
  1.0016    0.1696
  1.0048    0.2346
  1.0080    0.2986
  1.0112    0.3256
  1.0144    0.2956
  1.0176    0.2026
  1.0208    0.0986
  1.0240    0.0336
  1.0272    0.0276
  1.0304    0.0746
  1.0336    0.1316
  1.0368    0.1646
  1.0400    0.1616
  1.0432    0.1436
  1.0464    0.1246
  1.0496    0.1116
  1.0528    0.1136
  1.0560    0.1266
  1.0592    0.1456
  1.0624    0.1546
  1.0656    0.1446
  1.0688    0.1266
  1.0720    0.1206
  1.0752    0.1426
  1.0784    0.2036
  1.0816    0.2826
  1.0848    0.3476
  1.0880    0.3816
  1.0912    0.3886
  1.0944    0.3776
  1.0976    0.3776
  1.1008    0.4046
  1.1040    0.4596
  1.1072    0.5206
  1.1104    0.5696
  1.1136    0.6046
  1.1168    0.6276
  1.1200    0.6606
  1.1232    0.7026
  1.1264    0.7386
  1.1296    0.7336
  1.1328    0.6856
  1.1360    0.6006
  1.1392    0.5336
  1.1424    0.5326
  1.1456    0.6186
  1.1488    0.7406
  1.1520    0.8546
  1.1552    0.9226
  1.1584    0.9506
  1.1616    0.9456
  1.1648    0.9186
  1.1680    0.8806
  1.1712    0.8486
  1.1744    0.8266
  1.1776    0.8236
  1.1808    0.8146
  1.1840    0.7956
  1.1872    0.7786
  1.1904    0.7716
  1.1936    0.7836
  1.1968    0.8016
  1.2000    0.8126
  1.2032    0.8066
  1.2064    0.7796
  1.2096    0.7436
  1.2128    0.7006
  1.2160    0.6546
  1.2192    0.6226
  1.2224    0.6386
  1.2256    0.7066
  1.2288    0.7996
  1.2320    0.8706
  1.2352    0.8756
  1.2384    0.8036
  1.2416    0.6836
  1.2448    0.5706
  1.2480    0.4996
  1.2512    0.4836
  1.2544    0.4876
  1.2576    0.4926
  1.2608    0.4926
  1.2640    0.5016
  1.2672    0.5186
  1.2704    0.5186
  1.2736    0.4896
  1.2768    0.4336
  1.2800    0.3816
  1.2832    0.3466
  1.2864    0.3336
  1.2896    0.3186
  1.2928    0.3026
  1.2960    0.2776
  1.2992    0.2606
  1.3024    0.2316
  1.3056    0.1916
  1.3088    0.1366
  1.3120    0.0716
  1.3152    0.0146
  1.3184   -0.0174
  1.3216   -0.0174
  1.3248    0.0176
  1.3280    0.0646
  1.3312    0.1026
  1.3344    0.1206
  1.3376    0.1076
  1.3408    0.0706
  1.3440    0.0336
  1.3472    0.0146
  1.3504    0.0166
  1.3536    0.0406
  1.3568    0.0706
  1.3600    0.0866
  1.3632    0.0986
  1.3664    0.1056
  1.3696    0.1166
  1.3728    0.1276
  1.3760    0.1356
  1.3792    0.1386
  1.3824    0.1416
  1.3856    0.1346
  1.3888    0.1196
  1.3920    0.0886
  1.3952    0.0386
  1.3984    0.0036
  1.4016    0.0096
  1.4048    0.0456
  1.4080    0.0806
  1.4112    0.0896
  1.4144    0.0706
  1.4176    0.0336
  1.4208   -0.0104
  1.4240   -0.0524
  1.4272   -0.0714
  1.4304   -0.0644
  1.4336   -0.0254
  1.4368    0.0446
  1.4400    0.1136
  1.4432    0.1656
  1.4464    0.1796
  1.4496    0.1496
  1.4528    0.0916
  1.4560    0.0436
  1.4592    0.0116
  1.4624    0.0106
  1.4656    0.0336
  1.4688    0.0666
  1.4720    0.0916
  1.4752    0.1046
  1.4784    0.0826
  1.4816    0.0286
  1.4848   -0.0284
  1.4880   -0.0624
  1.4912   -0.0624
  1.4944   -0.0424
  1.4976   -0.0294
  1.5008   -0.0304
  1.5040   -0.0284
  1.5072   -0.0014
  1.5104    0.0466
  1.5136    0.1056
  1.5168    0.1356
  1.5200    0.1196
  1.5232    0.0776
  1.5264    0.0386
  1.5296    0.0186
  1.5328   -0.0154
  1.5360   -0.0754
  1.5392   -0.1164
  1.5424   -0.0724
  1.5456    0.0496
  1.5488    0.1696
  1.5520    0.1806
  1.5552    0.0666
  1.5584   -0.0734
  1.5616   -0.1234
  1.5648   -0.1104
  1.5680   -0.1094
  1.5712   -0.1314
  1.5744   -0.1194
  1.5776   -0.0624
  1.5808   -0.0064
  1.5840   -0.0064
  1.5872   -0.0654
  1.5904   -0.1414
  1.5936   -0.1894
  1.5968   -0.1924
  1.6000   -0.1724
