# z (nm)   (kJ/mol)
  0.1010    6.78400
  0.1050    5.81700
  0.1070    5.28400
  0.1090    4.74200
  0.1110    4.19400
  0.1130    3.64100
  0.1150    3.09500
  0.1170    2.55800
  0.1190    2.02900
  0.1210    1.49800
  0.1230    0.96100
  0.1250    0.43300
  0.1270   -0.09100
  0.1290   -0.61000
  0.1310   -1.12600
  0.1330   -1.63500
  0.1350   -2.13200
  0.1370   -2.62100
  0.1390   -3.10300
  0.1410   -3.57400
  0.1430   -4.03300
  0.1450   -4.48300
  0.1470   -4.92300
  0.1490   -5.35100
  0.1510   -5.76700
  0.1530   -6.17200
  0.1550   -6.56000
  0.1570   -6.93500
  0.1590   -7.29500
  0.1610   -7.64100
  0.1630   -7.97500
  0.1650   -8.29400
  0.1670   -8.59700
  0.1690   -8.88500
  0.1710   -9.15700
  0.1730   -9.41600
  0.1750   -9.66100
  0.1770   -9.88900
  0.1790  -10.10100
  0.1810  -10.29800
  0.1830  -10.48100
  0.1850  -10.64700
  0.1870  -10.79800
  0.1890  -10.93400
  0.1910  -11.05500
  0.1930  -11.16200
  0.1950  -11.25500
  0.1970  -11.33400
  0.1990  -11.39900
  0.2010  -11.45000
  0.2030  -11.48700
  0.2050  -11.51300
  0.2070  -11.52600
  0.2090  -11.52900
  0.2110  -11.51900
  0.2130  -11.49800
  0.2150  -11.46700
  0.2170  -11.42600
  0.2190  -11.37700
  0.2210  -11.31900
  0.2230  -11.25200
  0.2250  -11.17700
  0.2270  -11.09400
  0.2290  -11.00700
  0.2310  -10.91400
  0.2330  -10.81400
  0.2350  -10.71000
  0.2370  -10.60200
  0.2390  -10.49000
  0.2410  -10.37600
  0.2430  -10.25800
  0.2450  -10.13600
  0.2470  -10.01200
  0.2490   -9.88600
  0.2510   -9.75900
  0.2530   -9.63100
  0.2550   -9.50200
  0.2570   -9.37300
  0.2590   -9.24300
  0.2610   -9.11400
  0.2630   -8.98400
  0.2650   -8.85500
  0.2670   -8.72600
  0.2690   -8.59800
  0.2710   -8.47100
  0.2730   -8.34500
  0.2750   -8.22000
  0.2770   -8.09500
  0.2790   -7.97200
  0.2810   -7.85000
  0.2830   -7.72900
  0.2850   -7.60900
  0.2870   -7.49100
  0.2890   -7.37400
  0.2910   -7.25900
  0.2930   -7.14400
  0.2950   -7.03100
  0.2970   -6.91800
  0.2990   -6.80700
  0.3010   -6.69700
  0.3030   -6.58800
  0.3050   -6.48000
  0.3070   -6.37300
  0.3090   -6.26700
  0.3110   -6.16100
  0.3130   -6.05600
  0.3150   -5.95200
  0.3170   -5.84900
  0.3190   -5.74500
  0.3210   -5.64300
  0.3230   -5.54100
  0.3250   -5.44000
  0.3270   -5.33900
  0.3290   -5.23800
  0.3310   -5.13700
  0.3330   -5.03700
  0.3350   -4.93700
  0.3370   -4.83700
  0.3390   -4.73700
  0.3410   -4.63800
  0.3430   -4.53800
  0.3450   -4.43900
  0.3470   -4.33900
  0.3490   -4.23900
  0.3510   -4.14000
  0.3530   -4.04000
  0.3550   -3.94000
  0.3570   -3.84000
  0.3590   -3.74000
  0.3610   -3.64000
  0.3630   -3.53900
  0.3650   -3.43800
  0.3670   -3.33800
  0.3690   -3.23800
  0.3710   -3.13700
  0.3730   -3.03700
  0.3750   -2.93600
  0.3770   -2.83600
  0.3790   -2.73600
  0.3810   -2.63600
  0.3830   -2.53600
  0.3850   -2.43700
  0.3870   -2.33800
  0.3890   -2.23900
  0.3910   -2.14000
  0.3930   -2.04200
  0.3950   -1.94300
  0.3970   -1.84600
  0.3990   -1.74900
  0.4010   -1.65300
  0.4030   -1.55800
  0.4050   -1.46300
  0.4070   -1.37000
  0.4090   -1.27800
  0.4110   -1.18600
  0.4130   -1.09600
  0.4150   -1.00600
  0.4170   -0.91800
  0.4190   -0.83100
  0.4210   -0.74700
  0.4230   -0.66400
  0.4250   -0.58400
  0.4270   -0.50500
  0.4290   -0.42700
  0.4310   -0.35100
  0.4330   -0.27700
  0.4350   -0.20500
  0.4370   -0.13500
  0.4390   -0.06800
  0.4410   -0.00200
  0.4430    0.06100
  0.4450    0.12100
  0.4470    0.17800
  0.4490    0.23300
  0.4510    0.28500
  0.4530    0.33500
  0.4550    0.38200
  0.4570    0.42600
  0.4590    0.46700
  0.4610    0.50500
  0.4630    0.54000
  0.4650    0.57200
  0.4670    0.60200
  0.4690    0.62800
  0.4710    0.65100
  0.4730    0.67200
  0.4750    0.68900
  0.4770    0.70400
  0.4790    0.71500
  0.4810    0.72400
  0.4830    0.73000
  0.4850    0.73300
  0.4870    0.73300
  0.4890    0.73100
  0.4910    0.72600
  0.4930    0.71900
  0.4950    0.70900
  0.4970    0.69700
  0.4990    0.68200
  0.5010    0.66600
  0.5030    0.64700
  0.5050    0.62600
  0.5070    0.60400
  0.5090    0.57900
  0.5110    0.55300
  0.5130    0.52600
  0.5150    0.49700
  0.5170    0.46500
  0.5190    0.43300
  0.5210    0.40100
  0.5230    0.36700
  0.5250    0.33300
  0.5270    0.29900
  0.5290    0.26300
  0.5310    0.22700
  0.5330    0.19100
  0.5350    0.15400
  0.5370    0.11700
  0.5390    0.08000
  0.5410    0.04300
  0.5430    0.00600
  0.5450   -0.03100
  0.5470   -0.06700
  0.5490   -0.10200
  0.5510   -0.13700
  0.5530   -0.17100
  0.5550   -0.20500
  0.5570   -0.23800
  0.5590   -0.27100
  0.5610   -0.30300
  0.5630   -0.33300
  0.5650   -0.36300
  0.5670   -0.39200
  0.5690   -0.41900
  0.5710   -0.44500
  0.5730   -0.47000
  0.5750   -0.49400
  0.5770   -0.51800
  0.5790   -0.53900
  0.5810   -0.56000
  0.5830   -0.57900
  0.5850   -0.59700
  0.5870   -0.61400
  0.5890   -0.62900
  0.5910   -0.64400
  0.5930   -0.65700
  0.5950   -0.66800
  0.5970   -0.67900
  0.5990   -0.68800
  0.6010   -0.69700
  0.6030   -0.70400
  0.6050   -0.70900
  0.6070   -0.71400
  0.6090   -0.71800
  0.6110   -0.72000
  0.6130   -0.72200
  0.6150   -0.72200
  0.6170   -0.72100
  0.6190   -0.72000
  0.6210   -0.71700
  0.6230   -0.71300
  0.6250   -0.70900
  0.6270   -0.70300
  0.6290   -0.69700
  0.6310   -0.68900
  0.6330   -0.68100
  0.6350   -0.67200
  0.6370   -0.66200
  0.6390   -0.65200
  0.6410   -0.64100
  0.6430   -0.62900
  0.6450   -0.61700
  0.6470   -0.60400
  0.6490   -0.59000
  0.6510   -0.57600
  0.6530   -0.56100
  0.6550   -0.54600
  0.6570   -0.53000
  0.6590   -0.51400
  0.6610   -0.49700
  0.6630   -0.48000
  0.6650   -0.46200
  0.6670   -0.44500
  0.6690   -0.42700
  0.6710   -0.40800
  0.6730   -0.39000
  0.6750   -0.37100
  0.6770   -0.35200
  0.6790   -0.33300
  0.6810   -0.31400
  0.6830   -0.29500
  0.6850   -0.27500
  0.6870   -0.25600
  0.6890   -0.23700
  0.6910   -0.21700
  0.6930   -0.19800
  0.6950   -0.17900
  0.6970   -0.16000
  0.6990   -0.14100
  0.7010   -0.12300
  0.7030   -0.10400
  0.7050   -0.08600
  0.7070   -0.06800
  0.7090   -0.05000
  0.7110   -0.03300
  0.7130   -0.01500
  0.7150    0.00200
  0.7170    0.01800
  0.7190    0.03400
  0.7210    0.05000
  0.7230    0.06600
  0.7250    0.08000
  0.7270    0.09500
  0.7290    0.10900
  0.7310    0.12300
  0.7330    0.13600
  0.7350    0.14900
  0.7370    0.16100
  0.7390    0.17300
  0.7410    0.18400
  0.7430    0.19400
  0.7450    0.20500
  0.7470    0.21400
  0.7490    0.22300
  0.7510    0.23200
  0.7530    0.24000
  0.7550    0.24700
  0.7570    0.25400
  0.7590    0.26100
  0.7610    0.26700
  0.7630    0.27200
  0.7650    0.27700
  0.7670    0.28100
  0.7690    0.28500
  0.7710    0.28800
  0.7730    0.29100
  0.7750    0.29300
  0.7770    0.29500
  0.7790    0.29600
  0.7810    0.29600
  0.7830    0.29700
  0.7850    0.29600
  0.7870    0.29500
  0.7890    0.29400
  0.7910    0.29200
  0.7930    0.29000
  0.7950    0.28800
  0.7970    0.28400
  0.7990    0.28100
  0.8010    0.27700
  0.8030    0.27300
  0.8050    0.26800
  0.8070    0.26300
  0.8090    0.25800
  0.8110    0.25200
  0.8130    0.24600
  0.8150    0.24000
  0.8170    0.23300
  0.8190    0.22700
  0.8210    0.22000
  0.8230    0.21200
  0.8250    0.20500
  0.8270    0.19700
  0.8290    0.18900
  0.8310    0.18100
  0.8330    0.17300
  0.8350    0.16500
  0.8370    0.15600
  0.8390    0.14800
  0.8410    0.14000
  0.8430    0.13100
  0.8450    0.12300
  0.8470    0.11500
  0.8490    0.10600
  0.8510    0.09700
  0.8530    0.08900
  0.8550    0.08000
  0.8570    0.07200
  0.8590    0.06400
  0.8610    0.05500
  0.8630    0.04700
  0.8650    0.03900
  0.8670    0.03200
  0.8690    0.02400
  0.8710    0.01700
  0.8730    0.00900
  0.8750    0.00200
  0.8770   -0.00500
  0.8790   -0.01200
  0.8810   -0.01900
  0.8830   -0.02600
  0.8850   -0.03200
  0.8870   -0.03900
  0.8890   -0.04400
  0.8910   -0.05000
  0.8930   -0.05600
  0.8950   -0.06100
  0.8970   -0.06600
  0.8990   -0.07100
  0.9010   -0.07600
  0.9030   -0.08000
  0.9050   -0.08500
  0.9070   -0.08900
  0.9090   -0.09300
  0.9110   -0.09600
  0.9130   -0.10000
  0.9150   -0.10300
  0.9170   -0.10600
  0.9190   -0.10800
  0.9210   -0.11000
  0.9230   -0.11300
  0.9250   -0.11400
  0.9270   -0.11600
  0.9290   -0.11800
  0.9310   -0.11900
  0.9330   -0.12000
  0.9350   -0.12000
  0.9370   -0.12100
  0.9390   -0.12100
  0.9410   -0.12100
  0.9430   -0.12100
  0.9450   -0.12100
  0.9470   -0.12000
  0.9490   -0.11900
  0.9510   -0.11800
  0.9530   -0.11700
  0.9550   -0.11600
  0.9570   -0.11400
  0.9590   -0.11200
  0.9610   -0.11000
  0.9630   -0.10800
  0.9650   -0.10600
  0.9670   -0.10300
  0.9690   -0.10100
  0.9710   -0.09800
  0.9730   -0.09500
  0.9750   -0.09200
  0.9770   -0.08800
  0.9790   -0.08500
  0.9810   -0.08200
  0.9830   -0.07800
  0.9850   -0.07400
  0.9870   -0.07000
  0.9890   -0.06600
  0.9910   -0.06200
  0.9930   -0.05800
  0.9950   -0.05400
  0.9970   -0.05000
  0.9990   -0.04500
  1.0010   -0.04100
  1.0030   -0.03700
  1.0050   -0.03300
  1.0070   -0.02800
  1.0090   -0.02400
  1.0110   -0.01900
  1.0130   -0.01500
  1.0150   -0.01100
  1.0170   -0.00600
  1.0190   -0.00200
  1.0210    0.00200
  1.0230    0.00600
  1.0250    0.01100
  1.0270    0.01500
  1.0290    0.01900
  1.0310    0.02300
  1.0330    0.02600
  1.0350    0.03000
  1.0370    0.03300
  1.0390    0.03700
  1.0410    0.04000
  1.0430    0.04300
  1.0450    0.04600
  1.0470    0.04900
  1.0490    0.05200
  1.0510    0.05400
  1.0530    0.05600
  1.0550    0.05900
  1.0570    0.06100
  1.0590    0.06300
  1.0610    0.06400
  1.0630    0.06600
  1.0650    0.06700
  1.0670    0.06900
  1.0690    0.07000
  1.0710    0.07100
  1.0730    0.07100
  1.0750    0.07200
  1.0770    0.07200
  1.0790    0.07300
  1.0810    0.07300
  1.0830    0.07300
  1.0850    0.07300
  1.0870    0.07300
  1.0890    0.07200
  1.0910    0.07200
  1.0930    0.07100
  1.0950    0.07100
  1.0970    0.07000
  1.0990    0.06900
  1.1010    0.06800
  1.1030    0.06700
  1.1050    0.06600
  1.1070    0.06500
  1.1090    0.06400
  1.1110    0.06200
  1.1130    0.06100
  1.1150    0.06000
  1.1170    0.05800
  1.1190    0.05600
  1.1210    0.05500
  1.1230    0.05300
  1.1250    0.05200
  1.1270    0.05000
  1.1290    0.04800
  1.1310    0.04600
  1.1330    0.04500
  1.1350    0.04300
  1.1370    0.04100
  1.1390    0.03900
  1.1410    0.03700
  1.1430    0.03600
  1.1450    0.03400
  1.1470    0.03200
  1.1490    0.03000
  1.1510    0.02800
  1.1530    0.02600
  1.1550    0.02500
  1.1570    0.02300
  1.1590    0.02100
  1.1610    0.01900
  1.1630    0.01800
  1.1650    0.01600
  1.1670    0.01400
  1.1690    0.01200
  1.1710    0.01000
  1.1730    0.00900
  1.1750    0.00700
  1.1770    0.00500
  1.1790    0.00300
  1.1810    0.00200
  1.1830    0.00000
  1.1850   -0.00100
  1.1870   -0.00300
  1.1890   -0.00400
  1.1910   -0.00500
  1.1930   -0.00700
  1.1950   -0.00800
  1.1970   -0.00900
  1.1990   -0.01000
  1.2010   -0.01100
  1.2030   -0.01300
  1.2050   -0.01300
  1.2070   -0.01400
  1.2090   -0.01500
  1.2110   -0.01600
  1.2130   -0.01700
  1.2150   -0.01700
  1.2170   -0.01700
  1.2190   -0.01800
  1.2210   -0.01800
  1.2230   -0.01800
  1.2250   -0.01800
  1.2270   -0.01900
  1.2290   -0.01900
  1.2310   -0.01800
  1.2330   -0.01800
  1.2350   -0.01800
  1.2370   -0.01800
  1.2390   -0.01700
  1.2410   -0.01700
  1.2430   -0.01600
  1.2450   -0.01600
  1.2470   -0.01500
  1.2490   -0.01400
  1.2510   -0.01400
  1.2530   -0.01300
  1.2550   -0.01200
  1.2570   -0.01100
  1.2590   -0.01100
  1.2610   -0.01000
  1.2630   -0.00900
  1.2650   -0.00800
  1.2670   -0.00700
  1.2690   -0.00700
  1.2710   -0.00600
  1.2730   -0.00500
  1.2750   -0.00500
  1.2770   -0.00400
  1.2790   -0.00400
  1.2810   -0.00300
  1.2830   -0.00200
  1.2850   -0.00200
  1.2870   -0.00100
  1.2890   -0.00100
  1.2910   -0.00100
  1.2930    0.00000
  1.2950    0.00000
  1.2970    0.00100
  1.2990    0.00100
  1.3010    0.00100
  1.3030    0.00200
  1.3050    0.00200
  1.3070    0.00200
  1.3090    0.00200
  1.3110    0.00200
  1.3130    0.00300
  1.3150    0.00300
  1.3170    0.00300
  1.3190    0.00300
  1.3210    0.00400
  1.3230    0.00400
  1.3250    0.00400
  1.3270    0.00400
  1.3290    0.00500
  1.3310    0.00500
  1.3330    0.00600
  1.3350    0.00600
  1.3370    0.00700
  1.3390    0.00700
  1.3410    0.00700
  1.3430    0.00800
  1.3450    0.00900
  1.3470    0.00900
  1.3490    0.01000
  1.3510    0.01100
  1.3530    0.01200
  1.3550    0.01200
  1.3570    0.01300
  1.3590    0.01400
  1.3610    0.01500
  1.3630    0.01500
  1.3650    0.01600
  1.3670    0.01700
  1.3690    0.01800
  1.3710    0.01800
  1.3730    0.01900
  1.3750    0.02000
  1.3770    0.02000
  1.3790    0.02100
  1.3810    0.02100
  1.3830    0.02200
  1.3850    0.02200
  1.3870    0.02200
  1.3890    0.02100
  1.3910    0.02100
  1.3930    0.02000
  1.3950    0.01900
  1.3970    0.01700
  1.3990    0.01500
