# z (nm)   (kJ/mol)
  0.1350   -0.55700
  0.1370   -1.25700
  0.1390   -1.95900
  0.1410   -2.69300
  0.1430   -3.42400
  0.1450   -4.13900
  0.1470   -4.86000
  0.1490   -5.57400
  0.1510   -6.27900
  0.1530   -6.98800
  0.1550   -7.69600
  0.1570   -8.39300
  0.1590   -9.07700
  0.1610   -9.75100
  0.1630  -10.42000
  0.1650  -11.07500
  0.1670  -11.71000
  0.1690  -12.32900
  0.1710  -12.92800
  0.1730  -13.50800
  0.1750  -14.07100
  0.1770  -14.61500
  0.1790  -15.13800
  0.1810  -15.64400
  0.1830  -16.13200
  0.1850  -16.59900
  0.1870  -17.04400
  0.1890  -17.46400
  0.1910  -17.86100
  0.1930  -18.23700
  0.1950  -18.58900
  0.1970  -18.91600
  0.1990  -19.21900
  0.2010  -19.50000
  0.2030  -19.75600
  0.2050  -19.98800
  0.2070  -20.19600
  0.2090  -20.38100
  0.2110  -20.54100
  0.2130  -20.67700
  0.2150  -20.79000
  0.2170  -20.88000
  0.2190  -20.94800
  0.2210  -20.99300
  0.2230  -21.01700
  0.2250  -21.01900
  0.2270  -21.00100
  0.2290  -20.96400
  0.2310  -20.90800
  0.2330  -20.83400
  0.2350  -20.74300
  0.2370  -20.63500
  0.2390  -20.51200
  0.2410  -20.37600
  0.2430  -20.22600
  0.2450  -20.06400
  0.2470  -19.89400
  0.2490  -19.71400
  0.2510  -19.52300
  0.2530  -19.32300
  0.2550  -19.11700
  0.2570  -18.90400
  0.2590  -18.68600
  0.2610  -18.46500
  0.2630  -18.23900
  0.2650  -18.01000
  0.2670  -17.78100
  0.2690  -17.54900
  0.2710  -17.31800
  0.2730  -17.08600
  0.2750  -16.85600
  0.2770  -16.62600
  0.2790  -16.39900
  0.2810  -16.17400
  0.2830  -15.95200
  0.2850  -15.73200
  0.2870  -15.51500
  0.2890  -15.30200
  0.2910  -15.09200
  0.2930  -14.88600
  0.2950  -14.68300
  0.2970  -14.48500
  0.2990  -14.29000
  0.3010  -14.09900
  0.3030  -13.91100
  0.3050  -13.72600
  0.3070  -13.54600
  0.3090  -13.36900
  0.3110  -13.19500
  0.3130  -13.02300
  0.3150  -12.85400
  0.3170  -12.68900
  0.3190  -12.52700
  0.3210  -12.36700
  0.3230  -12.21000
  0.3250  -12.05500
  0.3270  -11.90100
  0.3290  -11.74800
  0.3310  -11.59800
  0.3330  -11.44800
  0.3350  -11.30000
  0.3370  -11.15300
  0.3390  -11.00600
  0.3410  -10.86100
  0.3430  -10.71500
  0.3450  -10.57100
  0.3470  -10.42600
  0.3490  -10.28200
  0.3510  -10.13900
  0.3530   -9.99500
  0.3550   -9.85200
  0.3570   -9.70900
  0.3590   -9.56500
  0.3610   -9.42200
  0.3630   -9.27900
  0.3650   -9.13600
  0.3670   -8.99300
  0.3690   -8.85000
  0.3710   -8.70700
  0.3730   -8.56500
  0.3750   -8.42200
  0.3770   -8.28000
  0.3790   -8.13800
  0.3810   -7.99600
  0.3830   -7.85500
  0.3850   -7.71400
  0.3870   -7.57300
  0.3890   -7.43300
  0.3910   -7.29300
  0.3930   -7.15400
  0.3950   -7.01600
  0.3970   -6.87900
  0.3990   -6.74300
  0.4010   -6.60700
  0.4030   -6.47300
  0.4050   -6.33900
  0.4070   -6.20600
  0.4090   -6.07400
  0.4110   -5.94400
  0.4130   -5.81400
  0.4150   -5.68600
  0.4170   -5.56000
  0.4190   -5.43500
  0.4210   -5.31100
  0.4230   -5.18800
  0.4250   -5.06700
  0.4270   -4.94800
  0.4290   -4.82900
  0.4310   -4.71300
  0.4330   -4.59800
  0.4350   -4.48400
  0.4370   -4.37100
  0.4390   -4.26000
  0.4410   -4.15100
  0.4430   -4.04300
  0.4450   -3.93600
  0.4470   -3.83200
  0.4490   -3.72900
  0.4510   -3.62800
  0.4530   -3.52800
  0.4550   -3.42900
  0.4570   -3.33200
  0.4590   -3.23700
  0.4610   -3.14200
  0.4630   -3.05000
  0.4650   -2.95900
  0.4670   -2.87000
  0.4690   -2.78300
  0.4710   -2.69700
  0.4730   -2.61200
  0.4750   -2.52900
  0.4770   -2.44800
  0.4790   -2.36800
  0.4810   -2.29000
  0.4830   -2.21400
  0.4850   -2.14000
  0.4870   -2.06700
  0.4890   -1.99600
  0.4910   -1.92700
  0.4930   -1.86000
  0.4950   -1.79400
  0.4970   -1.73000
  0.4990   -1.66900
  0.5010   -1.60900
  0.5030   -1.55200
  0.5050   -1.49600
  0.5070   -1.44200
  0.5090   -1.39000
  0.5110   -1.34000
  0.5130   -1.29300
  0.5150   -1.24800
  0.5170   -1.20500
  0.5190   -1.16400
  0.5210   -1.12400
  0.5230   -1.08800
  0.5250   -1.05300
  0.5270   -1.02100
  0.5290   -0.99100
  0.5310   -0.96300
  0.5330   -0.93700
  0.5350   -0.91300
  0.5370   -0.89100
  0.5390   -0.87200
  0.5410   -0.85400
  0.5430   -0.83700
  0.5450   -0.82300
  0.5470   -0.81200
  0.5490   -0.80200
  0.5510   -0.79300
  0.5530   -0.78700
  0.5550   -0.78200
  0.5570   -0.77900
  0.5590   -0.77700
  0.5610   -0.77600
  0.5630   -0.77700
  0.5650   -0.78000
  0.5670   -0.78300
  0.5690   -0.78800
  0.5710   -0.79400
  0.5730   -0.80000
  0.5750   -0.80800
  0.5770   -0.81700
  0.5790   -0.82600
  0.5810   -0.83600
  0.5830   -0.84700
  0.5850   -0.85800
  0.5870   -0.87000
  0.5890   -0.88200
  0.5910   -0.89500
  0.5930   -0.90700
  0.5950   -0.92100
  0.5970   -0.93400
  0.5990   -0.94700
  0.6010   -0.96100
  0.6030   -0.97400
  0.6050   -0.98700
  0.6070   -1.00000
  0.6090   -1.01300
  0.6110   -1.02600
  0.6130   -1.03800
  0.6150   -1.05000
  0.6170   -1.06100
  0.6190   -1.07200
  0.6210   -1.08300
  0.6230   -1.09300
  0.6250   -1.10300
  0.6270   -1.11200
  0.6290   -1.12100
  0.6310   -1.12900
  0.6330   -1.13700
  0.6350   -1.14400
  0.6370   -1.15000
  0.6390   -1.15600
  0.6410   -1.16100
  0.6430   -1.16600
  0.6450   -1.16900
  0.6470   -1.17300
  0.6490   -1.17500
  0.6510   -1.17700
  0.6530   -1.17900
  0.6550   -1.17900
  0.6570   -1.18000
  0.6590   -1.17900
  0.6610   -1.17800
  0.6630   -1.17600
  0.6650   -1.17400
  0.6670   -1.17100
  0.6690   -1.16800
  0.6710   -1.16400
  0.6730   -1.15900
  0.6750   -1.15400
  0.6770   -1.14800
  0.6790   -1.14200
  0.6810   -1.13600
  0.6830   -1.12900
  0.6850   -1.12100
  0.6870   -1.11300
  0.6890   -1.10400
  0.6910   -1.09500
  0.6930   -1.08600
  0.6950   -1.07600
  0.6970   -1.06500
  0.6990   -1.05400
  0.7010   -1.04300
  0.7030   -1.03200
  0.7050   -1.02000
  0.7070   -1.00700
  0.7090   -0.99400
  0.7110   -0.98100
  0.7130   -0.96800
  0.7150   -0.95400
  0.7170   -0.94000
  0.7190   -0.92600
  0.7210   -0.91100
  0.7230   -0.89600
  0.7250   -0.88100
  0.7270   -0.86500
  0.7290   -0.85000
  0.7310   -0.83400
  0.7330   -0.81800
  0.7350   -0.80100
  0.7370   -0.78500
  0.7390   -0.76800
  0.7410   -0.75100
  0.7430   -0.73500
  0.7450   -0.71800
  0.7470   -0.70100
  0.7490   -0.68400
  0.7510   -0.66600
  0.7530   -0.64900
  0.7550   -0.63200
  0.7570   -0.61500
  0.7590   -0.59800
  0.7610   -0.58100
  0.7630   -0.56400
  0.7650   -0.54600
  0.7670   -0.53000
  0.7690   -0.51300
  0.7710   -0.49600
  0.7730   -0.48000
  0.7750   -0.46300
  0.7770   -0.44700
  0.7790   -0.43100
  0.7810   -0.41600
  0.7830   -0.40000
  0.7850   -0.38500
  0.7870   -0.37000
  0.7890   -0.35600
  0.7910   -0.34100
  0.7930   -0.32700
  0.7950   -0.31300
  0.7970   -0.30000
  0.7990   -0.28700
  0.8010   -0.27400
  0.8030   -0.26200
  0.8050   -0.25000
  0.8070   -0.23800
  0.8090   -0.22700
  0.8110   -0.21700
  0.8130   -0.20700
  0.8150   -0.19700
  0.8170   -0.18700
  0.8190   -0.17900
  0.8210   -0.17000
  0.8230   -0.16200
  0.8250   -0.15400
  0.8270   -0.14700
  0.8290   -0.14000
  0.8310   -0.13400
  0.8330   -0.12800
  0.8350   -0.12200
  0.8370   -0.11700
  0.8390   -0.11200
  0.8410   -0.10800
  0.8430   -0.10400
  0.8450   -0.10100
  0.8470   -0.09700
  0.8490   -0.09400
  0.8510   -0.09200
  0.8530   -0.09000
  0.8550   -0.08800
  0.8570   -0.08600
  0.8590   -0.08500
  0.8610   -0.08400
  0.8630   -0.08300
  0.8650   -0.08300
  0.8670   -0.08200
  0.8690   -0.08200
  0.8710   -0.08200
  0.8730   -0.08300
  0.8750   -0.08400
  0.8770   -0.08500
  0.8790   -0.08600
  0.8810   -0.08700
  0.8830   -0.08900
  0.8850   -0.09100
  0.8870   -0.09200
  0.8890   -0.09400
  0.8910   -0.09600
  0.8930   -0.09900
  0.8950   -0.10100
  0.8970   -0.10300
  0.8990   -0.10600
  0.9010   -0.10900
  0.9030   -0.11200
  0.9050   -0.11500
  0.9070   -0.11700
  0.9090   -0.12000
  0.9110   -0.12300
  0.9130   -0.12600
  0.9150   -0.13000
  0.9170   -0.13300
  0.9190   -0.13600
  0.9210   -0.13900
  0.9230   -0.14200
  0.9250   -0.14500
  0.9270   -0.14900
  0.9290   -0.15200
  0.9310   -0.15500
  0.9330   -0.15800
  0.9350   -0.16100
  0.9370   -0.16400
  0.9390   -0.16700
  0.9410   -0.17000
  0.9430   -0.17300
  0.9450   -0.17600
  0.9470   -0.17900
  0.9490   -0.18200
  0.9510   -0.18400
  0.9530   -0.18700
  0.9550   -0.18900
  0.9570   -0.19200
  0.9590   -0.19400
  0.9610   -0.19600
  0.9630   -0.19900
  0.9650   -0.20000
  0.9670   -0.20200
  0.9690   -0.20400
  0.9710   -0.20600
  0.9730   -0.20800
  0.9750   -0.21000
  0.9770   -0.21100
  0.9790   -0.21200
  0.9810   -0.21400
  0.9830   -0.21500
  0.9850   -0.21600
  0.9870   -0.21700
  0.9890   -0.21800
  0.9910   -0.21900
  0.9930   -0.21900
  0.9950   -0.22000
  0.9970   -0.22000
  0.9990   -0.22100
  1.0010   -0.22100
  1.0030   -0.22200
  1.0050   -0.22200
  1.0070   -0.22100
  1.0090   -0.22100
  1.0110   -0.22100
  1.0130   -0.22100
  1.0150   -0.22000
  1.0170   -0.22000
  1.0190   -0.21900
  1.0210   -0.21900
  1.0230   -0.21800
  1.0250   -0.21700
  1.0270   -0.21600
  1.0290   -0.21500
  1.0310   -0.21400
  1.0330   -0.21300
  1.0350   -0.21200
  1.0370   -0.21100
  1.0390   -0.21000
  1.0410   -0.20800
  1.0430   -0.20700
  1.0450   -0.20600
  1.0470   -0.20400
  1.0490   -0.20200
  1.0510   -0.20100
  1.0530   -0.19900
  1.0550   -0.19700
  1.0570   -0.19500
  1.0590   -0.19300
  1.0610   -0.19100
  1.0630   -0.18900
  1.0650   -0.18700
  1.0670   -0.18400
  1.0690   -0.18200
  1.0710   -0.18000
  1.0730   -0.17700
  1.0750   -0.17500
  1.0770   -0.17200
  1.0790   -0.16900
  1.0810   -0.16700
  1.0830   -0.16400
  1.0850   -0.16100
  1.0870   -0.15800
  1.0890   -0.15500
  1.0910   -0.15200
  1.0930   -0.14900
  1.0950   -0.14600
  1.0970   -0.14300
  1.0990   -0.14000
  1.1010   -0.13700
  1.1030   -0.13400
  1.1050   -0.13100
  1.1070   -0.12700
  1.1090   -0.12400
  1.1110   -0.12100
  1.1130   -0.11800
  1.1150   -0.11500
  1.1170   -0.11200
  1.1190   -0.10900
  1.1210   -0.10600
  1.1230   -0.10300
  1.1250   -0.10100
  1.1270   -0.09800
  1.1290   -0.09500
  1.1310   -0.09200
  1.1330   -0.09000
  1.1350   -0.08700
  1.1370   -0.08400
  1.1390   -0.08200
  1.1410   -0.07900
  1.1430   -0.07700
  1.1450   -0.07500
  1.1470   -0.07200
  1.1490   -0.07000
  1.1510   -0.06800
  1.1530   -0.06600
  1.1550   -0.06400
  1.1570   -0.06200
  1.1590   -0.06000
  1.1610   -0.05800
  1.1630   -0.05600
  1.1650   -0.05400
  1.1670   -0.05300
  1.1690   -0.05100
  1.1710   -0.04900
  1.1730   -0.04800
  1.1750   -0.04600
  1.1770   -0.04400
  1.1790   -0.04300
  1.1810   -0.04100
  1.1830   -0.04000
  1.1850   -0.03800
  1.1870   -0.03600
  1.1890   -0.03500
  1.1910   -0.03300
  1.1930   -0.03100
  1.1950   -0.03000
  1.1970   -0.02800
  1.1990   -0.02600
  1.2010   -0.02400
  1.2030   -0.02300
  1.2050   -0.02100
  1.2070   -0.01900
  1.2090   -0.01700
  1.2110   -0.01500
  1.2130   -0.01300
  1.2150   -0.01100
  1.2170   -0.00900
  1.2190   -0.00700
  1.2210   -0.00500
  1.2230   -0.00300
  1.2250   -0.00100
  1.2270    0.00100
  1.2290    0.00400
  1.2310    0.00600
  1.2330    0.00800
  1.2350    0.01000
  1.2370    0.01200
  1.2390    0.01400
  1.2410    0.01600
  1.2430    0.01800
  1.2450    0.02000
  1.2470    0.02200
  1.2490    0.02300
  1.2510    0.02500
  1.2530    0.02600
  1.2550    0.02800
  1.2570    0.02900
  1.2590    0.03000
  1.2610    0.03100
  1.2630    0.03200
  1.2650    0.03200
  1.2670    0.03300
  1.2690    0.03300
  1.2710    0.03300
  1.2730    0.03300
  1.2750    0.03300
  1.2770    0.03300
  1.2790    0.03300
  1.2810    0.03200
  1.2830    0.03100
  1.2850    0.03000
  1.2870    0.02900
  1.2890    0.02700
  1.2910    0.02600
  1.2930    0.02400
  1.2950    0.02200
  1.2970    0.02100
  1.2990    0.01900
  1.3010    0.01600
  1.3030    0.01400
  1.3050    0.01200
  1.3070    0.00900
  1.3090    0.00700
  1.3110    0.00500
  1.3130    0.00200
  1.3150    0.00000
  1.3170   -0.00300
  1.3190   -0.00500
  1.3210   -0.00700
  1.3230   -0.00900
  1.3250   -0.01200
  1.3270   -0.01400
  1.3290   -0.01600
  1.3310   -0.01700
  1.3330   -0.01900
  1.3350   -0.02100
  1.3370   -0.02200
  1.3390   -0.02400
  1.3410   -0.02500
  1.3430   -0.02600
  1.3450   -0.02700
  1.3470   -0.02700
  1.3490   -0.02800
  1.3510   -0.02800
  1.3530   -0.02800
  1.3550   -0.02800
  1.3570   -0.02800
  1.3590   -0.02800
  1.3610   -0.02700
  1.3630   -0.02700
  1.3650   -0.02500
  1.3670   -0.02400
  1.3690   -0.02300
  1.3710   -0.02200
  1.3730   -0.02000
  1.3750   -0.01900
  1.3770   -0.01800
  1.3790   -0.01700
  1.3810   -0.01500
  1.3830   -0.01400
  1.3850   -0.01300
  1.3870   -0.01100
  1.3890   -0.01000
  1.3910   -0.00900
  1.3930   -0.00800
  1.3950   -0.00800
  1.3970   -0.00800
  1.3990   -0.00800
