# z (nm)   (kJ/mol)
  0.1410    2.89800
  0.1430    2.33500
  0.1470    0.97400
  0.1490    0.31100
  0.1510   -0.34600
  0.1530   -0.98400
  0.1550   -1.62600
  0.1570   -2.27800
  0.1590   -2.92800
  0.1610   -3.58600
  0.1630   -4.25500
  0.1650   -4.90800
  0.1670   -5.55300
  0.1690   -6.19400
  0.1710   -6.82400
  0.1730   -7.45100
  0.1750   -8.06700
  0.1770   -8.66900
  0.1790   -9.25800
  0.1810   -9.83300
  0.1830  -10.39400
  0.1850  -10.94100
  0.1870  -11.47300
  0.1890  -11.98500
  0.1910  -12.48100
  0.1930  -12.95900
  0.1950  -13.41600
  0.1970  -13.85800
  0.1990  -14.28200
  0.2010  -14.68500
  0.2030  -15.06900
  0.2050  -15.43500
  0.2070  -15.78000
  0.2090  -16.10500
  0.2110  -16.41000
  0.2130  -16.69500
  0.2150  -16.95700
  0.2170  -17.19900
  0.2190  -17.42000
  0.2210  -17.62000
  0.2230  -17.79800
  0.2250  -17.95600
  0.2270  -18.09200
  0.2290  -18.20900
  0.2310  -18.30600
  0.2330  -18.38300
  0.2350  -18.44000
  0.2370  -18.47900
  0.2390  -18.49900
  0.2410  -18.50200
  0.2430  -18.48900
  0.2450  -18.45800
  0.2470  -18.41200
  0.2490  -18.35000
  0.2510  -18.27400
  0.2530  -18.18600
  0.2550  -18.08800
  0.2570  -17.97700
  0.2590  -17.85600
  0.2610  -17.72600
  0.2630  -17.58700
  0.2650  -17.44000
  0.2670  -17.28600
  0.2690  -17.12600
  0.2710  -16.96100
  0.2730  -16.79100
  0.2750  -16.61600
  0.2770  -16.43900
  0.2790  -16.26000
  0.2810  -16.07900
  0.2830  -15.89700
  0.2850  -15.71400
  0.2870  -15.53200
  0.2890  -15.35000
  0.2910  -15.17000
  0.2930  -14.99100
  0.2950  -14.81300
  0.2970  -14.63700
  0.2990  -14.46300
  0.3010  -14.29100
  0.3030  -14.12200
  0.3050  -13.95500
  0.3070  -13.79100
  0.3090  -13.63100
  0.3110  -13.47300
  0.3130  -13.31700
  0.3150  -13.16400
  0.3170  -13.01500
  0.3190  -12.86800
  0.3210  -12.72300
  0.3230  -12.58000
  0.3250  -12.44100
  0.3270  -12.30300
  0.3290  -12.16600
  0.3310  -12.03200
  0.3330  -11.90000
  0.3350  -11.76800
  0.3370  -11.63700
  0.3390  -11.50800
  0.3410  -11.38100
  0.3430  -11.25500
  0.3450  -11.12800
  0.3470  -11.00200
  0.3490  -10.87600
  0.3510  -10.75100
  0.3530  -10.62500
  0.3550  -10.49900
  0.3570  -10.37300
  0.3590  -10.24700
  0.3610  -10.12000
  0.3630   -9.99300
  0.3650   -9.86500
  0.3670   -9.73700
  0.3690   -9.60800
  0.3710   -9.47800
  0.3730   -9.34700
  0.3750   -9.21600
  0.3770   -9.08400
  0.3790   -8.95100
  0.3810   -8.81700
  0.3830   -8.68300
  0.3850   -8.54800
  0.3870   -8.41300
  0.3890   -8.27800
  0.3910   -8.14100
  0.3930   -8.00500
  0.3950   -7.86800
  0.3970   -7.73000
  0.3990   -7.59300
  0.4010   -7.45500
  0.4030   -7.31800
  0.4050   -7.18000
  0.4070   -7.04100
  0.4090   -6.90300
  0.4110   -6.76600
  0.4130   -6.63000
  0.4150   -6.49300
  0.4170   -6.35600
  0.4190   -6.22100
  0.4210   -6.08700
  0.4230   -5.95300
  0.4250   -5.81900
  0.4270   -5.68600
  0.4290   -5.55500
  0.4310   -5.42400
  0.4330   -5.29500
  0.4350   -5.16600
  0.4370   -5.04000
  0.4390   -4.91500
  0.4410   -4.79100
  0.4430   -4.66800
  0.4450   -4.54800
  0.4470   -4.42900
  0.4490   -4.31100
  0.4510   -4.19500
  0.4530   -4.08100
  0.4550   -3.96900
  0.4570   -3.85800
  0.4590   -3.74900
  0.4610   -3.64300
  0.4630   -3.53800
  0.4650   -3.43500
  0.4670   -3.33400
  0.4690   -3.23600
  0.4710   -3.14000
  0.4730   -3.04600
  0.4750   -2.95400
  0.4770   -2.86500
  0.4790   -2.77800
  0.4810   -2.69300
  0.4830   -2.61100
  0.4850   -2.53200
  0.4870   -2.45400
  0.4890   -2.38000
  0.4910   -2.30800
  0.4930   -2.23800
  0.4950   -2.17200
  0.4970   -2.10800
  0.4990   -2.04600
  0.5010   -1.98700
  0.5030   -1.93100
  0.5050   -1.87800
  0.5070   -1.82700
  0.5090   -1.77900
  0.5110   -1.73300
  0.5130   -1.69100
  0.5150   -1.65100
  0.5170   -1.61400
  0.5190   -1.57900
  0.5210   -1.54700
  0.5230   -1.51800
  0.5250   -1.49100
  0.5270   -1.46700
  0.5290   -1.44600
  0.5310   -1.42700
  0.5330   -1.41000
  0.5350   -1.39500
  0.5370   -1.38300
  0.5390   -1.37200
  0.5410   -1.36400
  0.5430   -1.35900
  0.5450   -1.35600
  0.5470   -1.35400
  0.5490   -1.35500
  0.5510   -1.35700
  0.5530   -1.36000
  0.5550   -1.36500
  0.5570   -1.37200
  0.5590   -1.37900
  0.5610   -1.38900
  0.5630   -1.39900
  0.5650   -1.41000
  0.5670   -1.42200
  0.5690   -1.43500
  0.5710   -1.44900
  0.5730   -1.46400
  0.5750   -1.47900
  0.5770   -1.49500
  0.5790   -1.51100
  0.5810   -1.52600
  0.5830   -1.54200
  0.5850   -1.55700
  0.5870   -1.57300
  0.5890   -1.58900
  0.5910   -1.60500
  0.5930   -1.62000
  0.5950   -1.63500
  0.5970   -1.64900
  0.5990   -1.66300
  0.6010   -1.67600
  0.6030   -1.68900
  0.6050   -1.70100
  0.6070   -1.71200
  0.6090   -1.72200
  0.6110   -1.73200
  0.6130   -1.74100
  0.6150   -1.74800
  0.6170   -1.75500
  0.6190   -1.76100
  0.6210   -1.76600
  0.6230   -1.77000
  0.6250   -1.77300
  0.6270   -1.77500
  0.6290   -1.77600
  0.6310   -1.77600
  0.6330   -1.77500
  0.6350   -1.77300
  0.6370   -1.77000
  0.6390   -1.76600
  0.6410   -1.76100
  0.6430   -1.75500
  0.6450   -1.74900
  0.6470   -1.74100
  0.6490   -1.73300
  0.6510   -1.72400
  0.6530   -1.71400
  0.6550   -1.70300
  0.6570   -1.69100
  0.6590   -1.67900
  0.6610   -1.66600
  0.6630   -1.65300
  0.6650   -1.63800
  0.6670   -1.62400
  0.6690   -1.60800
  0.6710   -1.59300
  0.6730   -1.57600
  0.6750   -1.56000
  0.6770   -1.54200
  0.6790   -1.52500
  0.6810   -1.50700
  0.6830   -1.48900
  0.6850   -1.47000
  0.6870   -1.45000
  0.6890   -1.43100
  0.6910   -1.41100
  0.6930   -1.39100
  0.6950   -1.37000
  0.6970   -1.35000
  0.6990   -1.32900
  0.7010   -1.30900
  0.7030   -1.28700
  0.7050   -1.26600
  0.7070   -1.24500
  0.7090   -1.22300
  0.7110   -1.20100
  0.7130   -1.17900
  0.7150   -1.15800
  0.7170   -1.13600
  0.7190   -1.11400
  0.7210   -1.09200
  0.7230   -1.07100
  0.7250   -1.04900
  0.7270   -1.02700
  0.7290   -1.00600
  0.7310   -0.98500
  0.7330   -0.96300
  0.7350   -0.94200
  0.7370   -0.92100
  0.7390   -0.90000
  0.7410   -0.87900
  0.7430   -0.85800
  0.7450   -0.83700
  0.7470   -0.81700
  0.7490   -0.79600
  0.7510   -0.77600
  0.7530   -0.75700
  0.7550   -0.73700
  0.7570   -0.71800
  0.7590   -0.69800
  0.7610   -0.67900
  0.7630   -0.66100
  0.7650   -0.64200
  0.7670   -0.62400
  0.7690   -0.60600
  0.7710   -0.58900
  0.7730   -0.57200
  0.7750   -0.55500
  0.7770   -0.53800
  0.7790   -0.52200
  0.7810   -0.50600
  0.7830   -0.49100
  0.7850   -0.47600
  0.7870   -0.46100
  0.7890   -0.44700
  0.7910   -0.43300
  0.7930   -0.42000
  0.7950   -0.40600
  0.7970   -0.39400
  0.7990   -0.38200
  0.8010   -0.37000
  0.8030   -0.35900
  0.8050   -0.34800
  0.8070   -0.33800
  0.8090   -0.32800
  0.8110   -0.31800
  0.8130   -0.30900
  0.8150   -0.30000
  0.8170   -0.29200
  0.8190   -0.28400
  0.8210   -0.27700
  0.8230   -0.27000
  0.8250   -0.26400
  0.8270   -0.25800
  0.8290   -0.25200
  0.8310   -0.24700
  0.8330   -0.24300
  0.8350   -0.23800
  0.8370   -0.23400
  0.8390   -0.23100
  0.8410   -0.22800
  0.8430   -0.22600
  0.8450   -0.22300
  0.8470   -0.22200
  0.8490   -0.22000
  0.8510   -0.21900
  0.8530   -0.21800
  0.8550   -0.21800
  0.8570   -0.21700
  0.8590   -0.21700
  0.8610   -0.21800
  0.8630   -0.21900
  0.8650   -0.22000
  0.8670   -0.22100
  0.8690   -0.22200
  0.8710   -0.22400
  0.8730   -0.22600
  0.8750   -0.22800
  0.8770   -0.23000
  0.8790   -0.23300
  0.8810   -0.23500
  0.8830   -0.23800
  0.8850   -0.24100
  0.8870   -0.24400
  0.8890   -0.24700
  0.8910   -0.25000
  0.8930   -0.25300
  0.8950   -0.25600
  0.8970   -0.26000
  0.8990   -0.26300
  0.9010   -0.26700
  0.9030   -0.27000
  0.9050   -0.27300
  0.9070   -0.27700
  0.9090   -0.28000
  0.9110   -0.28300
  0.9130   -0.28700
  0.9150   -0.29000
  0.9170   -0.29200
  0.9190   -0.29500
  0.9210   -0.29800
  0.9230   -0.30100
  0.9250   -0.30400
  0.9270   -0.30600
  0.9290   -0.30800
  0.9310   -0.31100
  0.9330   -0.31300
  0.9350   -0.31400
  0.9370   -0.31600
  0.9390   -0.31700
  0.9410   -0.31900
  0.9430   -0.32000
  0.9450   -0.32100
  0.9470   -0.32100
  0.9490   -0.32200
  0.9510   -0.32200
  0.9530   -0.32200
  0.9550   -0.32200
  0.9570   -0.32200
  0.9590   -0.32100
  0.9610   -0.32000
  0.9630   -0.31900
  0.9650   -0.31800
  0.9670   -0.31700
  0.9690   -0.31500
  0.9710   -0.31300
  0.9730   -0.31100
  0.9750   -0.30800
  0.9770   -0.30600
  0.9790   -0.30300
  0.9810   -0.30000
  0.9830   -0.29800
  0.9850   -0.29400
  0.9870   -0.29100
  0.9890   -0.28800
  0.9910   -0.28400
  0.9930   -0.28000
  0.9950   -0.27700
  0.9970   -0.27200
  0.9990   -0.26800
  1.0010   -0.26400
  1.0030   -0.26000
  1.0050   -0.25500
  1.0070   -0.25100
  1.0090   -0.24600
  1.0110   -0.24100
  1.0130   -0.23600
  1.0150   -0.23200
  1.0170   -0.22700
  1.0190   -0.22200
  1.0210   -0.21700
  1.0230   -0.21200
  1.0250   -0.20800
  1.0270   -0.20300
  1.0290   -0.19800
  1.0310   -0.19300
  1.0330   -0.18800
  1.0350   -0.18400
  1.0370   -0.17900
  1.0390   -0.17400
  1.0410   -0.17000
  1.0430   -0.16500
  1.0450   -0.16000
  1.0470   -0.15600
  1.0490   -0.15100
  1.0510   -0.14700
  1.0530   -0.14300
  1.0550   -0.13800
  1.0570   -0.13400
  1.0590   -0.13000
  1.0610   -0.12600
  1.0630   -0.12200
  1.0650   -0.11900
  1.0670   -0.11500
  1.0690   -0.11100
  1.0710   -0.10800
  1.0730   -0.10400
  1.0750   -0.10000
  1.0770   -0.09700
  1.0790   -0.09400
  1.0810   -0.09000
  1.0830   -0.08700
  1.0850   -0.08400
  1.0870   -0.08100
  1.0890   -0.07800
  1.0910   -0.07500
  1.0930   -0.07200
  1.0950   -0.06900
  1.0970   -0.06600
  1.0990   -0.06400
  1.1010   -0.06100
  1.1030   -0.05800
  1.1050   -0.05600
  1.1070   -0.05300
  1.1090   -0.05100
  1.1110   -0.04900
  1.1130   -0.04600
  1.1150   -0.04400
  1.1170   -0.04200
  1.1190   -0.04000
  1.1210   -0.03800
  1.1230   -0.03600
  1.1250   -0.03400
  1.1270   -0.03200
  1.1290   -0.03000
  1.1310   -0.02800
  1.1330   -0.02600
  1.1350   -0.02500
  1.1370   -0.02300
  1.1390   -0.02100
  1.1410   -0.02000
  1.1430   -0.01800
  1.1450   -0.01700
  1.1470   -0.01600
  1.1490   -0.01400
  1.1510   -0.01300
  1.1530   -0.01200
  1.1550   -0.01100
  1.1570   -0.01000
  1.1590   -0.00900
  1.1610   -0.00800
  1.1630   -0.00700
  1.1650   -0.00600
  1.1670   -0.00500
  1.1690   -0.00400
  1.1710   -0.00300
  1.1730   -0.00300
  1.1750   -0.00200
  1.1770   -0.00100
  1.1790   -0.00100
  1.1810    0.00000
  1.1830    0.00100
  1.1850    0.00100
  1.1870    0.00200
  1.1890    0.00200
  1.1910    0.00200
  1.1930    0.00300
  1.1950    0.00300
  1.1970    0.00400
  1.1990    0.00400
  1.2010    0.00400
  1.2030    0.00400
  1.2050    0.00500
  1.2070    0.00500
  1.2090    0.00500
  1.2110    0.00500
  1.2130    0.00500
  1.2150    0.00500
  1.2170    0.00500
  1.2190    0.00500
  1.2210    0.00500
  1.2230    0.00500
  1.2250    0.00500
  1.2270    0.00500
  1.2290    0.00500
  1.2310    0.00500
  1.2330    0.00500
  1.2350    0.00600
  1.2370    0.00600
  1.2390    0.00600
  1.2410    0.00600
  1.2430    0.00600
  1.2450    0.00600
  1.2470    0.00600
  1.2490    0.00600
  1.2510    0.00600
  1.2530    0.00600
  1.2550    0.00700
  1.2570    0.00700
  1.2590    0.00700
  1.2610    0.00700
  1.2630    0.00700
  1.2650    0.00800
  1.2670    0.00800
  1.2690    0.00800
  1.2710    0.00900
  1.2730    0.00900
  1.2750    0.00900
  1.2770    0.01000
  1.2790    0.01000
  1.2810    0.01000
  1.2830    0.01000
  1.2850    0.01000
  1.2870    0.01100
  1.2890    0.01100
  1.2910    0.01100
  1.2930    0.01100
  1.2950    0.01100
  1.2970    0.01100
  1.2990    0.01100
  1.3010    0.01100
  1.3030    0.01000
  1.3050    0.01000
  1.3070    0.01000
  1.3090    0.01000
  1.3110    0.00900
  1.3130    0.00900
  1.3150    0.00800
  1.3170    0.00800
  1.3190    0.00700
  1.3210    0.00600
  1.3230    0.00500
  1.3250    0.00400
  1.3270    0.00300
  1.3290    0.00200
  1.3310    0.00100
  1.3330    0.00000
  1.3350   -0.00100
  1.3370   -0.00200
  1.3390   -0.00300
  1.3410   -0.00500
  1.3430   -0.00600
  1.3450   -0.00700
  1.3470   -0.00800
  1.3490   -0.00900
  1.3510   -0.01000
  1.3530   -0.01100
  1.3550   -0.01200
  1.3570   -0.01300
  1.3590   -0.01400
  1.3610   -0.01400
  1.3630   -0.01500
  1.3650   -0.01600
  1.3670   -0.01600
  1.3690   -0.01700
  1.3710   -0.01700
  1.3730   -0.01800
  1.3750   -0.01800
  1.3770   -0.01900
  1.3790   -0.01900
  1.3810   -0.01900
  1.3830   -0.01900
  1.3850   -0.01900
  1.3870   -0.02000
  1.3890   -0.02000
  1.3910   -0.02100
  1.3930   -0.02200
  1.3950   -0.02300
  1.3970   -0.02400
  1.3990   -0.02600
