# z (nm)   (kJ/mol)
  0.1670    8.53600
  0.1690    8.00800
  0.1710    7.50700
  0.1730    6.99700
  0.1750    6.45600
  0.1770    5.90600
  0.1790    5.35500
  0.1810    4.78900
  0.1830    4.21600
  0.1850    3.66600
  0.1870    3.11800
  0.1890    2.55200
  0.1910    1.98700
  0.1930    1.43200
  0.1950    0.87600
  0.1970    0.32600
  0.1990   -0.20900
  0.2010   -0.73600
  0.2030   -1.26500
  0.2050   -1.79200
  0.2070   -2.30900
  0.2090   -2.81300
  0.2110   -3.30300
  0.2130   -3.78000
  0.2150   -4.24800
  0.2170   -4.70500
  0.2190   -5.15200
  0.2210   -5.59100
  0.2230   -6.01800
  0.2250   -6.43200
  0.2270   -6.83200
  0.2290   -7.21900
  0.2310   -7.59500
  0.2330   -7.96000
  0.2350   -8.31100
  0.2370   -8.64800
  0.2390   -8.97100
  0.2410   -9.28000
  0.2430   -9.57500
  0.2450   -9.85600
  0.2470  -10.12300
  0.2490  -10.37800
  0.2510  -10.61700
  0.2530  -10.84200
  0.2550  -11.05400
  0.2570  -11.25100
  0.2590  -11.43400
  0.2610  -11.60400
  0.2630  -11.76000
  0.2650  -11.90300
  0.2670  -12.03200
  0.2690  -12.15000
  0.2710  -12.25500
  0.2730  -12.34600
  0.2750  -12.42400
  0.2770  -12.49100
  0.2790  -12.54900
  0.2810  -12.59400
  0.2830  -12.63000
  0.2850  -12.65500
  0.2870  -12.66900
  0.2890  -12.67700
  0.2910  -12.67700
  0.2930  -12.66600
  0.2950  -12.64600
  0.2970  -12.61900
  0.2990  -12.58500
  0.3010  -12.54400
  0.3030  -12.49700
  0.3050  -12.44400
  0.3070  -12.38600
  0.3090  -12.32100
  0.3110  -12.25100
  0.3130  -12.17700
  0.3150  -12.10000
  0.3170  -12.01800
  0.3190  -11.93300
  0.3210  -11.84500
  0.3230  -11.75400
  0.3250  -11.66000
  0.3270  -11.56300
  0.3290  -11.46300
  0.3310  -11.36200
  0.3330  -11.25800
  0.3350  -11.15200
  0.3370  -11.04300
  0.3390  -10.93300
  0.3410  -10.82100
  0.3430  -10.70800
  0.3450  -10.59200
  0.3470  -10.47500
  0.3490  -10.35700
  0.3510  -10.23700
  0.3530  -10.11600
  0.3550   -9.99400
  0.3570   -9.87100
  0.3590   -9.74600
  0.3610   -9.62000
  0.3630   -9.49200
  0.3650   -9.36400
  0.3670   -9.23400
  0.3690   -9.10400
  0.3710   -8.97300
  0.3730   -8.84100
  0.3750   -8.70700
  0.3770   -8.57300
  0.3790   -8.43800
  0.3810   -8.30300
  0.3830   -8.16700
  0.3850   -8.03000
  0.3870   -7.89300
  0.3890   -7.75600
  0.3910   -7.61800
  0.3930   -7.48000
  0.3950   -7.34200
  0.3970   -7.20400
  0.3990   -7.06700
  0.4010   -6.92900
  0.4030   -6.79100
  0.4050   -6.65400
  0.4070   -6.51800
  0.4090   -6.38200
  0.4110   -6.24600
  0.4130   -6.11200
  0.4150   -5.97800
  0.4170   -5.84400
  0.4190   -5.71200
  0.4210   -5.58100
  0.4230   -5.45100
  0.4250   -5.32200
  0.4270   -5.19400
  0.4290   -5.06800
  0.4310   -4.94300
  0.4330   -4.82000
  0.4350   -4.69800
  0.4370   -4.57800
  0.4390   -4.46000
  0.4410   -4.34300
  0.4430   -4.22800
  0.4450   -4.11500
  0.4470   -4.00500
  0.4490   -3.89600
  0.4510   -3.78800
  0.4530   -3.68300
  0.4550   -3.58000
  0.4570   -3.48000
  0.4590   -3.38100
  0.4610   -3.28400
  0.4630   -3.19000
  0.4650   -3.09800
  0.4670   -3.00800
  0.4690   -2.92100
  0.4710   -2.83500
  0.4730   -2.75200
  0.4750   -2.67200
  0.4770   -2.59400
  0.4790   -2.51900
  0.4810   -2.44600
  0.4830   -2.37500
  0.4850   -2.30700
  0.4870   -2.24200
  0.4890   -2.17900
  0.4910   -2.11900
  0.4930   -2.06100
  0.4950   -2.00500
  0.4970   -1.95200
  0.4990   -1.90200
  0.5010   -1.85300
  0.5030   -1.80700
  0.5050   -1.76400
  0.5070   -1.72300
  0.5090   -1.68400
  0.5110   -1.64700
  0.5130   -1.61300
  0.5150   -1.58000
  0.5170   -1.55000
  0.5190   -1.52200
  0.5210   -1.49700
  0.5230   -1.47300
  0.5250   -1.45000
  0.5270   -1.43000
  0.5290   -1.41100
  0.5310   -1.39400
  0.5330   -1.37900
  0.5350   -1.36500
  0.5370   -1.35300
  0.5390   -1.34200
  0.5410   -1.33300
  0.5430   -1.32400
  0.5450   -1.31700
  0.5470   -1.31100
  0.5490   -1.30600
  0.5510   -1.30200
  0.5530   -1.29800
  0.5550   -1.29500
  0.5570   -1.29300
  0.5590   -1.29200
  0.5610   -1.29100
  0.5630   -1.29100
  0.5650   -1.29100
  0.5670   -1.29200
  0.5690   -1.29200
  0.5710   -1.29300
  0.5730   -1.29400
  0.5750   -1.29500
  0.5770   -1.29700
  0.5790   -1.29800
  0.5810   -1.29900
  0.5830   -1.30000
  0.5850   -1.30000
  0.5870   -1.30100
  0.5890   -1.30100
  0.5910   -1.30000
  0.5930   -1.30000
  0.5950   -1.29900
  0.5970   -1.29800
  0.5990   -1.29600
  0.6010   -1.29400
  0.6030   -1.29200
  0.6050   -1.28900
  0.6070   -1.28600
  0.6090   -1.28300
  0.6110   -1.27800
  0.6130   -1.27400
  0.6150   -1.26900
  0.6170   -1.26300
  0.6190   -1.25700
  0.6210   -1.25000
  0.6230   -1.24300
  0.6250   -1.23500
  0.6270   -1.22700
  0.6290   -1.21800
  0.6310   -1.20900
  0.6330   -1.20000
  0.6350   -1.19000
  0.6370   -1.18000
  0.6390   -1.17000
  0.6410   -1.15900
  0.6430   -1.14800
  0.6450   -1.13700
  0.6470   -1.12500
  0.6490   -1.11300
  0.6510   -1.10100
  0.6530   -1.08900
  0.6550   -1.07600
  0.6570   -1.06300
  0.6590   -1.05000
  0.6610   -1.03700
  0.6630   -1.02400
  0.6650   -1.01100
  0.6670   -0.99800
  0.6690   -0.98400
  0.6710   -0.97100
  0.6730   -0.95700
  0.6750   -0.94400
  0.6770   -0.93100
  0.6790   -0.91800
  0.6810   -0.90400
  0.6830   -0.89100
  0.6850   -0.87800
  0.6870   -0.86500
  0.6890   -0.85200
  0.6910   -0.84000
  0.6930   -0.82700
  0.6950   -0.81500
  0.6970   -0.80300
  0.6990   -0.79000
  0.7010   -0.77800
  0.7030   -0.76700
  0.7050   -0.75500
  0.7070   -0.74300
  0.7090   -0.73200
  0.7110   -0.72000
  0.7130   -0.71000
  0.7150   -0.69900
  0.7170   -0.68800
  0.7190   -0.67800
  0.7210   -0.66800
  0.7230   -0.65700
  0.7250   -0.64800
  0.7270   -0.63800
  0.7290   -0.62800
  0.7310   -0.61800
  0.7330   -0.60900
  0.7350   -0.60000
  0.7370   -0.59100
  0.7390   -0.58200
  0.7410   -0.57300
  0.7430   -0.56500
  0.7450   -0.55600
  0.7470   -0.54800
  0.7490   -0.53900
  0.7510   -0.53100
  0.7530   -0.52400
  0.7550   -0.51500
  0.7570   -0.50700
  0.7590   -0.50000
  0.7610   -0.49200
  0.7630   -0.48400
  0.7650   -0.47700
  0.7670   -0.46900
  0.7690   -0.46200
  0.7710   -0.45500
  0.7730   -0.44800
  0.7750   -0.44000
  0.7770   -0.43300
  0.7790   -0.42700
  0.7810   -0.42000
  0.7830   -0.41400
  0.7850   -0.40700
  0.7870   -0.40100
  0.7890   -0.39500
  0.7910   -0.38900
  0.7930   -0.38200
  0.7950   -0.37600
  0.7970   -0.37100
  0.7990   -0.36500
  0.8010   -0.35900
  0.8030   -0.35400
  0.8050   -0.34800
  0.8070   -0.34300
  0.8090   -0.33800
  0.8110   -0.33300
  0.8130   -0.32800
  0.8150   -0.32300
  0.8170   -0.31800
  0.8190   -0.31300
  0.8210   -0.30900
  0.8230   -0.30500
  0.8250   -0.30100
  0.8270   -0.29700
  0.8290   -0.29300
  0.8310   -0.28900
  0.8330   -0.28600
  0.8350   -0.28200
  0.8370   -0.27900
  0.8390   -0.27600
  0.8410   -0.27300
  0.8430   -0.27000
  0.8450   -0.26700
  0.8470   -0.26400
  0.8490   -0.26200
  0.8510   -0.25900
  0.8530   -0.25600
  0.8550   -0.25400
  0.8570   -0.25200
  0.8590   -0.25000
  0.8610   -0.24800
  0.8630   -0.24600
  0.8650   -0.24400
  0.8670   -0.24200
  0.8690   -0.24000
  0.8710   -0.23800
  0.8730   -0.23700
  0.8750   -0.23500
  0.8770   -0.23300
  0.8790   -0.23200
  0.8810   -0.23000
  0.8830   -0.22800
  0.8850   -0.22700
  0.8870   -0.22600
  0.8890   -0.22400
  0.8910   -0.22300
  0.8930   -0.22100
  0.8950   -0.22000
  0.8970   -0.21800
  0.8990   -0.21700
  0.9010   -0.21600
  0.9030   -0.21500
  0.9050   -0.21400
  0.9070   -0.21300
  0.9090   -0.21200
  0.9110   -0.21100
  0.9130   -0.21000
  0.9150   -0.20900
  0.9170   -0.20800
  0.9190   -0.20700
  0.9210   -0.20700
  0.9230   -0.20600
  0.9250   -0.20500
  0.9270   -0.20500
  0.9290   -0.20400
  0.9310   -0.20400
  0.9330   -0.20300
  0.9350   -0.20300
  0.9370   -0.20300
  0.9390   -0.20300
  0.9410   -0.20300
  0.9430   -0.20300
  0.9450   -0.20300
  0.9470   -0.20300
  0.9490   -0.20300
  0.9510   -0.20300
  0.9530   -0.20400
  0.9550   -0.20400
  0.9570   -0.20400
  0.9590   -0.20500
  0.9610   -0.20500
  0.9630   -0.20500
  0.9650   -0.20600
  0.9670   -0.20600
  0.9690   -0.20700
  0.9710   -0.20800
  0.9730   -0.20800
  0.9750   -0.20900
  0.9770   -0.20900
  0.9790   -0.21000
  0.9810   -0.21000
  0.9830   -0.21000
  0.9850   -0.21100
  0.9870   -0.21100
  0.9890   -0.21200
  0.9910   -0.21200
  0.9930   -0.21200
  0.9950   -0.21200
  0.9970   -0.21200
  0.9990   -0.21200
  1.0010   -0.21200
  1.0030   -0.21200
  1.0050   -0.21100
  1.0070   -0.21100
  1.0090   -0.21000
  1.0110   -0.21000
  1.0130   -0.20900
  1.0150   -0.20800
  1.0170   -0.20700
  1.0190   -0.20600
  1.0210   -0.20500
  1.0230   -0.20300
  1.0250   -0.20200
  1.0270   -0.20100
  1.0290   -0.19900
  1.0310   -0.19700
  1.0330   -0.19500
  1.0350   -0.19300
  1.0370   -0.19100
  1.0390   -0.18800
  1.0410   -0.18600
  1.0430   -0.18400
  1.0450   -0.18100
  1.0470   -0.17900
  1.0490   -0.17600
  1.0510   -0.17300
  1.0530   -0.17000
  1.0550   -0.16800
  1.0570   -0.16500
  1.0590   -0.16200
  1.0610   -0.15900
  1.0630   -0.15600
  1.0650   -0.15300
  1.0670   -0.14900
  1.0690   -0.14600
  1.0710   -0.14300
  1.0730   -0.14000
  1.0750   -0.13700
  1.0770   -0.13400
  1.0790   -0.13100
  1.0810   -0.12700
  1.0830   -0.12400
  1.0850   -0.12100
  1.0870   -0.11900
  1.0890   -0.11600
  1.0910   -0.11300
  1.0930   -0.11000
  1.0950   -0.10700
  1.0970   -0.10400
  1.0990   -0.10100
  1.1010   -0.09800
  1.1030   -0.09600
  1.1050   -0.09300
  1.1070   -0.09100
  1.1090   -0.08800
  1.1110   -0.08600
  1.1130   -0.08400
  1.1150   -0.08100
  1.1170   -0.07900
  1.1190   -0.07700
  1.1210   -0.07500
  1.1230   -0.07300
  1.1250   -0.07100
  1.1270   -0.06900
  1.1290   -0.06800
  1.1310   -0.06600
  1.1330   -0.06400
  1.1350   -0.06300
  1.1370   -0.06100
  1.1390   -0.05900
  1.1410   -0.05800
  1.1430   -0.05600
  1.1450   -0.05500
  1.1470   -0.05400
  1.1490   -0.05300
  1.1510   -0.05100
  1.1530   -0.05000
  1.1550   -0.04900
  1.1570   -0.04800
  1.1590   -0.04700
  1.1610   -0.04600
  1.1630   -0.04500
  1.1650   -0.04400
  1.1670   -0.04300
  1.1690   -0.04200
  1.1710   -0.04100
  1.1730   -0.04000
  1.1750   -0.03900
  1.1770   -0.03800
  1.1790   -0.03800
  1.1810   -0.03700
  1.1830   -0.03600
  1.1850   -0.03600
  1.1870   -0.03500
  1.1890   -0.03400
  1.1910   -0.03300
  1.1930   -0.03300
  1.1950   -0.03200
  1.1970   -0.03100
  1.1990   -0.03000
  1.2010   -0.03000
  1.2030   -0.02900
  1.2050   -0.02900
  1.2070   -0.02800
  1.2090   -0.02700
  1.2110   -0.02700
  1.2130   -0.02600
  1.2150   -0.02600
  1.2170   -0.02500
  1.2190   -0.02400
  1.2210   -0.02400
  1.2230   -0.02300
  1.2250   -0.02300
  1.2270   -0.02200
  1.2290   -0.02200
  1.2310   -0.02100
  1.2330   -0.02100
  1.2350   -0.02000
  1.2370   -0.02000
  1.2390   -0.01900
  1.2410   -0.01900
  1.2430   -0.01800
  1.2450   -0.01800
  1.2470   -0.01800
  1.2490   -0.01700
  1.2510   -0.01700
  1.2530   -0.01700
  1.2550   -0.01600
  1.2570   -0.01600
  1.2590   -0.01600
  1.2610   -0.01500
  1.2630   -0.01500
  1.2650   -0.01400
  1.2670   -0.01400
  1.2690   -0.01300
  1.2710   -0.01300
  1.2730   -0.01300
  1.2750   -0.01200
  1.2770   -0.01200
  1.2790   -0.01200
  1.2810   -0.01100
  1.2830   -0.01100
  1.2850   -0.01000
  1.2870   -0.01000
  1.2890   -0.01000
  1.2910   -0.00900
  1.2930   -0.00900
  1.2950   -0.00800
  1.2970   -0.00800
  1.2990   -0.00700
  1.3010   -0.00700
  1.3030   -0.00600
  1.3050   -0.00600
  1.3070   -0.00500
  1.3090   -0.00500
  1.3110   -0.00400
  1.3130   -0.00300
  1.3150   -0.00200
  1.3170   -0.00200
  1.3190   -0.00100
  1.3210    0.00000
  1.3230    0.00100
  1.3250    0.00200
  1.3270    0.00300
  1.3290    0.00400
  1.3310    0.00500
  1.3330    0.00600
  1.3350    0.00700
  1.3370    0.00800
  1.3390    0.00900
  1.3410    0.01000
  1.3430    0.01200
  1.3450    0.01300
  1.3470    0.01400
  1.3490    0.01600
  1.3510    0.01700
  1.3530    0.01900
  1.3550    0.02000
  1.3570    0.02200
  1.3590    0.02300
  1.3610    0.02400
  1.3630    0.02600
  1.3650    0.02800
  1.3670    0.02900
  1.3690    0.03100
  1.3710    0.03300
  1.3730    0.03400
  1.3750    0.03600
  1.3770    0.03700
  1.3790    0.03900
  1.3810    0.04000
  1.3830    0.04100
  1.3850    0.04200
  1.3870    0.04300
  1.3890    0.04400
  1.3910    0.04500
  1.3930    0.04500
  1.3950    0.04500
  1.3970    0.04500
  1.3990    0.04500
