# z (nm)   (kJ/mol)
  0.1650    3.32700
  0.1670    2.67600
  0.1690    2.05300
  0.1710    1.44000
  0.1730    0.81200
  0.1750    0.19900
  0.1770   -0.40200
  0.1790   -1.01100
  0.1810   -1.61500
  0.1830   -2.21800
  0.1850   -2.81600
  0.1870   -3.41300
  0.1890   -4.00300
  0.1910   -4.58500
  0.1930   -5.15800
  0.1950   -5.71500
  0.1970   -6.25700
  0.1990   -6.78500
  0.2010   -7.29700
  0.2030   -7.80100
  0.2050   -8.29500
  0.2070   -8.77200
  0.2090   -9.23300
  0.2110   -9.68000
  0.2130  -10.11300
  0.2150  -10.52900
  0.2170  -10.93100
  0.2190  -11.31500
  0.2210  -11.68100
  0.2230  -12.03300
  0.2250  -12.36700
  0.2270  -12.68300
  0.2290  -12.98400
  0.2310  -13.26900
  0.2330  -13.53600
  0.2350  -13.78500
  0.2370  -14.01700
  0.2390  -14.23200
  0.2410  -14.43000
  0.2430  -14.61300
  0.2450  -14.77900
  0.2470  -14.92800
  0.2490  -15.06200
  0.2510  -15.17900
  0.2530  -15.28000
  0.2550  -15.36700
  0.2570  -15.43900
  0.2590  -15.49700
  0.2610  -15.54200
  0.2630  -15.57300
  0.2650  -15.58800
  0.2670  -15.59000
  0.2690  -15.58000
  0.2710  -15.55800
  0.2730  -15.52500
  0.2750  -15.48200
  0.2770  -15.43100
  0.2790  -15.37000
  0.2810  -15.30000
  0.2830  -15.22200
  0.2850  -15.13800
  0.2870  -15.04600
  0.2890  -14.94900
  0.2910  -14.84600
  0.2930  -14.73700
  0.2950  -14.62300
  0.2970  -14.50600
  0.2990  -14.38700
  0.3010  -14.26500
  0.3030  -14.14000
  0.3050  -14.01400
  0.3070  -13.88700
  0.3090  -13.76000
  0.3110  -13.63300
  0.3130  -13.50300
  0.3150  -13.37300
  0.3170  -13.24400
  0.3190  -13.11500
  0.3210  -12.98600
  0.3230  -12.85800
  0.3250  -12.73000
  0.3270  -12.60300
  0.3290  -12.47700
  0.3310  -12.35100
  0.3330  -12.22700
  0.3350  -12.10200
  0.3370  -11.97900
  0.3390  -11.85700
  0.3410  -11.73500
  0.3430  -11.61400
  0.3450  -11.49400
  0.3470  -11.37500
  0.3490  -11.25600
  0.3510  -11.13700
  0.3530  -11.01900
  0.3550  -10.90100
  0.3570  -10.78200
  0.3590  -10.66400
  0.3610  -10.54600
  0.3630  -10.42700
  0.3650  -10.30900
  0.3670  -10.19000
  0.3690  -10.07100
  0.3710   -9.95100
  0.3730   -9.83100
  0.3750   -9.71000
  0.3770   -9.58800
  0.3790   -9.46600
  0.3810   -9.34400
  0.3830   -9.22000
  0.3850   -9.09600
  0.3870   -8.97100
  0.3890   -8.84500
  0.3910   -8.71800
  0.3930   -8.59100
  0.3950   -8.46300
  0.3970   -8.33400
  0.3990   -8.20500
  0.4010   -8.07400
  0.4030   -7.94300
  0.4050   -7.81200
  0.4070   -7.68000
  0.4090   -7.54700
  0.4110   -7.41400
  0.4130   -7.28100
  0.4150   -7.14700
  0.4170   -7.01400
  0.4190   -6.88000
  0.4210   -6.74600
  0.4230   -6.61200
  0.4250   -6.47800
  0.4270   -6.34400
  0.4290   -6.21000
  0.4310   -6.07600
  0.4330   -5.94300
  0.4350   -5.81000
  0.4370   -5.67800
  0.4390   -5.54700
  0.4410   -5.41700
  0.4430   -5.28700
  0.4450   -5.15800
  0.4470   -5.02900
  0.4490   -4.90200
  0.4510   -4.77600
  0.4530   -4.65200
  0.4550   -4.53000
  0.4570   -4.40900
  0.4590   -4.29000
  0.4610   -4.17200
  0.4630   -4.05500
  0.4650   -3.94000
  0.4670   -3.82800
  0.4690   -3.71800
  0.4710   -3.60900
  0.4730   -3.50300
  0.4750   -3.39800
  0.4770   -3.29700
  0.4790   -3.19700
  0.4810   -3.10000
  0.4830   -3.00500
  0.4850   -2.91300
  0.4870   -2.82400
  0.4890   -2.73700
  0.4910   -2.65200
  0.4930   -2.57100
  0.4950   -2.49200
  0.4970   -2.41700
  0.4990   -2.34300
  0.5010   -2.27300
  0.5030   -2.20500
  0.5050   -2.14100
  0.5070   -2.07800
  0.5090   -2.02000
  0.5110   -1.96400
  0.5130   -1.91100
  0.5150   -1.86100
  0.5170   -1.81400
  0.5190   -1.76900
  0.5210   -1.72700
  0.5230   -1.68800
  0.5250   -1.65100
  0.5270   -1.61700
  0.5290   -1.58600
  0.5310   -1.55700
  0.5330   -1.53100
  0.5350   -1.50700
  0.5370   -1.48600
  0.5390   -1.46700
  0.5410   -1.45000
  0.5430   -1.43400
  0.5450   -1.42000
  0.5470   -1.40900
  0.5490   -1.39900
  0.5510   -1.39100
  0.5530   -1.38500
  0.5550   -1.38000
  0.5570   -1.37600
  0.5590   -1.37500
  0.5610   -1.37400
  0.5630   -1.37500
  0.5650   -1.37600
  0.5670   -1.37800
  0.5690   -1.38100
  0.5710   -1.38400
  0.5730   -1.38800
  0.5750   -1.39200
  0.5770   -1.39800
  0.5790   -1.40300
  0.5810   -1.41000
  0.5830   -1.41600
  0.5850   -1.42200
  0.5870   -1.42800
  0.5890   -1.43500
  0.5910   -1.44100
  0.5930   -1.44700
  0.5950   -1.45300
  0.5970   -1.45900
  0.5990   -1.46400
  0.6010   -1.46800
  0.6030   -1.47300
  0.6050   -1.47800
  0.6070   -1.48200
  0.6090   -1.48500
  0.6110   -1.48800
  0.6130   -1.49000
  0.6150   -1.49200
  0.6170   -1.49300
  0.6190   -1.49300
  0.6210   -1.49300
  0.6230   -1.49200
  0.6250   -1.49100
  0.6270   -1.48800
  0.6290   -1.48600
  0.6310   -1.48200
  0.6330   -1.47900
  0.6350   -1.47400
  0.6370   -1.46800
  0.6390   -1.46300
  0.6410   -1.45600
  0.6430   -1.44900
  0.6450   -1.44200
  0.6470   -1.43400
  0.6490   -1.42500
  0.6510   -1.41600
  0.6530   -1.40600
  0.6550   -1.39600
  0.6570   -1.38500
  0.6590   -1.37400
  0.6610   -1.36200
  0.6630   -1.34900
  0.6650   -1.33700
  0.6670   -1.32400
  0.6690   -1.31000
  0.6710   -1.29700
  0.6730   -1.28300
  0.6750   -1.26900
  0.6770   -1.25400
  0.6790   -1.24000
  0.6810   -1.22500
  0.6830   -1.20900
  0.6850   -1.19400
  0.6870   -1.17900
  0.6890   -1.16300
  0.6910   -1.14700
  0.6930   -1.13000
  0.6950   -1.11400
  0.6970   -1.09700
  0.6990   -1.08100
  0.7010   -1.06400
  0.7030   -1.04700
  0.7050   -1.03100
  0.7070   -1.01400
  0.7090   -0.99700
  0.7110   -0.98100
  0.7130   -0.96400
  0.7150   -0.94700
  0.7170   -0.93100
  0.7190   -0.91500
  0.7210   -0.89800
  0.7230   -0.88200
  0.7250   -0.86500
  0.7270   -0.84900
  0.7290   -0.83300
  0.7310   -0.81700
  0.7330   -0.80200
  0.7350   -0.78600
  0.7370   -0.77000
  0.7390   -0.75500
  0.7410   -0.74000
  0.7430   -0.72400
  0.7450   -0.70900
  0.7470   -0.69400
  0.7490   -0.67900
  0.7510   -0.66500
  0.7530   -0.65000
  0.7550   -0.63600
  0.7570   -0.62200
  0.7590   -0.60900
  0.7610   -0.59500
  0.7630   -0.58200
  0.7650   -0.56900
  0.7670   -0.55600
  0.7690   -0.54300
  0.7710   -0.53000
  0.7730   -0.51800
  0.7750   -0.50600
  0.7770   -0.49500
  0.7790   -0.48300
  0.7810   -0.47200
  0.7830   -0.46100
  0.7850   -0.45000
  0.7870   -0.43900
  0.7890   -0.42900
  0.7910   -0.41900
  0.7930   -0.40900
  0.7950   -0.40000
  0.7970   -0.39100
  0.7990   -0.38100
  0.8010   -0.37300
  0.8030   -0.36400
  0.8050   -0.35600
  0.8070   -0.34800
  0.8090   -0.34000
  0.8110   -0.33300
  0.8130   -0.32600
  0.8150   -0.31900
  0.8170   -0.31300
  0.8190   -0.30700
  0.8210   -0.30100
  0.8230   -0.29600
  0.8250   -0.29000
  0.8270   -0.28500
  0.8290   -0.28100
  0.8310   -0.27600
  0.8330   -0.27200
  0.8350   -0.26900
  0.8370   -0.26500
  0.8390   -0.26200
  0.8410   -0.25900
  0.8430   -0.25600
  0.8450   -0.25400
  0.8470   -0.25200
  0.8490   -0.25000
  0.8510   -0.24800
  0.8530   -0.24700
  0.8550   -0.24600
  0.8570   -0.24500
  0.8590   -0.24400
  0.8610   -0.24400
  0.8630   -0.24300
  0.8650   -0.24300
  0.8670   -0.24300
  0.8690   -0.24400
  0.8710   -0.24400
  0.8730   -0.24500
  0.8750   -0.24600
  0.8770   -0.24700
  0.8790   -0.24800
  0.8810   -0.24900
  0.8830   -0.25000
  0.8850   -0.25200
  0.8870   -0.25300
  0.8890   -0.25500
  0.8910   -0.25700
  0.8930   -0.25900
  0.8950   -0.26100
  0.8970   -0.26300
  0.8990   -0.26500
  0.9010   -0.26700
  0.9030   -0.26900
  0.9050   -0.27100
  0.9070   -0.27300
  0.9090   -0.27500
  0.9110   -0.27700
  0.9130   -0.27900
  0.9150   -0.28100
  0.9170   -0.28200
  0.9190   -0.28400
  0.9210   -0.28500
  0.9230   -0.28700
  0.9250   -0.28800
  0.9270   -0.28900
  0.9290   -0.29000
  0.9310   -0.29100
  0.9330   -0.29100
  0.9350   -0.29200
  0.9370   -0.29200
  0.9390   -0.29200
  0.9410   -0.29200
  0.9430   -0.29200
  0.9450   -0.29100
  0.9470   -0.29100
  0.9490   -0.29000
  0.9510   -0.28900
  0.9530   -0.28700
  0.9550   -0.28600
  0.9570   -0.28400
  0.9590   -0.28200
  0.9610   -0.28000
  0.9630   -0.27800
  0.9650   -0.27600
  0.9670   -0.27300
  0.9690   -0.27000
  0.9710   -0.26700
  0.9730   -0.26400
  0.9750   -0.26100
  0.9770   -0.25700
  0.9790   -0.25400
  0.9810   -0.25000
  0.9830   -0.24600
  0.9850   -0.24200
  0.9870   -0.23800
  0.9890   -0.23400
  0.9910   -0.23000
  0.9930   -0.22500
  0.9950   -0.22100
  0.9970   -0.21700
  0.9990   -0.21300
  1.0010   -0.20900
  1.0030   -0.20400
  1.0050   -0.20000
  1.0070   -0.19600
  1.0090   -0.19100
  1.0110   -0.18700
  1.0130   -0.18300
  1.0150   -0.17900
  1.0170   -0.17500
  1.0190   -0.17100
  1.0210   -0.16700
  1.0230   -0.16300
  1.0250   -0.15900
  1.0270   -0.15500
  1.0290   -0.15200
  1.0310   -0.14800
  1.0330   -0.14500
  1.0350   -0.14200
  1.0370   -0.13800
  1.0390   -0.13500
  1.0410   -0.13200
  1.0430   -0.12900
  1.0450   -0.12600
  1.0470   -0.12300
  1.0490   -0.12100
  1.0510   -0.11800
  1.0530   -0.11600
  1.0550   -0.11300
  1.0570   -0.11100
  1.0590   -0.10800
  1.0610   -0.10600
  1.0630   -0.10400
  1.0650   -0.10200
  1.0670   -0.10000
  1.0690   -0.09800
  1.0710   -0.09600
  1.0730   -0.09400
  1.0750   -0.09200
  1.0770   -0.09000
  1.0790   -0.08800
  1.0810   -0.08700
  1.0830   -0.08500
  1.0850   -0.08300
  1.0870   -0.08200
  1.0890   -0.08000
  1.0910   -0.07800
  1.0930   -0.07700
  1.0950   -0.07500
  1.0970   -0.07400
  1.0990   -0.07200
  1.1010   -0.07100
  1.1030   -0.06900
  1.1050   -0.06800
  1.1070   -0.06600
  1.1090   -0.06500
  1.1110   -0.06300
  1.1130   -0.06200
  1.1150   -0.06100
  1.1170   -0.05900
  1.1190   -0.05800
  1.1210   -0.05700
  1.1230   -0.05600
  1.1250   -0.05500
  1.1270   -0.05400
  1.1290   -0.05300
  1.1310   -0.05200
  1.1330   -0.05100
  1.1350   -0.05000
  1.1370   -0.04900
  1.1390   -0.04800
  1.1410   -0.04700
  1.1430   -0.04700
  1.1450   -0.04600
  1.1470   -0.04500
  1.1490   -0.04500
  1.1510   -0.04400
  1.1530   -0.04300
  1.1550   -0.04300
  1.1570   -0.04200
  1.1590   -0.04200
  1.1610   -0.04200
  1.1630   -0.04100
  1.1650   -0.04100
  1.1670   -0.04000
  1.1690   -0.04000
  1.1710   -0.04000
  1.1730   -0.03900
  1.1750   -0.03900
  1.1770   -0.03800
  1.1790   -0.03800
  1.1810   -0.03700
  1.1830   -0.03700
  1.1850   -0.03600
  1.1870   -0.03600
  1.1890   -0.03500
  1.1910   -0.03500
  1.1930   -0.03400
  1.1950   -0.03300
  1.1970   -0.03300
  1.1990   -0.03200
  1.2010   -0.03200
  1.2030   -0.03100
  1.2050   -0.03100
  1.2070   -0.03000
  1.2090   -0.02900
  1.2110   -0.02800
  1.2130   -0.02800
  1.2150   -0.02700
  1.2170   -0.02600
  1.2190   -0.02500
  1.2210   -0.02400
  1.2230   -0.02300
  1.2250   -0.02300
  1.2270   -0.02200
  1.2290   -0.02100
  1.2310   -0.02000
  1.2330   -0.01900
  1.2350   -0.01800
  1.2370   -0.01700
  1.2390   -0.01600
  1.2410   -0.01500
  1.2430   -0.01400
  1.2450   -0.01300
  1.2470   -0.01200
  1.2490   -0.01200
  1.2510   -0.01100
  1.2530   -0.01000
  1.2550   -0.00900
  1.2570   -0.00800
  1.2590   -0.00700
  1.2610   -0.00700
  1.2630   -0.00600
  1.2650   -0.00500
  1.2670   -0.00400
  1.2690   -0.00300
  1.2710   -0.00300
  1.2730   -0.00200
  1.2750   -0.00100
  1.2770    0.00000
  1.2790    0.00100
  1.2810    0.00100
  1.2830    0.00200
  1.2850    0.00200
  1.2870    0.00300
  1.2890    0.00300
  1.2910    0.00400
  1.2930    0.00400
  1.2950    0.00500
  1.2970    0.00500
  1.2990    0.00600
  1.3010    0.00600
  1.3030    0.00600
  1.3050    0.00600
  1.3070    0.00600
  1.3090    0.00700
  1.3110    0.00700
  1.3130    0.00700
  1.3150    0.00700
  1.3170    0.00700
  1.3190    0.00700
  1.3210    0.00700
  1.3230    0.00700
  1.3250    0.00700
  1.3270    0.00700
  1.3290    0.00700
  1.3310    0.00700
  1.3330    0.00700
  1.3350    0.00700
  1.3370    0.00700
  1.3390    0.00800
  1.3410    0.00800
  1.3430    0.00800
  1.3450    0.00800
  1.3470    0.00900
  1.3490    0.00900
  1.3510    0.01000
  1.3530    0.01000
  1.3550    0.01000
  1.3570    0.01100
  1.3590    0.01200
  1.3610    0.01200
  1.3630    0.01300
  1.3650    0.01400
  1.3670    0.01400
  1.3690    0.01500
  1.3710    0.01600
  1.3730    0.01700
  1.3750    0.01800
  1.3770    0.01900
  1.3790    0.02000
  1.3810    0.02100
  1.3830    0.02200
  1.3850    0.02300
  1.3870    0.02300
  1.3890    0.02400
  1.3910    0.02400
  1.3930    0.02500
  1.3950    0.02500
  1.3970    0.02500
  1.3990    0.02400
