# z (nm)   (kJ/mol)
  0.1150    8.70600
  0.1190    7.73500
  0.1210    7.24500
  0.1230    6.71500
  0.1250    6.19600
  0.1270    5.67300
  0.1290    5.11300
  0.1310    4.55100
  0.1330    3.98000
  0.1350    3.41000
  0.1370    2.85900
  0.1390    2.31000
  0.1410    1.74600
  0.1430    1.18500
  0.1450    0.62800
  0.1470    0.07600
  0.1490   -0.47900
  0.1510   -1.03900
  0.1530   -1.59000
  0.1550   -2.13900
  0.1570   -2.68800
  0.1590   -3.22800
  0.1610   -3.75600
  0.1630   -4.27500
  0.1650   -4.78200
  0.1670   -5.28100
  0.1690   -5.77100
  0.1710   -6.25200
  0.1730   -6.72400
  0.1750   -7.17900
  0.1770   -7.61600
  0.1790   -8.04100
  0.1810   -8.45300
  0.1830   -8.85000
  0.1850   -9.23100
  0.1870   -9.59800
  0.1890   -9.95100
  0.1910  -10.28900
  0.1930  -10.61300
  0.1950  -10.92100
  0.1970  -11.20900
  0.1990  -11.48100
  0.2010  -11.73700
  0.2030  -11.97600
  0.2050  -12.19800
  0.2070  -12.40300
  0.2090  -12.59200
  0.2110  -12.76300
  0.2130  -12.91700
  0.2150  -13.05400
  0.2170  -13.17600
  0.2190  -13.28100
  0.2210  -13.37000
  0.2230  -13.44300
  0.2250  -13.50100
  0.2270  -13.54400
  0.2290  -13.57300
  0.2310  -13.58700
  0.2330  -13.58700
  0.2350  -13.57400
  0.2370  -13.55100
  0.2390  -13.51500
  0.2410  -13.46700
  0.2430  -13.40800
  0.2450  -13.34000
  0.2470  -13.26200
  0.2490  -13.17400
  0.2510  -13.07800
  0.2530  -12.97400
  0.2550  -12.86400
  0.2570  -12.74700
  0.2590  -12.62400
  0.2610  -12.49600
  0.2630  -12.36300
  0.2650  -12.22800
  0.2670  -12.08900
  0.2690  -11.94600
  0.2710  -11.80000
  0.2730  -11.65300
  0.2750  -11.50500
  0.2770  -11.35500
  0.2790  -11.20400
  0.2810  -11.05200
  0.2830  -10.90100
  0.2850  -10.74900
  0.2870  -10.59800
  0.2890  -10.44700
  0.2910  -10.29700
  0.2930  -10.14800
  0.2950  -10.00000
  0.2970   -9.85400
  0.2990   -9.70900
  0.3010   -9.56600
  0.3030   -9.42400
  0.3050   -9.28300
  0.3070   -9.14400
  0.3090   -9.00700
  0.3110   -8.87200
  0.3130   -8.73800
  0.3150   -8.60600
  0.3170   -8.47500
  0.3190   -8.34600
  0.3210   -8.21900
  0.3230   -8.09200
  0.3250   -7.96700
  0.3270   -7.84300
  0.3290   -7.72000
  0.3310   -7.60000
  0.3330   -7.48000
  0.3350   -7.36100
  0.3370   -7.24300
  0.3390   -7.12700
  0.3410   -7.01100
  0.3430   -6.89700
  0.3450   -6.78300
  0.3470   -6.66900
  0.3490   -6.55700
  0.3510   -6.44400
  0.3530   -6.33200
  0.3550   -6.22100
  0.3570   -6.10900
  0.3590   -5.99900
  0.3610   -5.88900
  0.3630   -5.77900
  0.3650   -5.67000
  0.3670   -5.56000
  0.3690   -5.45100
  0.3710   -5.34200
  0.3730   -5.23300
  0.3750   -5.12500
  0.3770   -5.01600
  0.3790   -4.90800
  0.3810   -4.80000
  0.3830   -4.69100
  0.3850   -4.58300
  0.3870   -4.47500
  0.3890   -4.36800
  0.3910   -4.26000
  0.3930   -4.15200
  0.3950   -4.04500
  0.3970   -3.93800
  0.3990   -3.83100
  0.4010   -3.72500
  0.4030   -3.61900
  0.4050   -3.51400
  0.4070   -3.40800
  0.4090   -3.30300
  0.4110   -3.19900
  0.4130   -3.09400
  0.4150   -2.99100
  0.4170   -2.88800
  0.4190   -2.78600
  0.4210   -2.68600
  0.4230   -2.58500
  0.4250   -2.48600
  0.4270   -2.38800
  0.4290   -2.29100
  0.4310   -2.19500
  0.4330   -2.10100
  0.4350   -2.00800
  0.4370   -1.91700
  0.4390   -1.82700
  0.4410   -1.73800
  0.4430   -1.65200
  0.4450   -1.56700
  0.4470   -1.48400
  0.4490   -1.40300
  0.4510   -1.32400
  0.4530   -1.24700
  0.4550   -1.17300
  0.4570   -1.10100
  0.4590   -1.03000
  0.4610   -0.96300
  0.4630   -0.89800
  0.4650   -0.83500
  0.4670   -0.77500
  0.4690   -0.71700
  0.4710   -0.66300
  0.4730   -0.61100
  0.4750   -0.56200
  0.4770   -0.51600
  0.4790   -0.47300
  0.4810   -0.43200
  0.4830   -0.39500
  0.4850   -0.36000
  0.4870   -0.32900
  0.4890   -0.30000
  0.4910   -0.27400
  0.4930   -0.25100
  0.4950   -0.23100
  0.4970   -0.21300
  0.4990   -0.19900
  0.5010   -0.18700
  0.5030   -0.17900
  0.5050   -0.17200
  0.5070   -0.16900
  0.5090   -0.16700
  0.5110   -0.16900
  0.5130   -0.17200
  0.5150   -0.17700
  0.5170   -0.18500
  0.5190   -0.19500
  0.5210   -0.20600
  0.5230   -0.22000
  0.5250   -0.23500
  0.5270   -0.25200
  0.5290   -0.27100
  0.5310   -0.29000
  0.5330   -0.31200
  0.5350   -0.33500
  0.5370   -0.35800
  0.5390   -0.38300
  0.5410   -0.40900
  0.5430   -0.43400
  0.5450   -0.46100
  0.5470   -0.48800
  0.5490   -0.51600
  0.5510   -0.54500
  0.5530   -0.57300
  0.5550   -0.60200
  0.5570   -0.63000
  0.5590   -0.65900
  0.5610   -0.68800
  0.5630   -0.71600
  0.5650   -0.74400
  0.5670   -0.77100
  0.5690   -0.79800
  0.5710   -0.82400
  0.5730   -0.85000
  0.5750   -0.87500
  0.5770   -0.89900
  0.5790   -0.92200
  0.5810   -0.94400
  0.5830   -0.96500
  0.5850   -0.98600
  0.5870   -1.00500
  0.5890   -1.02400
  0.5910   -1.04100
  0.5930   -1.05700
  0.5950   -1.07200
  0.5970   -1.08600
  0.5990   -1.09900
  0.6010   -1.11000
  0.6030   -1.12100
  0.6050   -1.13000
  0.6070   -1.13800
  0.6090   -1.14500
  0.6110   -1.15100
  0.6130   -1.15600
  0.6150   -1.15900
  0.6170   -1.16200
  0.6190   -1.16300
  0.6210   -1.16300
  0.6230   -1.16200
  0.6250   -1.16000
  0.6270   -1.15700
  0.6290   -1.15300
  0.6310   -1.14900
  0.6330   -1.14300
  0.6350   -1.13600
  0.6370   -1.12900
  0.6390   -1.12000
  0.6410   -1.11100
  0.6430   -1.10100
  0.6450   -1.09000
  0.6470   -1.07900
  0.6490   -1.06700
  0.6510   -1.05400
  0.6530   -1.04000
  0.6550   -1.02600
  0.6570   -1.01100
  0.6590   -0.99600
  0.6610   -0.98100
  0.6630   -0.96500
  0.6650   -0.94800
  0.6670   -0.93100
  0.6690   -0.91400
  0.6710   -0.89700
  0.6730   -0.87900
  0.6750   -0.86100
  0.6770   -0.84200
  0.6790   -0.82400
  0.6810   -0.80500
  0.6830   -0.78600
  0.6850   -0.76700
  0.6870   -0.74800
  0.6890   -0.72800
  0.6910   -0.70900
  0.6930   -0.68900
  0.6950   -0.67000
  0.6970   -0.65000
  0.6990   -0.63100
  0.7010   -0.61100
  0.7030   -0.59100
  0.7050   -0.57200
  0.7070   -0.55300
  0.7090   -0.53300
  0.7110   -0.51400
  0.7130   -0.49500
  0.7150   -0.47700
  0.7170   -0.45800
  0.7190   -0.44000
  0.7210   -0.42200
  0.7230   -0.40400
  0.7250   -0.38600
  0.7270   -0.36900
  0.7290   -0.35200
  0.7310   -0.33500
  0.7330   -0.31800
  0.7350   -0.30200
  0.7370   -0.28700
  0.7390   -0.27100
  0.7410   -0.25600
  0.7430   -0.24100
  0.7450   -0.22700
  0.7470   -0.21300
  0.7490   -0.20000
  0.7510   -0.18700
  0.7530   -0.17400
  0.7550   -0.16200
  0.7570   -0.15000
  0.7590   -0.13900
  0.7610   -0.12900
  0.7630   -0.11900
  0.7650   -0.10900
  0.7670   -0.10000
  0.7690   -0.09100
  0.7710   -0.08300
  0.7730   -0.07500
  0.7750   -0.06800
  0.7770   -0.06100
  0.7790   -0.05400
  0.7810   -0.04900
  0.7830   -0.04300
  0.7850   -0.03800
  0.7870   -0.03400
  0.7890   -0.03000
  0.7910   -0.02600
  0.7930   -0.02300
  0.7950   -0.02100
  0.7970   -0.01900
  0.7990   -0.01700
  0.8010   -0.01500
  0.8030   -0.01400
  0.8050   -0.01400
  0.8070   -0.01400
  0.8090   -0.01400
  0.8110   -0.01400
  0.8130   -0.01500
  0.8150   -0.01700
  0.8170   -0.01800
  0.8190   -0.02000
  0.8210   -0.02200
  0.8230   -0.02500
  0.8250   -0.02700
  0.8270   -0.03000
  0.8290   -0.03300
  0.8310   -0.03700
  0.8330   -0.04000
  0.8350   -0.04400
  0.8370   -0.04800
  0.8390   -0.05200
  0.8410   -0.05600
  0.8430   -0.06000
  0.8450   -0.06500
  0.8470   -0.06900
  0.8490   -0.07400
  0.8510   -0.07900
  0.8530   -0.08400
  0.8550   -0.08900
  0.8570   -0.09400
  0.8590   -0.09900
  0.8610   -0.10500
  0.8630   -0.11000
  0.8650   -0.11500
  0.8670   -0.12100
  0.8690   -0.12600
  0.8710   -0.13200
  0.8730   -0.13700
  0.8750   -0.14200
  0.8770   -0.14800
  0.8790   -0.15300
  0.8810   -0.15800
  0.8830   -0.16300
  0.8850   -0.16800
  0.8870   -0.17400
  0.8890   -0.17900
  0.8910   -0.18400
  0.8930   -0.18800
  0.8950   -0.19300
  0.8970   -0.19800
  0.8990   -0.20200
  0.9010   -0.20700
  0.9030   -0.21100
  0.9050   -0.21500
  0.9070   -0.21900
  0.9090   -0.22300
  0.9110   -0.22700
  0.9130   -0.23100
  0.9150   -0.23400
  0.9170   -0.23700
  0.9190   -0.24000
  0.9210   -0.24300
  0.9230   -0.24500
  0.9250   -0.24800
  0.9270   -0.25000
  0.9290   -0.25100
  0.9310   -0.25300
  0.9330   -0.25400
  0.9350   -0.25500
  0.9370   -0.25600
  0.9390   -0.25600
  0.9410   -0.25700
  0.9430   -0.25700
  0.9450   -0.25600
  0.9470   -0.25600
  0.9490   -0.25500
  0.9510   -0.25400
  0.9530   -0.25300
  0.9550   -0.25100
  0.9570   -0.24900
  0.9590   -0.24700
  0.9610   -0.24500
  0.9630   -0.24200
  0.9650   -0.23900
  0.9670   -0.23600
  0.9690   -0.23300
  0.9710   -0.23000
  0.9730   -0.22600
  0.9750   -0.22200
  0.9770   -0.21800
  0.9790   -0.21400
  0.9810   -0.21000
  0.9830   -0.20600
  0.9850   -0.20100
  0.9870   -0.19700
  0.9890   -0.19200
  0.9910   -0.18800
  0.9930   -0.18300
  0.9950   -0.17800
  0.9970   -0.17400
  0.9990   -0.16900
  1.0010   -0.16400
  1.0030   -0.15900
  1.0050   -0.15400
  1.0070   -0.14900
  1.0090   -0.14400
  1.0110   -0.13900
  1.0130   -0.13500
  1.0150   -0.13000
  1.0170   -0.12500
  1.0190   -0.12100
  1.0210   -0.11600
  1.0230   -0.11100
  1.0250   -0.10700
  1.0270   -0.10200
  1.0290   -0.09800
  1.0310   -0.09300
  1.0330   -0.08900
  1.0350   -0.08500
  1.0370   -0.08000
  1.0390   -0.07600
  1.0410   -0.07200
  1.0430   -0.06800
  1.0450   -0.06400
  1.0470   -0.06000
  1.0490   -0.05600
  1.0510   -0.05200
  1.0530   -0.04800
  1.0550   -0.04500
  1.0570   -0.04100
  1.0590   -0.03800
  1.0610   -0.03400
  1.0630   -0.03100
  1.0650   -0.02800
  1.0670   -0.02500
  1.0690   -0.02200
  1.0710   -0.01900
  1.0730   -0.01600
  1.0750   -0.01300
  1.0770   -0.01100
  1.0790   -0.00800
  1.0810   -0.00600
  1.0830   -0.00300
  1.0850   -0.00100
  1.0870    0.00100
  1.0890    0.00300
  1.0910    0.00500
  1.0930    0.00700
  1.0950    0.00900
  1.0970    0.01000
  1.0990    0.01200
  1.1010    0.01300
  1.1030    0.01400
  1.1050    0.01600
  1.1070    0.01700
  1.1090    0.01800
  1.1110    0.01900
  1.1130    0.02000
  1.1150    0.02000
  1.1170    0.02100
  1.1190    0.02100
  1.1210    0.02200
  1.1230    0.02200
  1.1250    0.02300
  1.1270    0.02300
  1.1290    0.02300
  1.1310    0.02300
  1.1330    0.02300
  1.1350    0.02200
  1.1370    0.02200
  1.1390    0.02200
  1.1410    0.02100
  1.1430    0.02100
  1.1450    0.02000
  1.1470    0.01900
  1.1490    0.01800
  1.1510    0.01700
  1.1530    0.01500
  1.1550    0.01400
  1.1570    0.01300
  1.1590    0.01100
  1.1610    0.00900
  1.1630    0.00700
  1.1650    0.00500
  1.1670    0.00300
  1.1690    0.00100
  1.1710   -0.00100
  1.1730   -0.00300
  1.1750   -0.00500
  1.1770   -0.00800
  1.1790   -0.01000
  1.1810   -0.01300
  1.1830   -0.01500
  1.1850   -0.01800
  1.1870   -0.02100
  1.1890   -0.02300
  1.1910   -0.02600
  1.1930   -0.02800
  1.1950   -0.03100
  1.1970   -0.03300
  1.1990   -0.03600
  1.2010   -0.03800
  1.2030   -0.04100
  1.2050   -0.04300
  1.2070   -0.04500
  1.2090   -0.04700
  1.2110   -0.04900
  1.2130   -0.05100
  1.2150   -0.05300
  1.2170   -0.05400
  1.2190   -0.05600
  1.2210   -0.05700
  1.2230   -0.05800
  1.2250   -0.05900
  1.2270   -0.06000
  1.2290   -0.06100
  1.2310   -0.06100
  1.2330   -0.06100
  1.2350   -0.06100
  1.2370   -0.06100
  1.2390   -0.06100
  1.2410   -0.06000
  1.2430   -0.05900
  1.2450   -0.05800
  1.2470   -0.05700
  1.2490   -0.05600
  1.2510   -0.05500
  1.2530   -0.05300
  1.2550   -0.05100
  1.2570   -0.05000
  1.2590   -0.04800
  1.2610   -0.04600
  1.2630   -0.04400
  1.2650   -0.04200
  1.2670   -0.04000
  1.2690   -0.03800
  1.2710   -0.03600
  1.2730   -0.03300
  1.2750   -0.03100
  1.2770   -0.02900
  1.2790   -0.02700
  1.2810   -0.02500
  1.2830   -0.02200
  1.2850   -0.02000
  1.2870   -0.01800
  1.2890   -0.01600
  1.2910   -0.01400
  1.2930   -0.01200
  1.2950   -0.01000
  1.2970   -0.00800
  1.2990   -0.00700
  1.3010   -0.00500
  1.3030   -0.00300
  1.3050   -0.00100
  1.3070    0.00000
  1.3090    0.00200
  1.3110    0.00400
  1.3130    0.00500
  1.3150    0.00700
  1.3170    0.00800
  1.3190    0.00900
  1.3210    0.01100
  1.3230    0.01200
  1.3250    0.01400
  1.3270    0.01500
  1.3290    0.01700
  1.3310    0.01800
  1.3330    0.02000
  1.3350    0.02200
  1.3370    0.02300
  1.3390    0.02500
  1.3410    0.02700
  1.3430    0.02900
  1.3450    0.03100
  1.3470    0.03300
  1.3490    0.03600
  1.3510    0.03800
  1.3530    0.04100
  1.3550    0.04300
  1.3570    0.04600
  1.3590    0.04900
  1.3610    0.05200
  1.3630    0.05500
  1.3650    0.05800
  1.3670    0.06200
  1.3690    0.06500
  1.3710    0.06800
  1.3730    0.07100
  1.3750    0.07500
  1.3770    0.07800
  1.3790    0.08100
  1.3810    0.08500
  1.3830    0.08800
  1.3850    0.09100
  1.3870    0.09400
  1.3890    0.09700
  1.3910    0.10000
  1.3930    0.10200
  1.3950    0.10400
  1.3970    0.10600
  1.3990    0.10800
