# z (nm)   (kJ/mol)
  0.1410    3.86700
  0.1430    3.20100
  0.1450    2.53200
  0.1470    1.88800
  0.1490    1.25600
  0.1510    0.61600
  0.1530   -0.03400
  0.1550   -0.68700
  0.1570   -1.33100
  0.1590   -1.96100
  0.1610   -2.58500
  0.1630   -3.21200
  0.1650   -3.83700
  0.1670   -4.45500
  0.1690   -5.06700
  0.1710   -5.66500
  0.1730   -6.25000
  0.1750   -6.82900
  0.1770   -7.39100
  0.1790   -7.93700
  0.1810   -8.47100
  0.1830   -8.99300
  0.1850   -9.49800
  0.1870   -9.98700
  0.1890  -10.46300
  0.1910  -10.91800
  0.1930  -11.35000
  0.1950  -11.76600
  0.1970  -12.16800
  0.1990  -12.54900
  0.2010  -12.90800
  0.2030  -13.24900
  0.2050  -13.56900
  0.2070  -13.86900
  0.2090  -14.15000
  0.2110  -14.40900
  0.2130  -14.64700
  0.2150  -14.86500
  0.2170  -15.06300
  0.2190  -15.23900
  0.2210  -15.39600
  0.2230  -15.53200
  0.2250  -15.64800
  0.2270  -15.74400
  0.2290  -15.82100
  0.2310  -15.87900
  0.2330  -15.91800
  0.2350  -15.93700
  0.2370  -15.93700
  0.2390  -15.92100
  0.2410  -15.89100
  0.2430  -15.84400
  0.2450  -15.78100
  0.2470  -15.70500
  0.2490  -15.61400
  0.2510  -15.50800
  0.2530  -15.39200
  0.2550  -15.26400
  0.2570  -15.12500
  0.2590  -14.97700
  0.2610  -14.82100
  0.2630  -14.65600
  0.2650  -14.48200
  0.2670  -14.30200
  0.2690  -14.11800
  0.2710  -13.92900
  0.2730  -13.73500
  0.2750  -13.53900
  0.2770  -13.33900
  0.2790  -13.13600
  0.2810  -12.93100
  0.2830  -12.72600
  0.2850  -12.52000
  0.2870  -12.31400
  0.2890  -12.10800
  0.2910  -11.90400
  0.2930  -11.70000
  0.2950  -11.49700
  0.2970  -11.29700
  0.2990  -11.09900
  0.3010  -10.90300
  0.3030  -10.70900
  0.3050  -10.51800
  0.3070  -10.33000
  0.3090  -10.14500
  0.3110   -9.96200
  0.3130   -9.78300
  0.3150   -9.60600
  0.3170   -9.43300
  0.3190   -9.26300
  0.3210   -9.09500
  0.3230   -8.93100
  0.3250   -8.76900
  0.3270   -8.60900
  0.3290   -8.45300
  0.3310   -8.29900
  0.3330   -8.14800
  0.3350   -7.99900
  0.3370   -7.85300
  0.3390   -7.71000
  0.3410   -7.56800
  0.3430   -7.42800
  0.3450   -7.29100
  0.3470   -7.15500
  0.3490   -7.02100
  0.3510   -6.88800
  0.3530   -6.75700
  0.3550   -6.62700
  0.3570   -6.49800
  0.3590   -6.37000
  0.3610   -6.24400
  0.3630   -6.11800
  0.3650   -5.99400
  0.3670   -5.86900
  0.3690   -5.74600
  0.3710   -5.62300
  0.3730   -5.50100
  0.3750   -5.37900
  0.3770   -5.25700
  0.3790   -5.13600
  0.3810   -5.01500
  0.3830   -4.89500
  0.3850   -4.77400
  0.3870   -4.65400
  0.3890   -4.53400
  0.3910   -4.41400
  0.3930   -4.29300
  0.3950   -4.17300
  0.3970   -4.05300
  0.3990   -3.93300
  0.4010   -3.81300
  0.4030   -3.69200
  0.4050   -3.57100
  0.4070   -3.45100
  0.4090   -3.33000
  0.4110   -3.21000
  0.4130   -3.09000
  0.4150   -2.97000
  0.4170   -2.84900
  0.4190   -2.72900
  0.4210   -2.60900
  0.4230   -2.48900
  0.4250   -2.36900
  0.4270   -2.25100
  0.4290   -2.13100
  0.4310   -2.01200
  0.4330   -1.89400
  0.4350   -1.77700
  0.4370   -1.66000
  0.4390   -1.54400
  0.4410   -1.42900
  0.4430   -1.31600
  0.4450   -1.20400
  0.4470   -1.09300
  0.4490   -0.98300
  0.4510   -0.87300
  0.4530   -0.76500
  0.4550   -0.65900
  0.4570   -0.55400
  0.4590   -0.45100
  0.4610   -0.35100
  0.4630   -0.25200
  0.4650   -0.15700
  0.4670   -0.06300
  0.4690    0.02800
  0.4710    0.11700
  0.4730    0.20300
  0.4750    0.28500
  0.4770    0.36600
  0.4790    0.44300
  0.4810    0.51700
  0.4830    0.58800
  0.4850    0.65500
  0.4870    0.72000
  0.4890    0.78100
  0.4910    0.83800
  0.4930    0.89200
  0.4950    0.94200
  0.4970    0.98900
  0.4990    1.03200
  0.5010    1.07200
  0.5030    1.10700
  0.5050    1.13900
  0.5070    1.16700
  0.5090    1.19100
  0.5110    1.21200
  0.5130    1.22800
  0.5150    1.24100
  0.5170    1.25100
  0.5190    1.25600
  0.5210    1.25900
  0.5230    1.25700
  0.5250    1.25200
  0.5270    1.24400
  0.5290    1.23300
  0.5310    1.21800
  0.5330    1.20100
  0.5350    1.18000
  0.5370    1.15600
  0.5390    1.13000
  0.5410    1.10100
  0.5430    1.06900
  0.5450    1.03500
  0.5470    1.00000
  0.5490    0.96200
  0.5510    0.92300
  0.5530    0.88100
  0.5550    0.83800
  0.5570    0.79400
  0.5590    0.74900
  0.5610    0.70200
  0.5630    0.65400
  0.5650    0.60500
  0.5670    0.55600
  0.5690    0.50700
  0.5710    0.45700
  0.5730    0.40700
  0.5750    0.35700
  0.5770    0.30700
  0.5790    0.25700
  0.5810    0.20800
  0.5830    0.15900
  0.5850    0.11100
  0.5870    0.06300
  0.5890    0.01700
  0.5910   -0.02900
  0.5930   -0.07400
  0.5950   -0.11800
  0.5970   -0.16100
  0.5990   -0.20300
  0.6010   -0.24400
  0.6030   -0.28300
  0.6050   -0.32100
  0.6070   -0.35700
  0.6090   -0.39200
  0.6110   -0.42500
  0.6130   -0.45700
  0.6150   -0.48700
  0.6170   -0.51500
  0.6190   -0.54200
  0.6210   -0.56800
  0.6230   -0.59200
  0.6250   -0.61400
  0.6270   -0.63400
  0.6290   -0.65300
  0.6310   -0.67000
  0.6330   -0.68500
  0.6350   -0.69900
  0.6370   -0.71200
  0.6390   -0.72200
  0.6410   -0.73100
  0.6430   -0.73900
  0.6450   -0.74500
  0.6470   -0.75000
  0.6490   -0.75300
  0.6510   -0.75500
  0.6530   -0.75600
  0.6550   -0.75600
  0.6570   -0.75400
  0.6590   -0.75100
  0.6610   -0.74600
  0.6630   -0.74100
  0.6650   -0.73500
  0.6670   -0.72800
  0.6690   -0.71900
  0.6710   -0.71000
  0.6730   -0.70000
  0.6750   -0.68900
  0.6770   -0.67600
  0.6790   -0.66300
  0.6810   -0.65000
  0.6830   -0.63500
  0.6850   -0.62100
  0.6870   -0.60500
  0.6890   -0.58900
  0.6910   -0.57300
  0.6930   -0.55600
  0.6950   -0.53800
  0.6970   -0.52000
  0.6990   -0.50200
  0.7010   -0.48300
  0.7030   -0.46400
  0.7050   -0.44400
  0.7070   -0.42500
  0.7090   -0.40500
  0.7110   -0.38400
  0.7130   -0.36400
  0.7150   -0.34300
  0.7170   -0.32300
  0.7190   -0.30200
  0.7210   -0.28100
  0.7230   -0.26000
  0.7250   -0.23900
  0.7270   -0.21800
  0.7290   -0.19800
  0.7310   -0.17700
  0.7330   -0.15600
  0.7350   -0.13500
  0.7370   -0.11400
  0.7390   -0.09300
  0.7410   -0.07300
  0.7430   -0.05300
  0.7450   -0.03300
  0.7470   -0.01300
  0.7490    0.00700
  0.7510    0.02600
  0.7530    0.04500
  0.7550    0.06400
  0.7570    0.08300
  0.7590    0.10100
  0.7610    0.11900
  0.7630    0.13600
  0.7650    0.15300
  0.7670    0.17000
  0.7690    0.18600
  0.7710    0.20200
  0.7730    0.21700
  0.7750    0.23200
  0.7770    0.24600
  0.7790    0.26000
  0.7810    0.27300
  0.7830    0.28500
  0.7850    0.29700
  0.7870    0.30800
  0.7890    0.31900
  0.7910    0.32900
  0.7930    0.33800
  0.7950    0.34700
  0.7970    0.35500
  0.7990    0.36300
  0.8010    0.36900
  0.8030    0.37500
  0.8050    0.38000
  0.8070    0.38500
  0.8090    0.38900
  0.8110    0.39200
  0.8130    0.39500
  0.8150    0.39700
  0.8170    0.39800
  0.8190    0.39800
  0.8210    0.39800
  0.8230    0.39700
  0.8250    0.39500
  0.8270    0.39300
  0.8290    0.39000
  0.8310    0.38700
  0.8330    0.38300
  0.8350    0.37800
  0.8370    0.37300
  0.8390    0.36700
  0.8410    0.36100
  0.8430    0.35400
  0.8450    0.34700
  0.8470    0.33900
  0.8490    0.33100
  0.8510    0.32200
  0.8530    0.31300
  0.8550    0.30400
  0.8570    0.29400
  0.8590    0.28400
  0.8610    0.27300
  0.8630    0.26300
  0.8650    0.25100
  0.8670    0.24000
  0.8690    0.22900
  0.8710    0.21700
  0.8730    0.20500
  0.8750    0.19300
  0.8770    0.18100
  0.8790    0.16900
  0.8810    0.15600
  0.8830    0.14400
  0.8850    0.13200
  0.8870    0.11900
  0.8890    0.10700
  0.8910    0.09500
  0.8930    0.08300
  0.8950    0.07100
  0.8970    0.05900
  0.8990    0.04700
  0.9010    0.03600
  0.9030    0.02400
  0.9050    0.01300
  0.9070    0.00200
  0.9090   -0.00900
  0.9110   -0.01900
  0.9130   -0.02900
  0.9150   -0.03900
  0.9170   -0.04900
  0.9190   -0.05800
  0.9210   -0.06700
  0.9230   -0.07600
  0.9250   -0.08400
  0.9270   -0.09200
  0.9290   -0.10000
  0.9310   -0.10700
  0.9330   -0.11400
  0.9350   -0.12000
  0.9370   -0.12600
  0.9390   -0.13200
  0.9410   -0.13700
  0.9430   -0.14200
  0.9450   -0.14600
  0.9470   -0.15000
  0.9490   -0.15400
  0.9510   -0.15700
  0.9530   -0.16000
  0.9550   -0.16200
  0.9570   -0.16400
  0.9590   -0.16600
  0.9610   -0.16700
  0.9630   -0.16800
  0.9650   -0.16800
  0.9670   -0.16800
  0.9690   -0.16800
  0.9710   -0.16800
  0.9730   -0.16700
  0.9750   -0.16600
  0.9770   -0.16400
  0.9790   -0.16200
  0.9810   -0.16000
  0.9830   -0.15800
  0.9850   -0.15500
  0.9870   -0.15200
  0.9890   -0.14900
  0.9910   -0.14500
  0.9930   -0.14200
  0.9950   -0.13800
  0.9970   -0.13400
  0.9990   -0.13000
  1.0010   -0.12500
  1.0030   -0.12100
  1.0050   -0.11600
  1.0070   -0.11100
  1.0090   -0.10600
  1.0110   -0.10100
  1.0130   -0.09500
  1.0150   -0.09000
  1.0170   -0.08400
  1.0190   -0.07800
  1.0210   -0.07300
  1.0230   -0.06700
  1.0250   -0.06200
  1.0270   -0.05600
  1.0290   -0.05100
  1.0310   -0.04500
  1.0330   -0.03900
  1.0350   -0.03400
  1.0370   -0.02800
  1.0390   -0.02200
  1.0410   -0.01700
  1.0430   -0.01200
  1.0450   -0.00600
  1.0470   -0.00100
  1.0490    0.00400
  1.0510    0.00800
  1.0530    0.01300
  1.0550    0.01700
  1.0570    0.02200
  1.0590    0.02600
  1.0610    0.03000
  1.0630    0.03400
  1.0650    0.03800
  1.0670    0.04100
  1.0690    0.04500
  1.0710    0.04800
  1.0730    0.05100
  1.0750    0.05400
  1.0770    0.05700
  1.0790    0.05900
  1.0810    0.06200
  1.0830    0.06400
  1.0850    0.06600
  1.0870    0.06800
  1.0890    0.06900
  1.0910    0.07100
  1.0930    0.07200
  1.0950    0.07300
  1.0970    0.07500
  1.0990    0.07500
  1.1010    0.07600
  1.1030    0.07700
  1.1050    0.07700
  1.1070    0.07700
  1.1090    0.07700
  1.1110    0.07700
  1.1130    0.07700
  1.1150    0.07700
  1.1170    0.07700
  1.1190    0.07600
  1.1210    0.07600
  1.1230    0.07500
  1.1250    0.07500
  1.1270    0.07400
  1.1290    0.07400
  1.1310    0.07300
  1.1330    0.07200
  1.1350    0.07100
  1.1370    0.07000
  1.1390    0.07000
  1.1410    0.06900
  1.1430    0.06800
  1.1450    0.06700
  1.1470    0.06600
  1.1490    0.06500
  1.1510    0.06400
  1.1530    0.06300
  1.1550    0.06200
  1.1570    0.06100
  1.1590    0.06000
  1.1610    0.05900
  1.1630    0.05800
  1.1650    0.05700
  1.1670    0.05600
  1.1690    0.05500
  1.1710    0.05400
  1.1730    0.05300
  1.1750    0.05200
  1.1770    0.05100
  1.1790    0.04900
  1.1810    0.04800
  1.1830    0.04700
  1.1850    0.04600
  1.1870    0.04500
  1.1890    0.04400
  1.1910    0.04200
  1.1930    0.04100
  1.1950    0.04000
  1.1970    0.03800
  1.1990    0.03700
  1.2010    0.03600
  1.2030    0.03400
  1.2050    0.03300
  1.2070    0.03100
  1.2090    0.03000
  1.2110    0.02800
  1.2130    0.02700
  1.2150    0.02500
  1.2170    0.02300
  1.2190    0.02100
  1.2210    0.02000
  1.2230    0.01800
  1.2250    0.01600
  1.2270    0.01400
  1.2290    0.01200
  1.2310    0.01100
  1.2330    0.00900
  1.2350    0.00700
  1.2370    0.00500
  1.2390    0.00300
  1.2410    0.00100
  1.2430   -0.00100
  1.2450   -0.00300
  1.2470   -0.00500
  1.2490   -0.00700
  1.2510   -0.00800
  1.2530   -0.01000
  1.2550   -0.01200
  1.2570   -0.01400
  1.2590   -0.01500
  1.2610   -0.01700
  1.2630   -0.01900
  1.2650   -0.02000
  1.2670   -0.02200
  1.2690   -0.02300
  1.2710   -0.02500
  1.2730   -0.02600
  1.2750   -0.02800
  1.2770   -0.02900
  1.2790   -0.03000
  1.2810   -0.03100
  1.2830   -0.03200
  1.2850   -0.03300
  1.2870   -0.03400
  1.2890   -0.03500
  1.2910   -0.03500
  1.2930   -0.03600
  1.2950   -0.03600
  1.2970   -0.03600
  1.2990   -0.03600
  1.3010   -0.03600
  1.3030   -0.03600
  1.3050   -0.03600
  1.3070   -0.03600
  1.3090   -0.03500
  1.3110   -0.03400
  1.3130   -0.03300
  1.3150   -0.03200
  1.3170   -0.03100
  1.3190   -0.03000
  1.3210   -0.02800
  1.3230   -0.02700
  1.3250   -0.02500
  1.3270   -0.02400
  1.3290   -0.02200
  1.3310   -0.02000
  1.3330   -0.01800
  1.3350   -0.01600
  1.3370   -0.01300
  1.3390   -0.01100
  1.3410   -0.00800
  1.3430   -0.00600
  1.3450   -0.00300
  1.3470   -0.00100
  1.3490    0.00200
  1.3510    0.00500
  1.3530    0.00800
  1.3550    0.01100
  1.3570    0.01400
  1.3590    0.01600
  1.3610    0.01900
  1.3630    0.02200
  1.3650    0.02500
  1.3670    0.02700
  1.3690    0.03000
  1.3710    0.03200
  1.3730    0.03500
  1.3750    0.03700
  1.3770    0.03900
  1.3790    0.04100
  1.3810    0.04200
  1.3830    0.04400
  1.3850    0.04500
  1.3870    0.04600
  1.3890    0.04700
  1.3910    0.04800
  1.3930    0.04800
  1.3950    0.04800
  1.3970    0.04700
  1.3990    0.04600
