# z (nm)   (kJ/mol)
  0.5070   17.55210
  0.5090   17.06220
  0.5110   16.58330
  0.5130   16.04780
  0.5150   15.47730
  0.5170   14.93140
  0.5190   14.39450
  0.5210   13.85480
  0.5230   13.30420
  0.5250   12.72850
  0.5270   12.14340
  0.5290   11.56060
  0.5310   10.97340
  0.5330   10.37720
  0.5350    9.78990
  0.5370    9.20660
  0.5390    8.63290
  0.5410    8.06240
  0.5430    7.49430
  0.5450    6.93100
  0.5470    6.37290
  0.5490    5.82800
  0.5510    5.29500
  0.5530    4.77250
  0.5550    4.26090
  0.5570    3.76440
  0.5590    3.27950
  0.5610    2.80030
  0.5630    2.33510
  0.5650    1.88930
  0.5670    1.46190
  0.5690    1.05050
  0.5710    0.65600
  0.5730    0.27820
  0.5750   -0.08370
  0.5770   -0.42530
  0.5790   -0.74680
  0.5810   -1.05010
  0.5830   -1.33540
  0.5850   -1.60200
  0.5870   -1.84930
  0.5890   -2.07760
  0.5910   -2.28640
  0.5930   -2.47420
  0.5950   -2.64170
  0.5970   -2.79070
  0.5990   -2.92080
  0.6010   -3.03120
  0.6030   -3.12320
  0.6050   -3.19600
  0.6070   -3.25020
  0.6090   -3.28670
  0.6110   -3.30560
  0.6130   -3.30690
  0.6150   -3.29140
  0.6170   -3.26060
  0.6190   -3.21360
  0.6210   -3.15200
  0.6230   -3.07700
  0.6250   -2.98910
  0.6270   -2.89010
  0.6290   -2.78070
  0.6310   -2.66120
  0.6330   -2.53210
  0.6350   -2.39560
  0.6370   -2.25170
  0.6390   -2.10260
  0.6410   -1.94980
  0.6430   -1.79210
  0.6450   -1.63260
  0.6470   -1.47200
  0.6490   -1.31210
  0.6510   -1.15460
  0.6530   -0.99820
  0.6550   -0.84300
  0.6570   -0.69280
  0.6590   -0.54850
  0.6610   -0.41000
  0.6630   -0.27710
  0.6650   -0.15000
  0.6670   -0.03110
  0.6690    0.07870
  0.6710    0.17940
  0.6730    0.27230
  0.6750    0.35720
  0.6770    0.43180
  0.6790    0.49710
  0.6810    0.55280
  0.6830    0.59810
  0.6850    0.63430
  0.6870    0.66090
  0.6890    0.67780
  0.6910    0.68580
  0.6930    0.68590
  0.6950    0.67900
  0.6970    0.66370
  0.6990    0.64090
  0.7010    0.61170
  0.7030    0.57380
  0.7050    0.52850
  0.7070    0.47940
  0.7090    0.42670
  0.7110    0.36880
  0.7130    0.30690
  0.7150    0.24070
  0.7170    0.17190
  0.7190    0.10160
  0.7210    0.02890
  0.7230   -0.04650
  0.7250   -0.12300
  0.7270   -0.19930
  0.7290   -0.27640
  0.7310   -0.35330
  0.7330   -0.42940
  0.7350   -0.50500
  0.7370   -0.57930
  0.7390   -0.65170
  0.7410   -0.72270
  0.7430   -0.79230
  0.7450   -0.86020
  0.7470   -0.92520
  0.7490   -0.98750
  0.7510   -1.04710
  0.7530   -1.10360
  0.7550   -1.15680
  0.7570   -1.20690
  0.7590   -1.25360
  0.7610   -1.29700
  0.7630   -1.33720
  0.7650   -1.37390
  0.7670   -1.40710
  0.7690   -1.43690
  0.7710   -1.46350
  0.7730   -1.48660
  0.7750   -1.50620
  0.7770   -1.52290
  0.7790   -1.53630
  0.7810   -1.54620
  0.7830   -1.55280
  0.7850   -1.55670
  0.7870   -1.55790
  0.7890   -1.55700
  0.7910   -1.55400
  0.7930   -1.54850
  0.7950   -1.54060
  0.7970   -1.53050
  0.7990   -1.51840
  0.8010   -1.50430
  0.8030   -1.48860
  0.8050   -1.47150
  0.8070   -1.45290
  0.8090   -1.43330
  0.8110   -1.41220
  0.8130   -1.38970
  0.8150   -1.36650
  0.8170   -1.34230
  0.8190   -1.31710
  0.8210   -1.29170
  0.8230   -1.26570
  0.8250   -1.23920
  0.8270   -1.21210
  0.8290   -1.18440
  0.8310   -1.15640
  0.8330   -1.12800
  0.8350   -1.09940
  0.8370   -1.07060
  0.8390   -1.04160
  0.8410   -1.01260
  0.8430   -0.98360
  0.8450   -0.95440
  0.8470   -0.92560
  0.8490   -0.89680
  0.8510   -0.86790
  0.8530   -0.83900
  0.8550   -0.81020
  0.8570   -0.78160
  0.8590   -0.75310
  0.8610   -0.72480
  0.8630   -0.69650
  0.8650   -0.66840
  0.8670   -0.64060
  0.8690   -0.61290
  0.8710   -0.58540
  0.8730   -0.55810
  0.8750   -0.53110
  0.8770   -0.50440
  0.8790   -0.47790
  0.8810   -0.45170
  0.8830   -0.42580
  0.8850   -0.40030
  0.8870   -0.37500
  0.8890   -0.35030
  0.8910   -0.32590
  0.8930   -0.30190
  0.8950   -0.27820
  0.8970   -0.25490
  0.8990   -0.23210
  0.9010   -0.20970
  0.9030   -0.18770
  0.9050   -0.16630
  0.9070   -0.14550
  0.9090   -0.12530
  0.9110   -0.10570
  0.9130   -0.08680
  0.9150   -0.06820
  0.9170   -0.05030
  0.9190   -0.03320
  0.9210   -0.01680
  0.9230   -0.00090
  0.9250    0.01430
  0.9270    0.02870
  0.9290    0.04240
  0.9310    0.05540
  0.9330    0.06780
  0.9350    0.07940
  0.9370    0.09020
  0.9390    0.10020
  0.9410    0.10950
  0.9430    0.11800
  0.9450    0.12570
  0.9470    0.13270
  0.9490    0.13880
  0.9510    0.14420
  0.9530    0.14880
  0.9550    0.15280
  0.9570    0.15620
  0.9590    0.15890
  0.9610    0.16090
  0.9630    0.16220
  0.9650    0.16290
  0.9670    0.16310
  0.9690    0.16260
  0.9710    0.16150
  0.9730    0.15990
  0.9750    0.15780
  0.9770    0.15520
  0.9790    0.15190
  0.9810    0.14800
  0.9830    0.14370
  0.9850    0.13910
  0.9870    0.13400
  0.9890    0.12870
  0.9910    0.12310
  0.9930    0.11720
  0.9950    0.11110
  0.9970    0.10460
  0.9990    0.09780
  1.0010    0.09080
  1.0030    0.08370
  1.0050    0.07640
  1.0070    0.06900
  1.0090    0.06140
  1.0110    0.05380
  1.0130    0.04620
  1.0150    0.03850
  1.0170    0.03050
  1.0190    0.02250
  1.0210    0.01460
  1.0230    0.00690
  1.0250   -0.00080
  1.0270   -0.00860
  1.0290   -0.01630
  1.0310   -0.02390
  1.0330   -0.03140
  1.0350   -0.03900
  1.0370   -0.04650
  1.0390   -0.05390
  1.0410   -0.06120
  1.0430   -0.06840
  1.0450   -0.07550
  1.0470   -0.08250
  1.0490   -0.08940
  1.0510   -0.09610
  1.0530   -0.10280
  1.0550   -0.10940
  1.0570   -0.11570
  1.0590   -0.12180
  1.0610   -0.12800
  1.0630   -0.13410
  1.0650   -0.14010
  1.0670   -0.14570
  1.0690   -0.15130
  1.0710   -0.15670
  1.0730   -0.16200
  1.0750   -0.16690
  1.0770   -0.17160
  1.0790   -0.17620
  1.0810   -0.18070
  1.0830   -0.18490
  1.0850   -0.18890
  1.0870   -0.19270
  1.0890   -0.19620
  1.0910   -0.19970
  1.0930   -0.20300
  1.0950   -0.20610
  1.0970   -0.20890
  1.0990   -0.21150
  1.1010   -0.21380
  1.1030   -0.21600
  1.1050   -0.21780
  1.1070   -0.21940
  1.1090   -0.22080
  1.1110   -0.22200
  1.1130   -0.22300
  1.1150   -0.22390
  1.1170   -0.22440
  1.1190   -0.22460
  1.1210   -0.22470
  1.1230   -0.22470
  1.1250   -0.22430
  1.1270   -0.22370
  1.1290   -0.22300
  1.1310   -0.22210
  1.1330   -0.22100
  1.1350   -0.21970
  1.1370   -0.21810
  1.1390   -0.21630
  1.1410   -0.21440
  1.1430   -0.21240
  1.1450   -0.21020
  1.1470   -0.20790
  1.1490   -0.20550
  1.1510   -0.20290
  1.1530   -0.20010
  1.1550   -0.19720
  1.1570   -0.19420
  1.1590   -0.19100
  1.1610   -0.18770
  1.1630   -0.18440
  1.1650   -0.18080
  1.1670   -0.17730
  1.1690   -0.17360
  1.1710   -0.16980
  1.1730   -0.16610
  1.1750   -0.16240
  1.1770   -0.15840
  1.1790   -0.15440
  1.1810   -0.15040
  1.1830   -0.14640
  1.1850   -0.14230
  1.1870   -0.13820
  1.1890   -0.13410
  1.1910   -0.13000
  1.1930   -0.12590
  1.1950   -0.12180
  1.1970   -0.11770
  1.1990   -0.11360
  1.2010   -0.10960
  1.2030   -0.10530
  1.2050   -0.10090
  1.2070   -0.09670
  1.2090   -0.09260
  1.2110   -0.08850
  1.2130   -0.08430
  1.2150   -0.08010
  1.2170   -0.07620
  1.2190   -0.07210
  1.2210   -0.06790
  1.2230   -0.06390
  1.2250   -0.06000
  1.2270   -0.05610
  1.2290   -0.05200
  1.2310   -0.04800
  1.2330   -0.04390
  1.2350   -0.03990
  1.2370   -0.03610
  1.2390   -0.03220
  1.2410   -0.02840
  1.2430   -0.02460
  1.2450   -0.02080
  1.2470   -0.01720
  1.2490   -0.01340
  1.2510   -0.00970
  1.2530   -0.00630
  1.2550   -0.00290
  1.2570    0.00040
  1.2590    0.00360
  1.2610    0.00680
  1.2630    0.00980
  1.2650    0.01260
  1.2670    0.01520
  1.2690    0.01770
  1.2710    0.02010
  1.2730    0.02250
  1.2750    0.02480
  1.2770    0.02680
  1.2790    0.02880
  1.2810    0.03060
  1.2830    0.03220
  1.2850    0.03370
  1.2870    0.03490
  1.2890    0.03580
  1.2910    0.03650
  1.2930    0.03710
  1.2950    0.03760
  1.2970    0.03790
  1.2990    0.03790
  1.3010    0.03770
  1.3030    0.03740
  1.3050    0.03690
  1.3070    0.03620
  1.3090    0.03540
  1.3110    0.03430
  1.3130    0.03320
  1.3150    0.03190
  1.3170    0.03040
  1.3190    0.02890
  1.3210    0.02730
  1.3230    0.02560
  1.3250    0.02400
  1.3270    0.02220
  1.3290    0.02040
  1.3310    0.01850
  1.3330    0.01670
  1.3350    0.01500
  1.3370    0.01330
  1.3390    0.01180
  1.3410    0.01040
  1.3430    0.00900
  1.3450    0.00780
  1.3470    0.00670
  1.3490    0.00560
  1.3510    0.00490
  1.3530    0.00430
  1.3550    0.00400
  1.3570    0.00390
  1.3590    0.00400
  1.3610    0.00440
  1.3630    0.00500
  1.3650    0.00580
  1.3670    0.00690
  1.3690    0.00820
  1.3710    0.00970
  1.3730    0.01140
  1.3750    0.01360
  1.3770    0.01600
  1.3790    0.01860
  1.3810    0.02140
  1.3830    0.02440
  1.3850    0.02770
  1.3870    0.03120
  1.3890    0.03490
  1.3910    0.03880
  1.3930    0.04280
  1.3950    0.04680
  1.3970    0.05060
  1.3990    0.05430
