# z (nm)   (kJ/mol)
  0.5650   23.15740
  0.5670   22.83480
  0.5690   22.49070
  0.5710   22.17600
  0.5730   21.85160
  0.5750   21.51070
  0.5770   21.16210
  0.5790   20.80840
  0.5810   20.45380
  0.5830   20.08340
  0.5850   19.70940
  0.5870   19.32740
  0.5890   18.94050
  0.5910   18.56040
  0.5930   18.17230
  0.5950   17.77190
  0.5970   17.37870
  0.5990   16.98650
  0.6010   16.58220
  0.6030   16.17390
  0.6050   15.76840
  0.6070   15.36540
  0.6090   14.96710
  0.6110   14.56710
  0.6130   14.16920
  0.6150   13.77710
  0.6170   13.37860
  0.6190   12.97980
  0.6210   12.58090
  0.6230   12.18680
  0.6250   11.79940
  0.6270   11.40830
  0.6290   11.01960
  0.6310   10.63370
  0.6330   10.24670
  0.6350    9.85950
  0.6370    9.47640
  0.6390    9.09470
  0.6410    8.71300
  0.6430    8.33640
  0.6450    7.96620
  0.6470    7.60540
  0.6490    7.25240
  0.6510    6.90100
  0.6530    6.55370
  0.6550    6.21430
  0.6570    5.87950
  0.6590    5.55000
  0.6610    5.23050
  0.6630    4.91900
  0.6650    4.61350
  0.6670    4.31730
  0.6690    4.02910
  0.6710    3.74910
  0.6730    3.48000
  0.6750    3.22220
  0.6770    2.97520
  0.6790    2.73830
  0.6810    2.51090
  0.6830    2.29410
  0.6850    2.08870
  0.6870    1.89320
  0.6890    1.70710
  0.6910    1.53140
  0.6930    1.36600
  0.6950    1.20910
  0.6970    1.06130
  0.6990    0.92290
  0.7010    0.79350
  0.7030    0.67180
  0.7050    0.55750
  0.7070    0.44990
  0.7090    0.34920
  0.7110    0.25540
  0.7130    0.16750
  0.7150    0.08500
  0.7170    0.00760
  0.7190   -0.06390
  0.7210   -0.13000
  0.7230   -0.19230
  0.7250   -0.24940
  0.7270   -0.30090
  0.7290   -0.34860
  0.7310   -0.39290
  0.7330   -0.43400
  0.7350   -0.47150
  0.7370   -0.50540
  0.7390   -0.53580
  0.7410   -0.56340
  0.7430   -0.58890
  0.7450   -0.61210
  0.7470   -0.63290
  0.7490   -0.65130
  0.7510   -0.66790
  0.7530   -0.68330
  0.7550   -0.69760
  0.7570   -0.71110
  0.7590   -0.72290
  0.7610   -0.73400
  0.7630   -0.74450
  0.7650   -0.75420
  0.7670   -0.76350
  0.7690   -0.77270
  0.7710   -0.78190
  0.7730   -0.79070
  0.7750   -0.80000
  0.7770   -0.80980
  0.7790   -0.81970
  0.7810   -0.82990
  0.7830   -0.84120
  0.7850   -0.85320
  0.7870   -0.86540
  0.7890   -0.87850
  0.7910   -0.89230
  0.7930   -0.90660
  0.7950   -0.92110
  0.7970   -0.93650
  0.7990   -0.95250
  0.8010   -0.96890
  0.8030   -0.98590
  0.8050   -1.00370
  0.8070   -1.02170
  0.8090   -1.03990
  0.8110   -1.05840
  0.8130   -1.07710
  0.8150   -1.09630
  0.8170   -1.11540
  0.8190   -1.13430
  0.8210   -1.15300
  0.8230   -1.17170
  0.8250   -1.19010
  0.8270   -1.20790
  0.8290   -1.22570
  0.8310   -1.24300
  0.8330   -1.25960
  0.8350   -1.27570
  0.8370   -1.29120
  0.8390   -1.30570
  0.8410   -1.31920
  0.8430   -1.33220
  0.8450   -1.34440
  0.8470   -1.35560
  0.8490   -1.36600
  0.8510   -1.37510
  0.8530   -1.38300
  0.8550   -1.38990
  0.8570   -1.39610
  0.8590   -1.40130
  0.8610   -1.40520
  0.8630   -1.40800
  0.8650   -1.40970
  0.8670   -1.41010
  0.8690   -1.40960
  0.8710   -1.40800
  0.8730   -1.40530
  0.8750   -1.40120
  0.8770   -1.39610
  0.8790   -1.39000
  0.8810   -1.38290
  0.8830   -1.37480
  0.8850   -1.36570
  0.8870   -1.35530
  0.8890   -1.34420
  0.8910   -1.33240
  0.8930   -1.31960
  0.8950   -1.30600
  0.8970   -1.29160
  0.8990   -1.27630
  0.9010   -1.26030
  0.9030   -1.24360
  0.9050   -1.22610
  0.9070   -1.20810
  0.9090   -1.18930
  0.9110   -1.16990
  0.9130   -1.15000
  0.9150   -1.12950
  0.9170   -1.10850
  0.9190   -1.08720
  0.9210   -1.06550
  0.9230   -1.04320
  0.9250   -1.02060
  0.9270   -0.99770
  0.9290   -0.97440
  0.9310   -0.95090
  0.9330   -0.92720
  0.9350   -0.90330
  0.9370   -0.87900
  0.9390   -0.85450
  0.9410   -0.83010
  0.9430   -0.80550
  0.9450   -0.78080
  0.9470   -0.75620
  0.9490   -0.73160
  0.9510   -0.70700
  0.9530   -0.68240
  0.9550   -0.65800
  0.9570   -0.63370
  0.9590   -0.60970
  0.9610   -0.58580
  0.9630   -0.56220
  0.9650   -0.53870
  0.9670   -0.51550
  0.9690   -0.49270
  0.9710   -0.47050
  0.9730   -0.44870
  0.9750   -0.42720
  0.9770   -0.40620
  0.9790   -0.38550
  0.9810   -0.36550
  0.9830   -0.34640
  0.9850   -0.32770
  0.9870   -0.30950
  0.9890   -0.29200
  0.9910   -0.27510
  0.9930   -0.25890
  0.9950   -0.24340
  0.9970   -0.22840
  0.9990   -0.21420
  1.0010   -0.20070
  1.0030   -0.18780
  1.0050   -0.17570
  1.0070   -0.16420
  1.0090   -0.15360
  1.0110   -0.14350
  1.0130   -0.13420
  1.0150   -0.12570
  1.0170   -0.11800
  1.0190   -0.11090
  1.0210   -0.10440
  1.0230   -0.09870
  1.0250   -0.09370
  1.0270   -0.08920
  1.0290   -0.08540
  1.0310   -0.08220
  1.0330   -0.07950
  1.0350   -0.07760
  1.0370   -0.07600
  1.0390   -0.07510
  1.0410   -0.07480
  1.0430   -0.07490
  1.0450   -0.07550
  1.0470   -0.07640
  1.0490   -0.07790
  1.0510   -0.07970
  1.0530   -0.08180
  1.0550   -0.08430
  1.0570   -0.08710
  1.0590   -0.09030
  1.0610   -0.09360
  1.0630   -0.09710
  1.0650   -0.10100
  1.0670   -0.10490
  1.0690   -0.10900
  1.0710   -0.11330
  1.0730   -0.11780
  1.0750   -0.12230
  1.0770   -0.12680
  1.0790   -0.13140
  1.0810   -0.13620
  1.0830   -0.14110
  1.0850   -0.14590
  1.0870   -0.15060
  1.0890   -0.15510
  1.0910   -0.15970
  1.0930   -0.16430
  1.0950   -0.16880
  1.0970   -0.17340
  1.0990   -0.17770
  1.1010   -0.18200
  1.1030   -0.18620
  1.1050   -0.19030
  1.1070   -0.19430
  1.1090   -0.19810
  1.1110   -0.20180
  1.1130   -0.20520
  1.1150   -0.20870
  1.1170   -0.21200
  1.1190   -0.21520
  1.1210   -0.21830
  1.1230   -0.22130
  1.1250   -0.22410
  1.1270   -0.22680
  1.1290   -0.22930
  1.1310   -0.23160
  1.1330   -0.23380
  1.1350   -0.23590
  1.1370   -0.23780
  1.1390   -0.23950
  1.1410   -0.24120
  1.1430   -0.24270
  1.1450   -0.24400
  1.1470   -0.24530
  1.1490   -0.24650
  1.1510   -0.24760
  1.1530   -0.24840
  1.1550   -0.24910
  1.1570   -0.24970
  1.1590   -0.25020
  1.1610   -0.25060
  1.1630   -0.25080
  1.1650   -0.25090
  1.1670   -0.25090
  1.1690   -0.25070
  1.1710   -0.25020
  1.1730   -0.24960
  1.1750   -0.24890
  1.1770   -0.24810
  1.1790   -0.24700
  1.1810   -0.24580
  1.1830   -0.24450
  1.1850   -0.24310
  1.1870   -0.24150
  1.1890   -0.23970
  1.1910   -0.23760
  1.1930   -0.23540
  1.1950   -0.23300
  1.1970   -0.23050
  1.1990   -0.22780
  1.2010   -0.22490
  1.2030   -0.22190
  1.2050   -0.21870
  1.2070   -0.21530
  1.2090   -0.21170
  1.2110   -0.20810
  1.2130   -0.20430
  1.2150   -0.20020
  1.2170   -0.19600
  1.2190   -0.19170
  1.2210   -0.18730
  1.2230   -0.18290
  1.2250   -0.17840
  1.2270   -0.17380
  1.2290   -0.16900
  1.2310   -0.16420
  1.2330   -0.15920
  1.2350   -0.15420
  1.2370   -0.14910
  1.2390   -0.14400
  1.2410   -0.13880
  1.2430   -0.13350
  1.2450   -0.12820
  1.2470   -0.12300
  1.2490   -0.11780
  1.2510   -0.11250
  1.2530   -0.10710
  1.2550   -0.10190
  1.2570   -0.09670
  1.2590   -0.09150
  1.2610   -0.08630
  1.2630   -0.08110
  1.2650   -0.07600
  1.2670   -0.07090
  1.2690   -0.06580
  1.2710   -0.06070
  1.2730   -0.05570
  1.2750   -0.05080
  1.2770   -0.04600
  1.2790   -0.04120
  1.2810   -0.03640
  1.2830   -0.03150
  1.2850   -0.02670
  1.2870   -0.02200
  1.2890   -0.01730
  1.2910   -0.01270
  1.2930   -0.00810
  1.2950   -0.00360
  1.2970    0.00100
  1.2990    0.00550
  1.3010    0.01000
  1.3030    0.01440
  1.3050    0.01860
  1.3070    0.02300
  1.3090    0.02740
  1.3110    0.03180
  1.3130    0.03600
  1.3150    0.04020
  1.3170    0.04450
  1.3190    0.04870
  1.3210    0.05300
  1.3230    0.05710
  1.3250    0.06130
  1.3270    0.06560
  1.3290    0.06990
  1.3310    0.07400
  1.3330    0.07820
  1.3350    0.08240
  1.3370    0.08670
  1.3390    0.09090
  1.3410    0.09520
  1.3430    0.09950
  1.3450    0.10390
  1.3470    0.10830
  1.3490    0.11270
  1.3510    0.11710
  1.3530    0.12160
  1.3550    0.12610
  1.3570    0.13070
  1.3590    0.13540
  1.3610    0.14010
  1.3630    0.14490
  1.3650    0.14970
  1.3670    0.15470
  1.3690    0.15960
  1.3710    0.16460
  1.3730    0.16960
  1.3750    0.17480
  1.3770    0.18000
  1.3790    0.18520
  1.3810    0.19050
  1.3830    0.19580
  1.3850    0.20100
  1.3870    0.20630
  1.3890    0.21140
  1.3910    0.21660
  1.3930    0.22170
  1.3950    0.22660
  1.3970    0.23130
  1.3990    0.23560
