# z (nm)   (kJ/mol)
  0.2000  318.33489
  0.2020  314.65829
  0.2040  310.64290
  0.2060  307.27507
  0.2080  304.30408
  0.2100  301.35251
  0.2120  298.32616
  0.2140  295.13997
  0.2160  291.71043
  0.2180  287.98934
  0.2200  283.91444
  0.2220  279.42716
  0.2240  274.46683
  0.2260  268.97678
  0.2280  262.90898
  0.2300  256.22655
  0.2320  248.90327
  0.2340  240.92957
  0.2360  232.32635
  0.2380  223.15668
  0.2400  213.51256
  0.2420  203.51834
  0.2440  193.35752
  0.2460  183.24013
  0.2480  173.43248
  0.2500  164.20893
  0.2520  155.78597
  0.2540  148.27455
  0.2560  141.64693
  0.2580  135.77183
  0.2600  130.45685
  0.2620  125.45661
  0.2640  120.59033
  0.2660  115.83855
  0.2680  111.30720
  0.2700  107.14986
  0.2720  103.50303
  0.2740  100.34993
  0.2760   97.52500
  0.2780   94.85344
  0.2800   92.29006
  0.2820   89.92557
  0.2840   87.90594
  0.2860   86.28848
  0.2880   85.03090
  0.2900   84.02336
  0.2920   83.12183
  0.2940   82.19209
  0.2960   81.15950
  0.2980   80.02375
  0.3000   78.85217
  0.3020   77.69566
  0.3040   76.55535
  0.3060   75.36909
  0.3080   74.11288
  0.3100   72.75913
  0.3120   71.33658
  0.3140   69.90629
  0.3160   68.52232
  0.3180   67.22988
  0.3200   66.02663
  0.3220   64.90006
  0.3240   63.81713
  0.3260   62.74154
  0.3280   61.65956
  0.3300   60.58385
  0.3320   59.53411
  0.3340   58.51769
  0.3360   57.58004
  0.3380   56.72524
  0.3400   55.95227
  0.3420   55.21884
  0.3440   54.52519
  0.3460   53.88170
  0.3480   53.31028
  0.3500   52.82753
  0.3520   52.43078
  0.3540   52.11161
  0.3560   51.86802
  0.3580   51.64355
  0.3600   51.39514
  0.3620   51.08916
  0.3640   50.71260
  0.3660   50.27685
  0.3680   49.79390
  0.3700   49.24559
  0.3720   48.61105
  0.3740   47.85376
  0.3760   46.94454
  0.3780   45.84033
  0.3800   44.52104
  0.3820   42.96444
  0.3840   41.18944
  0.3860   39.23356
  0.3880   37.12376
  0.3900   34.92696
  0.3920   32.68348
  0.3940   30.43759
  0.3960   28.22987
  0.3980   26.08794
  0.4000   24.02859
  0.4020   22.06986
  0.4040   20.23613
  0.4060   18.53995
  0.4080   17.00964
  0.4100   15.66216
  0.4120   14.48341
  0.4140   13.43704
  0.4160   12.50893
  0.4180   11.68279
  0.4200   10.92190
  0.4220   10.22952
  0.4240    9.61950
  0.4260    9.08101
  0.4280    8.61067
  0.4300    8.19769
  0.4320    7.82347
  0.4340    7.46896
  0.4360    7.11834
  0.4380    6.77750
  0.4400    6.44690
  0.4420    6.11358
  0.4440    5.80199
  0.4460    5.50495
  0.4480    5.22406
  0.4500    4.95280
  0.4520    4.69359
  0.4540    4.43567
  0.4560    4.17871
  0.4580    3.93108
  0.4600    3.70947
  0.4620    3.49825
  0.4640    3.32352
  0.4660    3.18192
  0.4680    3.07251
  0.4700    2.99837
  0.4720    2.94933
  0.4740    2.90759
  0.4760    2.89160
  0.4780    2.89417
  0.4800    2.91715
  0.4820    2.95945
  0.4840    3.04759
  0.4860    3.16413
  0.4880    3.31217
  0.4900    3.48497
  0.4920    3.67412
  0.4940    3.86723
  0.4960    4.05498
  0.4980    4.22446
  0.5000    4.36955
  0.5020    4.49067
  0.5040    4.58562
  0.5060    4.64964
  0.5080    4.67308
  0.5100    4.65310
  0.5120    4.59415
  0.5140    4.48920
  0.5160    4.34382
  0.5180    4.16939
  0.5200    3.95944
  0.5220    3.73685
  0.5240    3.51598
  0.5260    3.30759
  0.5280    3.11462
  0.5300    2.94358
  0.5320    2.78849
  0.5340    2.65007
  0.5360    2.51944
  0.5380    2.40013
  0.5400    2.28536
  0.5420    2.16696
  0.5440    2.06319
  0.5460    1.96712
  0.5480    1.87129
  0.5500    1.78357
  0.5520    1.70373
  0.5540    1.63166
  0.5560    1.56760
  0.5580    1.50725
  0.5600    1.45147
  0.5620    1.40390
  0.5640    1.36093
  0.5660    1.32205
  0.5680    1.29262
  0.5700    1.26914
  0.5720    1.24736
  0.5740    1.22046
  0.5760    1.19656
  0.5780    1.16871
  0.5800    1.14044
  0.5820    1.11045
  0.5840    1.09132
  0.5860    1.07566
  0.5880    1.06563
  0.5900    1.06282
  0.5920    1.07516
  0.5940    1.09539
  0.5960    1.12731
  0.5980    1.15463
  0.6000    1.17355
  0.6020    1.19224
  0.6040    1.20590
  0.6060    1.20378
  0.6080    1.19564
  0.6100    1.16657
  0.6120    1.13373
  0.6140    1.08814
  0.6160    1.04281
  0.6180    0.99755
  0.6200    0.95553
  0.6220    0.92029
  0.6240    0.90042
  0.6260    0.87836
  0.6280    0.85509
  0.6300    0.83833
  0.6320    0.82582
  0.6340    0.81314
  0.6360    0.80507
  0.6380    0.80208
  0.6400    0.80490
  0.6420    0.80885
  0.6440    0.81565
  0.6460    0.80655
  0.6480    0.78364
  0.6500    0.74011
  0.6520    0.68071
  0.6540    0.60347
  0.6560    0.52182
  0.6580    0.43962
  0.6600    0.36249
  0.6620    0.29522
  0.6640    0.24612
  0.6660    0.20882
  0.6680    0.18923
  0.6700    0.18003
  0.6720    0.17656
  0.6740    0.17557
  0.6760    0.17593
  0.6780    0.16953
  0.6800    0.15111
  0.6820    0.12056
  0.6840    0.09044
  0.6860    0.04964
  0.6880    0.00717
  0.6900   -0.04463
  0.6920   -0.09520
  0.6940   -0.14292
  0.6960   -0.18505
  0.6980   -0.22967
  0.7000   -0.26340
  0.7020   -0.29747
  0.7040   -0.33341
  0.7060   -0.36804
  0.7080   -0.39980
  0.7100   -0.42713
  0.7120   -0.45225
  0.7140   -0.47524
  0.7160   -0.49510
  0.7180   -0.51029
  0.7200   -0.52160
  0.7220   -0.53113
  0.7240   -0.53862
  0.7260   -0.53802
  0.7280   -0.55552
  0.7300   -0.57686
  0.7320   -0.60193
  0.7340   -0.62968
  0.7360   -0.65058
  0.7380   -0.67717
  0.7400   -0.70469
  0.7420   -0.72943
  0.7440   -0.75396
  0.7460   -0.77013
  0.7480   -0.78096
  0.7500   -0.79073
  0.7520   -0.79474
  0.7540   -0.79639
  0.7560   -0.80031
  0.7580   -0.80225
  0.7600   -0.80350
  0.7620   -0.81544
  0.7640   -0.82171
  0.7660   -0.83017
  0.7680   -0.83853
  0.7700   -0.85211
  0.7720   -0.86302
  0.7740   -0.87740
  0.7760   -0.89463
  0.7780   -0.90440
  0.7800   -0.90553
  0.7820   -0.90407
  0.7840   -0.89677
  0.7860   -0.89141
  0.7880   -0.89271
  0.7900   -0.88758
  0.7920   -0.87436
  0.7940   -0.86249
  0.7960   -0.85479
  0.7980   -0.84601
  0.8000   -0.83937
  0.8020   -0.83419
  0.8040   -0.83124
  0.8060   -0.82619
  0.8080   -0.81896
  0.8100   -0.81225
  0.8120   -0.80045
  0.8140   -0.78367
  0.8160   -0.76097
  0.8180   -0.73409
  0.8200   -0.70604
  0.8220   -0.66895
  0.8240   -0.63040
  0.8260   -0.58990
  0.8280   -0.56062
  0.8300   -0.52905
  0.8320   -0.50194
  0.8340   -0.48210
  0.8360   -0.47103
  0.8380   -0.46294
  0.8400   -0.45539
  0.8420   -0.44658
  0.8440   -0.43511
  0.8460   -0.42290
  0.8480   -0.40320
  0.8500   -0.38395
  0.8520   -0.36330
  0.8540   -0.33911
  0.8560   -0.31685
  0.8580   -0.29184
  0.8600   -0.26829
  0.8620   -0.24733
  0.8640   -0.22257
  0.8660   -0.19994
  0.8680   -0.17384
  0.8700   -0.14500
  0.8720   -0.11606
  0.8740   -0.08826
  0.8760   -0.06041
  0.8780   -0.03285
  0.8800   -0.01218
  0.8820    0.01105
  0.8840    0.03701
  0.8860    0.05502
  0.8880    0.07752
  0.8900    0.09450
  0.8920    0.10926
  0.8940    0.12622
  0.8960    0.13494
  0.8980    0.14075
  0.9000    0.14720
  0.9020    0.15292
  0.9040    0.15434
  0.9060    0.15621
  0.9080    0.15570
  0.9100    0.16042
  0.9120    0.16322
  0.9140    0.16535
  0.9160    0.17673
  0.9180    0.18404
  0.9200    0.18886
  0.9220    0.19475
  0.9240    0.20355
  0.9260    0.21566
  0.9280    0.22287
  0.9300    0.22734
  0.9320    0.23185
  0.9340    0.23583
  0.9360    0.23867
  0.9380    0.24041
  0.9400    0.23758
  0.9420    0.22840
  0.9440    0.22479
  0.9460    0.21597
  0.9480    0.20779
  0.9500    0.19734
  0.9520    0.18627
  0.9540    0.18368
  0.9560    0.18056
  0.9580    0.18330
  0.9600    0.19697
  0.9620    0.20702
  0.9640    0.21825
  0.9660    0.23229
  0.9680    0.23719
  0.9700    0.24129
  0.9720    0.24924
  0.9740    0.23979
  0.9760    0.22557
  0.9780    0.20763
  0.9800    0.18385
  0.9820    0.15861
  0.9840    0.13350
  0.9860    0.10722
  0.9880    0.09183
  0.9900    0.07962
  0.9920    0.07688
  0.9940    0.08003
  0.9960    0.07827
  0.9980    0.09080
  1.0000    0.09994
  1.0020    0.10851
  1.0040    0.10747
  1.0060    0.09987
  1.0080    0.08358
  1.0100    0.06734
  1.0120    0.04936
  1.0140    0.03375
  1.0160    0.03009
  1.0180    0.03537
  1.0200    0.03962
  1.0220    0.05146
  1.0240    0.05801
  1.0260    0.06740
  1.0280    0.06221
  1.0300    0.05015
  1.0320    0.03404
  1.0340    0.01554
  1.0360   -0.01083
  1.0380   -0.03829
  1.0400   -0.06149
  1.0420   -0.07584
  1.0440   -0.08524
  1.0460   -0.08233
  1.0480   -0.07893
  1.0500   -0.06912
  1.0520   -0.05015
  1.0540   -0.03497
  1.0560   -0.02128
  1.0580   -0.00296
  1.0600    0.00096
  1.0620   -0.00041
  1.0640   -0.00326
  1.0660   -0.01370
  1.0680   -0.03173
  1.0700   -0.05502
  1.0720   -0.07495
  1.0740   -0.09401
  1.0760   -0.10900
  1.0780   -0.12523
  1.0800   -0.13051
  1.0820   -0.13139
  1.0840   -0.12346
  1.0860   -0.11413
  1.0880   -0.10726
  1.0900   -0.09392
  1.0920   -0.07766
  1.0940   -0.06418
  1.0960   -0.05586
  1.0980   -0.04553
  1.1000   -0.04239
  1.1020   -0.04553
  1.1040   -0.05289
  1.1060   -0.06666
  1.1080   -0.07996
  1.1100   -0.09888
  1.1120   -0.11218
  1.1140   -0.13394
  1.1160   -0.14453
  1.1180   -0.15275
  1.1200   -0.16289
  1.1220   -0.17303
  1.1240   -0.17769
  1.1260   -0.17809
  1.1280   -0.18408
  1.1300   -0.18383
  1.1320   -0.18669
  1.1340   -0.18952
  1.1360   -0.19020
  1.1380   -0.18514
  1.1400   -0.18267
  1.1420   -0.17883
  1.1440   -0.17840
  1.1460   -0.17775
  1.1480   -0.18086
  1.1500   -0.18762
  1.1520   -0.20068
  1.1540   -0.21122
  1.1560   -0.22062
  1.1580   -0.22718
  1.1600   -0.23506
  1.1620   -0.23560
  1.1640   -0.23460
  1.1660   -0.23223
  1.1680   -0.22628
  1.1700   -0.21691
  1.1720   -0.20802
  1.1740   -0.19682
  1.1760   -0.17409
  1.1780   -0.16225
  1.1800   -0.15206
  1.1820   -0.13535
  1.1840   -0.12869
  1.1860   -0.11933
  1.1880   -0.11519
  1.1900   -0.10427
  1.1920   -0.09766
  1.1940   -0.09662
  1.1960   -0.10398
  1.1980   -0.10956
  1.2000   -0.11101
