# z (nm)   (kJ/mol)
  0.2340  325.47816
  0.2360  320.75911
  0.2380  316.02695
  0.2400  311.90592
  0.2420  308.35321
  0.2440  304.86995
  0.2460  301.31936
  0.2480  297.66539
  0.2500  293.86560
  0.2520  289.89413
  0.2540  285.71883
  0.2560  281.31939
  0.2580  276.68087
  0.2600  271.79598
  0.2620  266.64272
  0.2640  261.22777
  0.2660  255.55104
  0.2680  249.61330
  0.2700  243.42147
  0.2720  236.99169
  0.2740  230.34487
  0.2760  223.51239
  0.2780  216.54009
  0.2800  209.49497
  0.2820  202.45733
  0.2840  195.51311
  0.2860  188.76064
  0.2880  182.28822
  0.2900  176.15208
  0.2920  170.38653
  0.2940  165.00329
  0.2960  160.01259
  0.2980  155.44287
  0.3000  151.30781
  0.3020  147.59281
  0.3040  144.20405
  0.3060  140.98096
  0.3080  137.76442
  0.3100  134.47141
  0.3120  131.13628
  0.3140  127.86966
  0.3160  124.74355
  0.3180  121.77105
  0.3200  118.91716
  0.3220  116.13571
  0.3240  113.41064
  0.3260  110.77153
  0.3280  108.22009
  0.3300  105.75635
  0.3320  103.33981
  0.3340  100.89722
  0.3360   98.39940
  0.3380   95.82931
  0.3400   93.25777
  0.3420   90.75542
  0.3440   88.37359
  0.3460   86.08859
  0.3480   83.83514
  0.3500   81.56530
  0.3520   79.26820
  0.3540   77.03625
  0.3560   74.96051
  0.3580   73.04572
  0.3600   71.19702
  0.3620   69.29540
  0.3640   67.32849
  0.3660   65.44359
  0.3680   63.80377
  0.3700   62.45781
  0.3720   61.32825
  0.3740   60.30055
  0.3760   59.29348
  0.3780   58.27560
  0.3800   57.19950
  0.3820   56.06783
  0.3840   54.92371
  0.3860   53.81602
  0.3880   52.78924
  0.3900   51.89394
  0.3920   51.10921
  0.3940   50.40852
  0.3960   49.72660
  0.3980   49.04037
  0.4000   48.31907
  0.4020   47.58558
  0.4040   46.85670
  0.4060   46.16175
  0.4080   45.53012
  0.4100   44.99118
  0.4120   44.53218
  0.4140   44.13459
  0.4160   43.74323
  0.4180   43.32050
  0.4200   42.86413
  0.4220   42.38309
  0.4240   41.91249
  0.4260   41.47869
  0.4280   41.08735
  0.4300   40.74201
  0.4320   40.43652
  0.4340   40.16129
  0.4360   39.90272
  0.4380   39.66616
  0.4400   39.44323
  0.4420   39.22059
  0.4440   38.99106
  0.4460   38.74543
  0.4480   38.46805
  0.4500   38.15231
  0.4520   37.80863
  0.4540   37.43518
  0.4560   37.04379
  0.4580   36.64985
  0.4600   36.26160
  0.4620   35.87934
  0.4640   35.49427
  0.4660   35.09659
  0.4680   34.68326
  0.4700   34.23096
  0.4720   33.74136
  0.4740   33.21022
  0.4760   32.64454
  0.4780   32.05724
  0.4800   31.45629
  0.4820   30.85649
  0.4840   30.26069
  0.4860   29.67313
  0.4880   29.08575
  0.4900   28.49711
  0.4920   27.90101
  0.4940   27.30084
  0.4960   26.69749
  0.4980   26.10348
  0.5000   25.51321
  0.5020   24.93232
  0.5040   24.36110
  0.5060   23.79321
  0.5080   23.21542
  0.5100   22.63569
  0.5120   22.05512
  0.5140   21.47269
  0.5160   20.89007
  0.5180   20.31092
  0.5200   19.72722
  0.5220   19.15959
  0.5240   18.60149
  0.5260   18.05385
  0.5280   17.52256
  0.5300   16.99332
  0.5320   16.47358
  0.5340   15.96839
  0.5360   15.46468
  0.5380   14.97518
  0.5400   14.48577
  0.5420   14.01953
  0.5440   13.56527
  0.5460   13.12926
  0.5480   12.71013
  0.5500   12.30628
  0.5520   11.92290
  0.5540   11.55284
  0.5560   11.19404
  0.5580   10.85069
  0.5600   10.50832
  0.5620   10.17077
  0.5640    9.83882
  0.5660    9.50772
  0.5680    9.17100
  0.5700    8.84038
  0.5720    8.52206
  0.5740    8.20924
  0.5760    7.91114
  0.5780    7.61737
  0.5800    7.33360
  0.5820    7.06286
  0.5840    6.80433
  0.5860    6.56349
  0.5880    6.33176
  0.5900    6.10224
  0.5920    5.88563
  0.5940    5.66636
  0.5960    5.45729
  0.5980    5.25722
  0.6000    5.06360
  0.6020    4.87621
  0.6040    4.69157
  0.6060    4.52118
  0.6080    4.35011
  0.6100    4.18165
  0.6120    4.01674
  0.6140    3.85286
  0.6160    3.68483
  0.6180    3.51222
  0.6200    3.33998
  0.6220    3.17269
  0.6240    3.01196
  0.6260    2.85631
  0.6280    2.70643
  0.6300    2.56878
  0.6320    2.44109
  0.6340    2.32517
  0.6360    2.21243
  0.6380    2.10583
  0.6400    2.00365
  0.6420    1.90541
  0.6440    1.80341
  0.6460    1.70626
  0.6480    1.60617
  0.6500    1.50684
  0.6520    1.40695
  0.6540    1.31449
  0.6560    1.22998
  0.6580    1.14416
  0.6600    1.06393
  0.6620    0.98764
  0.6640    0.91606
  0.6660    0.84352
  0.6680    0.77025
  0.6700    0.70301
  0.6720    0.63537
  0.6740    0.56988
  0.6760    0.50735
  0.6780    0.45064
  0.6800    0.40336
  0.6820    0.35966
  0.6840    0.31638
  0.6860    0.27432
  0.6880    0.23678
  0.6900    0.20187
  0.6920    0.16299
  0.6940    0.12667
  0.6960    0.07900
  0.6980    0.03673
  0.7000   -0.00327
  0.7020   -0.04388
  0.7040   -0.08488
  0.7060   -0.11648
  0.7080   -0.14791
  0.7100   -0.17996
  0.7120   -0.20823
  0.7140   -0.24093
  0.7160   -0.27279
  0.7180   -0.30032
  0.7200   -0.32517
  0.7220   -0.35397
  0.7240   -0.37758
  0.7260   -0.40422
  0.7280   -0.42732
  0.7300   -0.45541
  0.7320   -0.48378
  0.7340   -0.51198
  0.7360   -0.53314
  0.7380   -0.55065
  0.7400   -0.57285
  0.7420   -0.59135
  0.7440   -0.61421
  0.7460   -0.64031
  0.7480   -0.66478
  0.7500   -0.70103
  0.7520   -0.74092
  0.7540   -0.78296
  0.7560   -0.82053
  0.7580   -0.85946
  0.7600   -0.88770
  0.7620   -0.91469
  0.7640   -0.92997
  0.7660   -0.94072
  0.7680   -0.94517
  0.7700   -0.94695
  0.7720   -0.94519
  0.7740   -0.94504
  0.7760   -0.95164
  0.7780   -0.96439
  0.7800   -0.98571
  0.7820   -1.01708
  0.7840   -1.04991
  0.7860   -1.09001
  0.7880   -1.12957
  0.7900   -1.16545
  0.7920   -1.19581
  0.7940   -1.21923
  0.7960   -1.23132
  0.7980   -1.23354
  0.8000   -1.22672
  0.8020   -1.21203
  0.8040   -1.19087
  0.8060   -1.16701
  0.8080   -1.13352
  0.8100   -1.10825
  0.8120   -1.08815
  0.8140   -1.06867
  0.8160   -1.05221
  0.8180   -1.04104
  0.8200   -1.03954
  0.8220   -1.03670
  0.8240   -1.03877
  0.8260   -1.03648
  0.8280   -1.04359
  0.8300   -1.05030
  0.8320   -1.05009
  0.8340   -1.04660
  0.8360   -1.03732
  0.8380   -1.02025
  0.8400   -0.99930
  0.8420   -0.97008
  0.8440   -0.94112
  0.8460   -0.90878
  0.8480   -0.87652
  0.8500   -0.83493
  0.8520   -0.79922
  0.8540   -0.75384
  0.8560   -0.71229
  0.8580   -0.67564
  0.8600   -0.63999
  0.8620   -0.60157
  0.8640   -0.56899
  0.8660   -0.53772
  0.8680   -0.50534
  0.8700   -0.47976
  0.8720   -0.46107
  0.8740   -0.44124
  0.8760   -0.42371
  0.8780   -0.40405
  0.8800   -0.38485
  0.8820   -0.37239
  0.8840   -0.35682
  0.8860   -0.34101
  0.8880   -0.31422
  0.8900   -0.28702
  0.8920   -0.26300
  0.8940   -0.23039
  0.8960   -0.19256
  0.8980   -0.15425
  0.9000   -0.11956
  0.9020   -0.08785
  0.9040   -0.05509
  0.9060   -0.02452
  0.9080    0.00162
  0.9100    0.02323
  0.9120    0.03783
  0.9140    0.04834
  0.9160    0.05161
  0.9180    0.05324
  0.9200    0.05655
  0.9220    0.05422
  0.9240    0.05547
  0.9260    0.06087
  0.9280    0.06481
  0.9300    0.06859
  0.9320    0.07586
  0.9340    0.09125
  0.9360    0.09919
  0.9380    0.10879
  0.9400    0.11865
  0.9420    0.13142
  0.9440    0.14327
  0.9460    0.14797
  0.9480    0.15612
  0.9500    0.15781
  0.9520    0.16918
  0.9540    0.17902
  0.9560    0.18805
  0.9580    0.19616
  0.9600    0.20563
  0.9620    0.21220
  0.9640    0.22672
  0.9660    0.23276
  0.9680    0.23423
  0.9700    0.23795
  0.9720    0.23760
  0.9740    0.23756
  0.9760    0.23097
  0.9780    0.22118
  0.9800    0.20967
  0.9820    0.19385
  0.9840    0.17513
  0.9860    0.16092
  0.9880    0.14927
  0.9900    0.13800
  0.9920    0.12518
  0.9940    0.12734
  0.9960    0.12824
  0.9980    0.12603
  1.0000    0.13242
  1.0020    0.13714
  1.0040    0.14527
  1.0060    0.14693
  1.0080    0.15279
  1.0100    0.14303
  1.0120    0.14279
  1.0140    0.13922
  1.0160    0.12820
  1.0180    0.11884
  1.0200    0.10480
  1.0220    0.08771
  1.0240    0.07354
  1.0260    0.06083
  1.0280    0.04642
  1.0300    0.02808
  1.0320    0.01863
  1.0340    0.00693
  1.0360   -0.00297
  1.0380   -0.00767
  1.0400   -0.01243
  1.0420   -0.01711
  1.0440   -0.01487
  1.0460   -0.02220
  1.0480   -0.02532
  1.0500   -0.03211
  1.0520   -0.03334
  1.0540   -0.04486
  1.0560   -0.05775
  1.0580   -0.07070
  1.0600   -0.08350
  1.0620   -0.10163
  1.0640   -0.11821
  1.0660   -0.13442
  1.0680   -0.15200
  1.0700   -0.16561
  1.0720   -0.16435
  1.0740   -0.16236
  1.0760   -0.14853
  1.0780   -0.13820
  1.0800   -0.12475
  1.0820   -0.11035
  1.0840   -0.10242
  1.0860   -0.08987
  1.0880   -0.08820
  1.0900   -0.08933
  1.0920   -0.09926
  1.0940   -0.11344
  1.0960   -0.12559
  1.0980   -0.14377
  1.1000   -0.15544
  1.1020   -0.16520
  1.1040   -0.17550
  1.1060   -0.17905
  1.1080   -0.18151
  1.1100   -0.17878
  1.1120   -0.17134
  1.1140   -0.15523
  1.1160   -0.14208
  1.1180   -0.13492
  1.1200   -0.13200
  1.1220   -0.12632
  1.1240   -0.12625
  1.1260   -0.12513
  1.1280   -0.13170
  1.1300   -0.13492
  1.1320   -0.14557
  1.1340   -0.15168
  1.1360   -0.14767
  1.1380   -0.14800
  1.1400   -0.14271
  1.1420   -0.13107
  1.1440   -0.12487
  1.1460   -0.10488
  1.1480   -0.08648
  1.1500   -0.06835
  1.1520   -0.04845
  1.1540   -0.03610
  1.1560   -0.01915
  1.1580   -0.01313
  1.1600   -0.01404
  1.1620   -0.02271
  1.1640   -0.03341
  1.1660   -0.04480
  1.1680   -0.06296
  1.1700   -0.08420
  1.1720   -0.10457
  1.1740   -0.11680
  1.1760   -0.13181
  1.1780   -0.13783
  1.1800   -0.13941
  1.1820   -0.14005
  1.1840   -0.12603
  1.1860   -0.11500
  1.1880   -0.09290
  1.1900   -0.06634
  1.1920   -0.03825
  1.1940   -0.00837
  1.1960    0.01495
  1.1980    0.02109
  1.2000    0.02842
