# z (nm)   (kJ/mol)
  0.1660  299.92766
  0.1680  296.21794
  0.1700  292.41433
  0.1720  288.77916
  0.1740  285.41514
  0.1760  281.98479
  0.1780  278.49503
  0.1800  274.80616
  0.1820  270.83548
  0.1840  266.53548
  0.1860  261.84958
  0.1880  256.71924
  0.1900  251.09637
  0.1920  244.92597
  0.1940  238.16718
  0.1960  230.77377
  0.1980  222.70628
  0.2000  213.94294
  0.2020  204.50030
  0.2040  194.46459
  0.2060  183.97595
  0.2080  173.21095
  0.2100  162.33854
  0.2120  151.51481
  0.2140  140.87420
  0.2160  130.55198
  0.2180  120.68323
  0.2200  111.37161
  0.2220  102.65219
  0.2240   94.50220
  0.2260   86.85867
  0.2280   79.66507
  0.2300   72.90365
  0.2320   66.58164
  0.2340   60.69674
  0.2360   55.22057
  0.2380   50.10262
  0.2400   45.31659
  0.2420   40.85188
  0.2440   36.67501
  0.2460   32.73213
  0.2480   29.00237
  0.2500   25.52391
  0.2520   22.38668
  0.2540   19.62900
  0.2560   17.21606
  0.2580   15.05295
  0.2600   13.08374
  0.2620   11.27060
  0.2640    9.64133
  0.2660    8.19576
  0.2680    6.92544
  0.2700    5.77718
  0.2720    4.71783
  0.2740    3.71354
  0.2760    2.76065
  0.2780    1.90624
  0.2800    1.15836
  0.2820    0.50504
  0.2840   -0.07345
  0.2860   -0.61254
  0.2880   -1.14736
  0.2900   -1.67110
  0.2920   -2.19705
  0.2940   -2.69844
  0.2960   -3.16570
  0.2980   -3.59197
  0.3000   -3.98850
  0.3020   -4.37563
  0.3040   -4.76879
  0.3060   -5.17529
  0.3080   -5.58166
  0.3100   -5.96832
  0.3120   -6.32659
  0.3140   -6.64433
  0.3160   -6.92590
  0.3180   -7.19473
  0.3200   -7.45814
  0.3220   -7.72851
  0.3240   -7.99289
  0.3260   -8.24888
  0.3280   -8.46727
  0.3300   -8.64202
  0.3320   -8.76386
  0.3340   -8.83641
  0.3360   -8.88146
  0.3380   -8.90334
  0.3400   -8.88683
  0.3420   -8.83779
  0.3440   -8.73731
  0.3460   -8.58166
  0.3480   -8.36597
  0.3500   -8.08127
  0.3520   -7.74301
  0.3540   -7.34188
  0.3560   -6.88609
  0.3580   -6.39010
  0.3600   -5.84796
  0.3620   -5.27129
  0.3640   -4.67194
  0.3660   -4.04533
  0.3680   -3.38254
  0.3700   -2.70180
  0.3720   -2.00707
  0.3740   -1.29469
  0.3760   -0.58932
  0.3780    0.07505
  0.3800    0.67383
  0.3820    1.18417
  0.3840    1.61201
  0.3860    1.98640
  0.3880    2.31382
  0.3900    2.60585
  0.3920    2.84460
  0.3940    2.99286
  0.3960    3.03752
  0.3980    2.97171
  0.4000    2.81253
  0.4020    2.61264
  0.4040    2.41608
  0.4060    2.25198
  0.4080    2.13796
  0.4100    2.05743
  0.4120    1.98297
  0.4140    1.90262
  0.4160    1.80969
  0.4180    1.69875
  0.4200    1.58401
  0.4220    1.47374
  0.4240    1.37464
  0.4260    1.28264
  0.4280    1.19090
  0.4300    1.09066
  0.4320    0.98974
  0.4340    0.86790
  0.4360    0.72539
  0.4380    0.56948
  0.4400    0.39273
  0.4420    0.20810
  0.4440    0.01393
  0.4460   -0.20198
  0.4480   -0.43295
  0.4500   -0.67530
  0.4520   -0.90278
  0.4540   -1.11042
  0.4560   -1.29302
  0.4580   -1.44284
  0.4600   -1.57379
  0.4620   -1.68741
  0.4640   -1.80068
  0.4660   -1.91408
  0.4680   -2.04017
  0.4700   -2.15901
  0.4720   -2.27228
  0.4740   -2.37364
  0.4760   -2.45738
  0.4780   -2.51755
  0.4800   -2.55665
  0.4820   -2.57710
  0.4840   -2.59550
  0.4860   -2.61150
  0.4880   -2.62032
  0.4900   -2.64139
  0.4920   -2.65465
  0.4940   -2.64961
  0.4960   -2.62732
  0.4980   -2.58376
  0.5000   -2.52349
  0.5020   -2.45237
  0.5040   -2.38274
  0.5060   -2.32768
  0.5080   -2.28988
  0.5100   -2.27873
  0.5120   -2.28955
  0.5140   -2.30198
  0.5160   -2.31355
  0.5180   -2.30610
  0.5200   -2.28659
  0.5220   -2.25692
  0.5240   -2.23231
  0.5260   -2.22445
  0.5280   -2.23590
  0.5300   -2.27826
  0.5320   -2.34115
  0.5340   -2.41442
  0.5360   -2.50386
  0.5380   -2.59933
  0.5400   -2.69002
  0.5420   -2.75118
  0.5440   -2.78439
  0.5460   -2.78776
  0.5480   -2.77041
  0.5500   -2.74307
  0.5520   -2.72763
  0.5540   -2.73046
  0.5560   -2.74212
  0.5580   -2.77807
  0.5600   -2.82239
  0.5620   -2.86132
  0.5640   -2.89387
  0.5660   -2.91796
  0.5680   -2.92838
  0.5700   -2.93765
  0.5720   -2.93231
  0.5740   -2.92958
  0.5760   -2.92538
  0.5780   -2.91117
  0.5800   -2.89510
  0.5820   -2.87778
  0.5840   -2.86054
  0.5860   -2.83881
  0.5880   -2.83301
  0.5900   -2.83295
  0.5920   -2.82441
  0.5940   -2.81786
  0.5960   -2.80549
  0.5980   -2.78193
  0.6000   -2.74220
  0.6020   -2.68535
  0.6040   -2.61754
  0.6060   -2.53478
  0.6080   -2.44937
  0.6100   -2.36324
  0.6120   -2.27718
  0.6140   -2.19836
  0.6160   -2.12670
  0.6180   -2.05425
  0.6200   -1.98844
  0.6220   -1.91731
  0.6240   -1.84818
  0.6260   -1.77500
  0.6280   -1.69930
  0.6300   -1.61934
  0.6320   -1.54161
  0.6340   -1.47189
  0.6360   -1.40034
  0.6380   -1.32488
  0.6400   -1.26079
  0.6420   -1.19164
  0.6440   -1.13169
  0.6460   -1.06974
  0.6480   -1.01878
  0.6500   -0.98312
  0.6520   -0.95319
  0.6540   -0.94182
  0.6560   -0.93048
  0.6580   -0.92092
  0.6600   -0.91082
  0.6620   -0.89012
  0.6640   -0.86422
  0.6660   -0.83511
  0.6680   -0.80149
  0.6700   -0.75866
  0.6720   -0.73008
  0.6740   -0.70284
  0.6760   -0.67326
  0.6780   -0.65169
  0.6800   -0.62806
  0.6820   -0.60494
  0.6840   -0.58562
  0.6860   -0.56668
  0.6880   -0.55455
  0.6900   -0.55893
  0.6920   -0.57836
  0.6940   -0.61543
  0.6960   -0.65828
  0.6980   -0.70215
  0.7000   -0.75265
  0.7020   -0.78129
  0.7040   -0.79289
  0.7060   -0.77635
  0.7080   -0.73803
  0.7100   -0.68598
  0.7120   -0.62698
  0.7140   -0.57364
  0.7160   -0.53294
  0.7180   -0.51351
  0.7200   -0.51173
  0.7220   -0.52954
  0.7240   -0.55140
  0.7260   -0.57249
  0.7280   -0.59294
  0.7300   -0.59189
  0.7320   -0.58387
  0.7340   -0.55958
  0.7360   -0.52410
  0.7380   -0.48250
  0.7400   -0.44123
  0.7420   -0.40389
  0.7440   -0.37488
  0.7460   -0.35349
  0.7480   -0.34645
  0.7500   -0.34417
  0.7520   -0.35531
  0.7540   -0.36512
  0.7560   -0.37336
  0.7580   -0.39457
  0.7600   -0.40821
  0.7620   -0.41942
  0.7640   -0.42400
  0.7660   -0.43177
  0.7680   -0.43416
  0.7700   -0.43711
  0.7720   -0.43909
  0.7740   -0.44114
  0.7760   -0.43826
  0.7780   -0.43438
  0.7800   -0.42934
  0.7820   -0.41927
  0.7840   -0.41245
  0.7860   -0.41137
  0.7880   -0.39748
  0.7900   -0.40438
  0.7920   -0.40421
  0.7940   -0.40315
  0.7960   -0.40273
  0.7980   -0.39928
  0.8000   -0.39933
  0.8020   -0.38838
  0.8040   -0.38501
  0.8060   -0.37913
  0.8080   -0.37232
  0.8100   -0.37424
  0.8120   -0.37293
  0.8140   -0.37467
  0.8160   -0.37728
  0.8180   -0.37894
  0.8200   -0.37896
  0.8220   -0.38239
  0.8240   -0.38080
  0.8260   -0.37875
  0.8280   -0.38034
  0.8300   -0.37588
  0.8320   -0.37050
  0.8340   -0.35901
  0.8360   -0.36136
  0.8380   -0.35676
  0.8400   -0.35792
  0.8420   -0.35494
  0.8440   -0.35320
  0.8460   -0.35573
  0.8480   -0.35606
  0.8500   -0.35329
  0.8520   -0.35572
  0.8540   -0.35723
  0.8560   -0.35573
  0.8580   -0.35945
  0.8600   -0.36197
  0.8620   -0.36306
  0.8640   -0.36548
  0.8660   -0.36807
  0.8680   -0.37156
  0.8700   -0.37402
  0.8720   -0.38120
  0.8740   -0.38859
  0.8760   -0.39299
  0.8780   -0.39865
  0.8800   -0.39958
  0.8820   -0.40006
  0.8840   -0.40162
  0.8860   -0.38792
  0.8880   -0.37272
  0.8900   -0.34640
  0.8920   -0.32154
  0.8940   -0.29062
  0.8960   -0.26178
  0.8980   -0.22998
  0.9000   -0.20472
  0.9020   -0.18530
  0.9040   -0.16992
  0.9060   -0.15774
  0.9080   -0.15212
  0.9100   -0.14856
  0.9120   -0.15386
  0.9140   -0.15242
  0.9160   -0.15637
  0.9180   -0.16143
  0.9200   -0.16576
  0.9220   -0.17129
  0.9240   -0.17481
  0.9260   -0.18541
  0.9280   -0.19934
  0.9300   -0.21466
  0.9320   -0.23094
  0.9340   -0.24628
  0.9360   -0.25607
  0.9380   -0.26107
  0.9400   -0.25938
  0.9420   -0.24689
  0.9440   -0.22965
  0.9460   -0.21026
  0.9480   -0.18527
  0.9500   -0.16363
  0.9520   -0.14680
  0.9540   -0.13465
  0.9560   -0.13215
  0.9580   -0.13416
  0.9600   -0.14529
  0.9620   -0.16044
  0.9640   -0.17815
  0.9660   -0.19676
  0.9680   -0.21317
  0.9700   -0.21847
  0.9720   -0.21863
  0.9740   -0.21467
  0.9760   -0.21169
  0.9780   -0.20381
  0.9800   -0.19645
  0.9820   -0.19060
  0.9840   -0.18170
  0.9860   -0.17856
  0.9880   -0.18223
  0.9900   -0.18912
  0.9920   -0.19348
  0.9940   -0.19136
  0.9960   -0.18823
  0.9980   -0.18020
  1.0000   -0.17058
  1.0020   -0.16229
  1.0040   -0.16102
  1.0060   -0.16128
  1.0080   -0.16681
  1.0100   -0.18003
  1.0120   -0.19056
  1.0140   -0.19428
  1.0160   -0.19568
  1.0180   -0.19063
  1.0200   -0.17810
  1.0220   -0.15198
  1.0240   -0.11421
  1.0260   -0.08217
  1.0280   -0.05500
  1.0300   -0.02933
  1.0320   -0.02428
  1.0340   -0.02276
  1.0360   -0.03898
  1.0380   -0.05886
  1.0400   -0.09445
  1.0420   -0.12878
  1.0440   -0.15166
  1.0460   -0.16138
  1.0480   -0.14314
  1.0500   -0.10196
  1.0520   -0.03425
  1.0540    0.05171
  1.0560    0.15400
  1.0580    0.23637
  1.0600    0.28714
  1.0620    0.29147
  1.0640    0.24177
  1.0660    0.13712
  1.0680   -0.00407
  1.0700   -0.14660
  1.0720   -0.26978
  1.0740   -0.33427
  1.0760   -0.32827
  1.0780   -0.25577
  1.0800   -0.12323
  1.0820    0.03678
  1.0840    0.19144
  1.0860    0.32474
  1.0880    0.40525
  1.0900    0.43963
  1.0920    0.42815
  1.0940    0.38157
  1.0960    0.32491
  1.0980    0.25941
  1.1000    0.20010
  1.1020    0.15035
  1.1040    0.11496
  1.1060    0.09137
  1.1080    0.08945
  1.1100    0.09829
  1.1120    0.11619
  1.1140    0.14094
  1.1160    0.17198
  1.1180    0.20424
  1.1200    0.23916
  1.1220    0.27238
  1.1240    0.29504
  1.1260    0.30258
  1.1280    0.30369
  1.1300    0.28939
  1.1320    0.27869
  1.1340    0.25673
  1.1360    0.23842
  1.1380    0.22524
  1.1400    0.21422
  1.1420    0.21190
  1.1440    0.20103
  1.1460    0.19339
  1.1480    0.19154
  1.1500    0.19473
  1.1520    0.19508
  1.1540    0.19038
  1.1560    0.18765
  1.1580    0.18293
  1.1600    0.18014
  1.1620    0.17843
  1.1640    0.17704
  1.1660    0.17397
  1.1680    0.17238
  1.1700    0.17235
  1.1720    0.17562
  1.1740    0.17820
  1.1760    0.18215
  1.1780    0.17828
  1.1800    0.18486
  1.1820    0.18767
  1.1840    0.19508
  1.1860    0.19069
  1.1880    0.19342
  1.1900    0.19586
  1.1920    0.19227
  1.1940    0.19031
  1.1960    0.17891
  1.1980    0.16543
  1.2000    0.14910
