# z (nm)   (kJ/mol)
  0.1840  303.49311
  0.1860  298.85314
  0.1880  295.14269
  0.1900  292.16641
  0.1920  289.16204
  0.1940  285.95877
  0.1960  282.91715
  0.1980  279.74128
  0.2000  276.41629
  0.2020  272.87061
  0.2040  269.04347
  0.2060  264.89194
  0.2080  260.35947
  0.2100  255.39400
  0.2120  249.94553
  0.2140  243.96905
  0.2160  237.41702
  0.2180  230.26549
  0.2200  222.50468
  0.2220  214.16372
  0.2240  205.30761
  0.2260  196.05967
  0.2280  186.57712
  0.2300  177.04974
  0.2320  167.66708
  0.2340  158.57172
  0.2360  149.82278
  0.2380  141.41409
  0.2400  133.32912
  0.2420  125.61492
  0.2440  118.36488
  0.2460  111.65116
  0.2480  105.47151
  0.2500   99.71831
  0.2520   94.20589
  0.2540   88.78373
  0.2560   83.47519
  0.2580   78.44701
  0.2600   73.80835
  0.2620   69.54661
  0.2640   65.57482
  0.2660   61.79110
  0.2680   58.11585
  0.2700   54.49384
  0.2720   50.94578
  0.2740   47.56282
  0.2760   44.48835
  0.2780   41.76487
  0.2800   39.29405
  0.2820   36.90114
  0.2840   34.47382
  0.2860   32.05721
  0.2880   29.71299
  0.2900   27.48175
  0.2920   25.33374
  0.2940   23.24987
  0.2960   21.21002
  0.2980   19.19810
  0.3000   17.20148
  0.3020   15.23600
  0.3040   13.34538
  0.3060   11.56712
  0.3080    9.93125
  0.3100    8.41448
  0.3120    7.01629
  0.3140    5.71411
  0.3160    4.48544
  0.3180    3.34519
  0.3200    2.27696
  0.3220    1.24941
  0.3240    0.27785
  0.3260   -0.65272
  0.3280   -1.53177
  0.3300   -2.35196
  0.3320   -3.12308
  0.3340   -3.84156
  0.3360   -4.51741
  0.3380   -5.16986
  0.3400   -5.81224
  0.3420   -6.43062
  0.3440   -7.02337
  0.3460   -7.57037
  0.3480   -8.07209
  0.3500   -8.51657
  0.3520   -8.91020
  0.3540   -9.26780
  0.3560   -9.61504
  0.3580   -9.93916
  0.3600  -10.25772
  0.3620  -10.55321
  0.3640  -10.82529
  0.3660  -11.04759
  0.3680  -11.21900
  0.3700  -11.33663
  0.3720  -11.39070
  0.3740  -11.38564
  0.3760  -11.32699
  0.3780  -11.21635
  0.3800  -11.06162
  0.3820  -10.85785
  0.3840  -10.60594
  0.3860  -10.28918
  0.3880   -9.91084
  0.3900   -9.46749
  0.3920   -8.95934
  0.3940   -8.39241
  0.3960   -7.76842
  0.3980   -7.10482
  0.4000   -6.41226
  0.4020   -5.69070
  0.4040   -4.96142
  0.4060   -4.20344
  0.4080   -3.42148
  0.4100   -2.62245
  0.4120   -1.81714
  0.4140   -1.03179
  0.4160   -0.28376
  0.4180    0.40281
  0.4200    1.00989
  0.4220    1.53792
  0.4240    1.98567
  0.4260    2.35368
  0.4280    2.65117
  0.4300    2.87169
  0.4320    3.02642
  0.4340    3.11287
  0.4360    3.13603
  0.4380    3.09234
  0.4400    2.99599
  0.4420    2.85658
  0.4440    2.68205
  0.4460    2.48480
  0.4480    2.29058
  0.4500    2.11103
  0.4520    1.92847
  0.4540    1.75457
  0.4560    1.57200
  0.4580    1.36691
  0.4600    1.14992
  0.4620    0.92453
  0.4640    0.70441
  0.4660    0.51198
  0.4680    0.35301
  0.4700    0.22165
  0.4720    0.08980
  0.4740   -0.05564
  0.4760   -0.21738
  0.4780   -0.38410
  0.4800   -0.56321
  0.4820   -0.73115
  0.4840   -0.87782
  0.4860   -1.01986
  0.4880   -1.14807
  0.4900   -1.26129
  0.4920   -1.36735
  0.4940   -1.46716
  0.4960   -1.56887
  0.4980   -1.67717
  0.5000   -1.80432
  0.5020   -1.94658
  0.5040   -2.09663
  0.5060   -2.24417
  0.5080   -2.37298
  0.5100   -2.46700
  0.5120   -2.52108
  0.5140   -2.53801
  0.5160   -2.52985
  0.5180   -2.52428
  0.5200   -2.52709
  0.5220   -2.53741
  0.5240   -2.53976
  0.5260   -2.54884
  0.5280   -2.54851
  0.5300   -2.53613
  0.5320   -2.51985
  0.5340   -2.49671
  0.5360   -2.48138
  0.5380   -2.45645
  0.5400   -2.43264
  0.5420   -2.41691
  0.5440   -2.40765
  0.5460   -2.42679
  0.5480   -2.45972
  0.5500   -2.50022
  0.5520   -2.54335
  0.5540   -2.59240
  0.5560   -2.63702
  0.5580   -2.69266
  0.5600   -2.75694
  0.5620   -2.84066
  0.5640   -2.92967
  0.5660   -3.02240
  0.5680   -3.10902
  0.5700   -3.17058
  0.5720   -3.20697
  0.5740   -3.21609
  0.5760   -3.20610
  0.5780   -3.20355
  0.5800   -3.20279
  0.5820   -3.22122
  0.5840   -3.25373
  0.5860   -3.29919
  0.5880   -3.36078
  0.5900   -3.41532
  0.5920   -3.47174
  0.5940   -3.51459
  0.5960   -3.54083
  0.5980   -3.55235
  0.6000   -3.54853
  0.6020   -3.55432
  0.6040   -3.56357
  0.6060   -3.57950
  0.6080   -3.60393
  0.6100   -3.63212
  0.6120   -3.65661
  0.6140   -3.67397
  0.6160   -3.67253
  0.6180   -3.66053
  0.6200   -3.62618
  0.6220   -3.59014
  0.6240   -3.54811
  0.6260   -3.50582
  0.6280   -3.47161
  0.6300   -3.44227
  0.6320   -3.40827
  0.6340   -3.36400
  0.6360   -3.30270
  0.6380   -3.23340
  0.6400   -3.15842
  0.6420   -3.07838
  0.6440   -3.00113
  0.6460   -2.92630
  0.6480   -2.84777
  0.6500   -2.76663
  0.6520   -2.67947
  0.6540   -2.59816
  0.6560   -2.52031
  0.6580   -2.43421
  0.6600   -2.36055
  0.6620   -2.29020
  0.6640   -2.22645
  0.6660   -2.16869
  0.6680   -2.11094
  0.6700   -2.06845
  0.6720   -2.02598
  0.6740   -1.98248
  0.6760   -1.94006
  0.6780   -1.89472
  0.6800   -1.84005
  0.6820   -1.78819
  0.6840   -1.73925
  0.6860   -1.69580
  0.6880   -1.65006
  0.6900   -1.61185
  0.6920   -1.57077
  0.6940   -1.52832
  0.6960   -1.49386
  0.6980   -1.45075
  0.7000   -1.38992
  0.7020   -1.32187
  0.7040   -1.23463
  0.7060   -1.14855
  0.7080   -1.06731
  0.7100   -0.99448
  0.7120   -0.95325
  0.7140   -0.94855
  0.7160   -0.97234
  0.7180   -1.02493
  0.7200   -1.09976
  0.7220   -1.17036
  0.7240   -1.21323
  0.7260   -1.21458
  0.7280   -1.17170
  0.7300   -1.07826
  0.7320   -0.96246
  0.7340   -0.83794
  0.7360   -0.71066
  0.7380   -0.61514
  0.7400   -0.55330
  0.7420   -0.52800
  0.7440   -0.53197
  0.7460   -0.58746
  0.7480   -0.66408
  0.7500   -0.75831
  0.7520   -0.85591
  0.7540   -0.95238
  0.7560   -1.02691
  0.7580   -1.06537
  0.7600   -1.04872
  0.7620   -0.96667
  0.7640   -0.83307
  0.7660   -0.66101
  0.7680   -0.48462
  0.7700   -0.33517
  0.7720   -0.24460
  0.7740   -0.23195
  0.7760   -0.30655
  0.7780   -0.45416
  0.7800   -0.63898
  0.7820   -0.82253
  0.7840   -0.96965
  0.7860   -1.04490
  0.7880   -1.03527
  0.7900   -0.95267
  0.7920   -0.82136
  0.7940   -0.67359
  0.7960   -0.54180
  0.7980   -0.45247
  0.8000   -0.41402
  0.8020   -0.43045
  0.8040   -0.47882
  0.8060   -0.55867
  0.8080   -0.64191
  0.8100   -0.71647
  0.8120   -0.77260
  0.8140   -0.81053
  0.8160   -0.82130
  0.8180   -0.81129
  0.8200   -0.79440
  0.8220   -0.77004
  0.8240   -0.74738
  0.8260   -0.72570
  0.8280   -0.71792
  0.8300   -0.72276
  0.8320   -0.72995
  0.8340   -0.73576
  0.8360   -0.75536
  0.8380   -0.77395
  0.8400   -0.79185
  0.8420   -0.81045
  0.8440   -0.81604
  0.8460   -0.82736
  0.8480   -0.82800
  0.8500   -0.82746
  0.8520   -0.82009
  0.8540   -0.80330
  0.8560   -0.79299
  0.8580   -0.77709
  0.8600   -0.75190
  0.8620   -0.72759
  0.8640   -0.70560
  0.8660   -0.68706
  0.8680   -0.67146
  0.8700   -0.66575
  0.8720   -0.65211
  0.8740   -0.64721
  0.8760   -0.64611
  0.8780   -0.63414
  0.8800   -0.61875
  0.8820   -0.59617
  0.8840   -0.56088
  0.8860   -0.52364
  0.8880   -0.47966
  0.8900   -0.44383
  0.8920   -0.40550
  0.8940   -0.37391
  0.8960   -0.33726
  0.8980   -0.30409
  0.9000   -0.27608
  0.9020   -0.24988
  0.9040   -0.22629
  0.9060   -0.21010
  0.9080   -0.20841
  0.9100   -0.20703
  0.9120   -0.21446
  0.9140   -0.23071
  0.9160   -0.24807
  0.9180   -0.26448
  0.9200   -0.28665
  0.9220   -0.29270
  0.9240   -0.29642
  0.9260   -0.29359
  0.9280   -0.28282
  0.9300   -0.26408
  0.9320   -0.24238
  0.9340   -0.21566
  0.9360   -0.19377
  0.9380   -0.18571
  0.9400   -0.18436
  0.9420   -0.19995
  0.9440   -0.22315
  0.9460   -0.25186
  0.9480   -0.28403
  0.9500   -0.32077
  0.9520   -0.34929
  0.9540   -0.37235
  0.9560   -0.37886
  0.9580   -0.37181
  0.9600   -0.35964
  0.9620   -0.33870
  0.9640   -0.31695
  0.9660   -0.29470
  0.9680   -0.28074
  0.9700   -0.26523
  0.9720   -0.25564
  0.9740   -0.24533
  0.9760   -0.23362
  0.9780   -0.21814
  0.9800   -0.19449
  0.9820   -0.16970
  0.9840   -0.14580
  0.9860   -0.12308
  0.9880   -0.10403
  0.9900   -0.09434
  0.9920   -0.08846
  0.9940   -0.09767
  0.9960   -0.10418
  0.9980   -0.11098
  1.0000   -0.11963
  1.0020   -0.12647
  1.0040   -0.12324
  1.0060   -0.10562
  1.0080   -0.08180
  1.0100   -0.04925
  1.0120   -0.02171
  1.0140    0.00686
  1.0160    0.03707
  1.0180    0.06650
  1.0200    0.08862
  1.0220    0.10189
  1.0240    0.10632
  1.0260    0.10677
  1.0280    0.09483
  1.0300    0.08242
  1.0320    0.06123
  1.0340    0.03433
  1.0360    0.01469
  1.0380   -0.01078
  1.0400   -0.02162
  1.0420   -0.02436
  1.0440   -0.01777
  1.0460   -0.00109
  1.0480    0.02496
  1.0500    0.06226
  1.0520    0.09942
  1.0540    0.13194
  1.0560    0.16017
  1.0580    0.18095
  1.0600    0.18924
  1.0620    0.18360
  1.0640    0.16505
  1.0660    0.13909
  1.0680    0.10331
  1.0700    0.07719
  1.0720    0.04857
  1.0740    0.02400
  1.0760    0.00530
  1.0780    0.00124
  1.0800    0.01117
  1.0820    0.02859
  1.0840    0.06266
  1.0860    0.10428
  1.0880    0.14087
  1.0900    0.18121
  1.0920    0.22674
  1.0940    0.26292
  1.0960    0.29464
  1.0980    0.31876
  1.1000    0.32184
  1.1020    0.31274
  1.1040    0.29247
  1.1060    0.26216
  1.1080    0.22284
  1.1100    0.19200
  1.1120    0.17536
  1.1140    0.16674
  1.1160    0.16329
  1.1180    0.17292
  1.1200    0.18486
  1.1220    0.20008
  1.1240    0.21592
  1.1260    0.22964
  1.1280    0.23517
  1.1300    0.24025
  1.1320    0.25146
  1.1340    0.24623
  1.1360    0.24137
  1.1380    0.23672
  1.1400    0.22662
  1.1420    0.21448
  1.1440    0.20373
  1.1460    0.19070
  1.1480    0.17909
  1.1500    0.15937
  1.1520    0.14143
  1.1540    0.12670
  1.1560    0.11339
  1.1580    0.09659
  1.1600    0.08937
  1.1620    0.07599
  1.1640    0.07368
  1.1660    0.07398
  1.1680    0.08170
  1.1700    0.09550
  1.1720    0.11721
  1.1740    0.13966
  1.1760    0.15559
  1.1780    0.16648
  1.1800    0.17921
  1.1820    0.17772
  1.1840    0.16227
  1.1860    0.13621
  1.1880    0.10485
  1.1900    0.08011
  1.1920    0.05134
  1.1940    0.02877
  1.1960    0.02121
  1.1980    0.01855
  1.2000    0.01911
