# z (nm)   (kJ/mol)
  0.2120  310.74859
  0.2140  306.57121
  0.2160  302.75047
  0.2180  299.92049
  0.2200  296.88446
  0.2220  294.14185
  0.2240  291.21833
  0.2260  288.27731
  0.2280  285.16679
  0.2300  281.91858
  0.2320  278.44655
  0.2340  274.71853
  0.2360  270.68548
  0.2380  266.29002
  0.2400  261.48626
  0.2420  256.22506
  0.2440  250.48507
  0.2460  244.25678
  0.2480  237.55746
  0.2500  230.42468
  0.2520  222.89793
  0.2540  215.01183
  0.2560  206.84122
  0.2580  198.53191
  0.2600  190.28222
  0.2620  182.28694
  0.2640  174.62294
  0.2660  167.19206
  0.2680  159.89100
  0.2700  152.76253
  0.2720  145.99687
  0.2740  139.73657
  0.2760  133.90282
  0.2780  128.27861
  0.2800  122.68936
  0.2820  117.15065
  0.2840  111.78542
  0.2860  106.71304
  0.2880  101.97322
  0.2900   97.56056
  0.2920   93.43789
  0.2940   89.55924
  0.2960   85.85807
  0.2980   82.27297
  0.3000   78.77943
  0.3020   75.41548
  0.3040   72.24773
  0.3060   69.32286
  0.3080   66.63509
  0.3100   64.13195
  0.3120   61.71725
  0.3140   59.32362
  0.3160   56.94281
  0.3180   54.61015
  0.3200   52.39488
  0.3220   50.35931
  0.3240   48.52222
  0.3260   46.84434
  0.3280   45.25817
  0.3300   43.69983
  0.3320   42.14531
  0.3340   40.62233
  0.3360   39.14450
  0.3380   37.73896
  0.3400   36.41722
  0.3420   35.17409
  0.3440   33.99808
  0.3460   32.88444
  0.3480   31.81392
  0.3500   30.77335
  0.3520   29.75648
  0.3540   28.76831
  0.3560   27.81423
  0.3580   26.88289
  0.3600   25.98166
  0.3620   25.11605
  0.3640   24.28131
  0.3660   23.49625
  0.3680   22.75813
  0.3700   22.05687
  0.3720   21.39499
  0.3740   20.75757
  0.3760   20.12913
  0.3780   19.50498
  0.3800   18.89002
  0.3820   18.28549
  0.3840   17.70184
  0.3860   17.12577
  0.3880   16.55381
  0.3900   16.00794
  0.3920   15.45912
  0.3940   14.91124
  0.3960   14.35771
  0.3980   13.80952
  0.4000   13.26224
  0.4020   12.72602
  0.4040   12.18785
  0.4060   11.65120
  0.4080   11.11322
  0.4100   10.59022
  0.4120   10.09843
  0.4140    9.63670
  0.4160    9.21054
  0.4180    8.81496
  0.4200    8.43434
  0.4220    8.05218
  0.4240    7.67134
  0.4260    7.29267
  0.4280    6.91931
  0.4300    6.54041
  0.4320    6.17097
  0.4340    5.79749
  0.4360    5.42337
  0.4380    5.04879
  0.4400    4.68365
  0.4420    4.33087
  0.4440    3.99878
  0.4460    3.67256
  0.4480    3.34623
  0.4500    3.01840
  0.4520    2.68247
  0.4540    2.34357
  0.4560    2.00307
  0.4580    1.67881
  0.4600    1.36995
  0.4620    1.09760
  0.4640    0.86544
  0.4660    0.66201
  0.4680    0.48346
  0.4700    0.32086
  0.4720    0.16726
  0.4740    0.01274
  0.4760   -0.14715
  0.4780   -0.29705
  0.4800   -0.44486
  0.4820   -0.57484
  0.4840   -0.69397
  0.4860   -0.79903
  0.4880   -0.89194
  0.4900   -0.97477
  0.4920   -1.05954
  0.4940   -1.14639
  0.4960   -1.23277
  0.4980   -1.31810
  0.5000   -1.39858
  0.5020   -1.45907
  0.5040   -1.51675
  0.5060   -1.55936
  0.5080   -1.59560
  0.5100   -1.63323
  0.5120   -1.69371
  0.5140   -1.77554
  0.5160   -1.88010
  0.5180   -1.99204
  0.5200   -2.11046
  0.5220   -2.20127
  0.5240   -2.25941
  0.5260   -2.28555
  0.5280   -2.26894
  0.5300   -2.23066
  0.5320   -2.18297
  0.5340   -2.14877
  0.5360   -2.13383
  0.5380   -2.14266
  0.5400   -2.16231
  0.5420   -2.17638
  0.5440   -2.16681
  0.5460   -2.13230
  0.5480   -2.06415
  0.5500   -1.95817
  0.5520   -1.83325
  0.5540   -1.68378
  0.5560   -1.50761
  0.5580   -1.33929
  0.5600   -1.16120
  0.5620   -0.98732
  0.5640   -0.83374
  0.5660   -0.69438
  0.5680   -0.59692
  0.5700   -0.52812
  0.5720   -0.48411
  0.5740   -0.42689
  0.5760   -0.33426
  0.5780   -0.20382
  0.5800   -0.02424
  0.5820    0.18599
  0.5840    0.37297
  0.5860    0.52413
  0.5880    0.61327
  0.5900    0.63930
  0.5920    0.59853
  0.5940    0.52375
  0.5960    0.42794
  0.5980    0.34961
  0.6000    0.30120
  0.6020    0.29253
  0.6040    0.32001
  0.6060    0.37235
  0.6080    0.43379
  0.6100    0.48281
  0.6120    0.50977
  0.6140    0.49603
  0.6160    0.44321
  0.6180    0.37719
  0.6200    0.29585
  0.6220    0.21907
  0.6240    0.15126
  0.6260    0.09831
  0.6280    0.06330
  0.6300    0.03484
  0.6320    0.02322
  0.6340    0.00245
  0.6360   -0.01036
  0.6380   -0.03882
  0.6400   -0.06717
  0.6420   -0.09619
  0.6440   -0.11797
  0.6460   -0.13693
  0.6480   -0.15078
  0.6500   -0.16272
  0.6520   -0.17144
  0.6540   -0.18451
  0.6560   -0.19524
  0.6580   -0.21615
  0.6600   -0.24687
  0.6620   -0.27075
  0.6640   -0.29935
  0.6660   -0.32969
  0.6680   -0.36027
  0.6700   -0.38841
  0.6720   -0.40336
  0.6740   -0.40530
  0.6760   -0.40131
  0.6780   -0.38499
  0.6800   -0.36040
  0.6820   -0.33357
  0.6840   -0.31085
  0.6860   -0.29546
  0.6880   -0.29294
  0.6900   -0.30739
  0.6920   -0.32553
  0.6940   -0.34546
  0.6960   -0.36305
  0.6980   -0.36975
  0.7000   -0.37531
  0.7020   -0.36624
  0.7040   -0.34908
  0.7060   -0.31839
  0.7080   -0.28348
  0.7100   -0.25808
  0.7120   -0.23040
  0.7140   -0.21069
  0.7160   -0.21032
  0.7180   -0.21350
  0.7200   -0.22222
  0.7220   -0.23712
  0.7240   -0.24803
  0.7260   -0.25254
  0.7280   -0.25095
  0.7300   -0.23865
  0.7320   -0.22343
  0.7340   -0.20060
  0.7360   -0.18298
  0.7380   -0.16028
  0.7400   -0.13399
  0.7420   -0.10250
  0.7440   -0.08414
  0.7460   -0.06669
  0.7480   -0.05874
  0.7500   -0.05575
  0.7520   -0.05384
  0.7540   -0.05326
  0.7560   -0.04962
  0.7580   -0.04481
  0.7600   -0.03762
  0.7620   -0.03012
  0.7640   -0.01398
  0.7660    0.00282
  0.7680    0.01793
  0.7700    0.03593
  0.7720    0.04669
  0.7740    0.04484
  0.7760    0.04289
  0.7780    0.03439
  0.7800    0.02642
  0.7820    0.02377
  0.7840    0.01936
  0.7860    0.02834
  0.7880    0.04084
  0.7900    0.05920
  0.7920    0.08217
  0.7940    0.10759
  0.7960    0.12883
  0.7980    0.14907
  0.8000    0.16302
  0.8020    0.17771
  0.8040    0.18913
  0.8060    0.19892
  0.8080    0.19608
  0.8100    0.18602
  0.8120    0.17119
  0.8140    0.15239
  0.8160    0.13382
  0.8180    0.12179
  0.8200    0.11440
  0.8220    0.10658
  0.8240    0.11247
  0.8260    0.11327
  0.8280    0.11587
  0.8300    0.12075
  0.8320    0.12222
  0.8340    0.12507
  0.8360    0.13521
  0.8380    0.14032
  0.8400    0.14793
  0.8420    0.16282
  0.8440    0.17352
  0.8460    0.18740
  0.8480    0.19660
  0.8500    0.19220
  0.8520    0.18972
  0.8540    0.17532
  0.8560    0.15482
  0.8580    0.13236
  0.8600    0.11822
  0.8620    0.11172
  0.8640    0.10923
  0.8660    0.11122
  0.8680    0.11465
  0.8700    0.12502
  0.8720    0.13471
  0.8740    0.13799
  0.8760    0.14150
  0.8780    0.13930
  0.8800    0.13855
  0.8820    0.13875
  0.8840    0.13479
  0.8860    0.13602
  0.8880    0.13891
  0.8900    0.13578
  0.8920    0.14399
  0.8940    0.14205
  0.8960    0.14406
  0.8980    0.14281
  0.9000    0.14705
  0.9020    0.14998
  0.9040    0.14639
  0.9060    0.14090
  0.9080    0.13982
  0.9100    0.13072
  0.9120    0.11219
  0.9140    0.09575
  0.9160    0.08036
  0.9180    0.05996
  0.9200    0.03742
  0.9220    0.01883
  0.9240    0.00052
  0.9260   -0.01753
  0.9280   -0.03276
  0.9300   -0.03358
  0.9320   -0.03771
  0.9340   -0.03844
  0.9360   -0.03589
  0.9380   -0.02777
  0.9400   -0.02136
  0.9420   -0.01307
  0.9440   -0.01287
  0.9460   -0.02518
  0.9480   -0.04320
  0.9500   -0.06778
  0.9520   -0.10138
  0.9540   -0.13605
  0.9560   -0.16221
  0.9580   -0.18860
  0.9600   -0.19577
  0.9620   -0.19912
  0.9640   -0.19159
  0.9660   -0.16658
  0.9680   -0.14532
  0.9700   -0.11385
  0.9720   -0.09906
  0.9740   -0.07938
  0.9760   -0.06933
  0.9780   -0.06751
  0.9800   -0.06754
  0.9820   -0.07218
  0.9840   -0.07906
  0.9860   -0.08648
  0.9880   -0.08638
  0.9900   -0.09096
  0.9920   -0.09287
  0.9940   -0.08987
  0.9960   -0.09258
  0.9980   -0.09911
  1.0000   -0.10015
  1.0020   -0.10086
  1.0040   -0.09787
  1.0060   -0.09499
  1.0080   -0.09447
  1.0100   -0.08976
  1.0120   -0.09740
  1.0140   -0.10155
  1.0160   -0.10306
  1.0180   -0.10947
  1.0200   -0.11358
  1.0220   -0.11292
  1.0240   -0.11345
  1.0260   -0.12190
  1.0280   -0.12823
  1.0300   -0.13326
  1.0320   -0.14310
  1.0340   -0.14251
  1.0360   -0.14080
  1.0380   -0.13153
  1.0400   -0.11021
  1.0420   -0.09278
  1.0440   -0.06937
  1.0460   -0.04325
  1.0480   -0.02359
  1.0500   -0.01126
  1.0520   -0.00747
  1.0540   -0.01313
  1.0560   -0.01905
  1.0580   -0.03622
  1.0600   -0.05189
  1.0620   -0.05952
  1.0640   -0.06646
  1.0660   -0.06659
  1.0680   -0.06691
  1.0700   -0.06459
  1.0720   -0.06224
  1.0740   -0.05389
  1.0760   -0.05323
  1.0780   -0.05521
  1.0800   -0.05408
  1.0820   -0.04860
  1.0840   -0.04465
  1.0860   -0.03617
  1.0880   -0.02477
  1.0900   -0.01618
  1.0920   -0.00797
  1.0940    0.00362
  1.0960    0.02554
  1.0980    0.03732
  1.1000    0.04469
  1.1020    0.05581
  1.1040    0.06705
  1.1060    0.06770
  1.1080    0.06967
  1.1100    0.07247
  1.1120    0.08017
  1.1140    0.08358
  1.1160    0.08788
  1.1180    0.09132
  1.1200    0.10148
  1.1220    0.11160
  1.1240    0.12099
  1.1260    0.12137
  1.1280    0.12585
  1.1300    0.12576
  1.1320    0.13180
  1.1340    0.14125
  1.1360    0.15100
  1.1380    0.15829
  1.1400    0.16319
  1.1420    0.16864
  1.1440    0.18252
  1.1460    0.18987
  1.1480    0.18411
  1.1500    0.18301
  1.1520    0.17587
  1.1540    0.16960
  1.1560    0.15636
  1.1580    0.14686
  1.1600    0.13391
  1.1620    0.11821
  1.1640    0.10201
  1.1660    0.08114
  1.1680    0.06306
  1.1700    0.04641
  1.1720    0.03637
  1.1740    0.03890
  1.1760    0.04920
  1.1780    0.06414
  1.1800    0.07813
  1.1820    0.10018
  1.1840    0.12065
  1.1860    0.13438
  1.1880    0.13891
  1.1900    0.13135
  1.1920    0.11928
  1.1940    0.09714
  1.1960    0.07136
  1.1980    0.04923
  1.2000    0.02701
