# z (nm)   (kJ/mol)
  0.1380  319.99414
  0.1400  317.74636
  0.1420  314.45801
  0.1440  310.89568
  0.1460  308.15128
  0.1480  305.19106
  0.1500  302.30495
  0.1520  299.41151
  0.1540  296.39926
  0.1560  293.19798
  0.1580  289.75343
  0.1600  286.03569
  0.1620  281.95346
  0.1640  277.44535
  0.1660  272.45756
  0.1680  266.93953
  0.1700  260.84769
  0.1720  254.15891
  0.1740  246.86223
  0.1760  238.97765
  0.1780  230.54899
  0.1800  221.65527
  0.1820  212.41065
  0.1840  202.96283
  0.1860  193.46926
  0.1880  184.08965
  0.1900  174.96848
  0.1920  166.18948
  0.1940  157.77158
  0.1960  149.69021
  0.1980  141.89303
  0.2000  134.37573
  0.2020  127.21652
  0.2040  120.53748
  0.2060  114.40261
  0.2080  108.76331
  0.2100  103.46169
  0.2120   98.35211
  0.2140   93.34416
  0.2160   88.41501
  0.2180   83.58311
  0.2200   78.87980
  0.2220   74.35243
  0.2240   70.04759
  0.2260   65.98571
  0.2280   62.15332
  0.2300   58.51346
  0.2320   55.02244
  0.2340   51.64925
  0.2360   48.38225
  0.2380   45.24329
  0.2400   42.23684
  0.2420   39.37846
  0.2440   36.67534
  0.2460   34.11237
  0.2480   31.67590
  0.2500   29.35443
  0.2520   27.15972
  0.2540   25.08947
  0.2560   23.15182
  0.2580   21.34665
  0.2600   19.68678
  0.2620   18.16872
  0.2640   16.76616
  0.2660   15.46853
  0.2680   14.28602
  0.2700   13.18788
  0.2720   12.17678
  0.2740   11.23983
  0.2760   10.38150
  0.2780    9.60726
  0.2800    8.90516
  0.2820    8.28853
  0.2840    7.73958
  0.2860    7.25475
  0.2880    6.82842
  0.2900    6.45340
  0.2920    6.12485
  0.2940    5.82992
  0.2960    5.56759
  0.2980    5.33646
  0.3000    5.13449
  0.3020    4.96112
  0.3040    4.81742
  0.3060    4.69871
  0.3080    4.61366
  0.3100    4.54945
  0.3120    4.50260
  0.3140    4.46111
  0.3160    4.43606
  0.3180    4.40557
  0.3200    4.37186
  0.3220    4.34345
  0.3240    4.31198
  0.3260    4.29377
  0.3280    4.28031
  0.3300    4.25788
  0.3320    4.23968
  0.3340    4.23033
  0.3360    4.21690
  0.3380    4.19994
  0.3400    4.18152
  0.3420    4.16286
  0.3440    4.12408
  0.3460    4.07877
  0.3480    4.02471
  0.3500    3.96146
  0.3520    3.89282
  0.3540    3.82133
  0.3560    3.74942
  0.3580    3.67590
  0.3600    3.60298
  0.3620    3.51917
  0.3640    3.42912
  0.3660    3.31966
  0.3680    3.18976
  0.3700    3.04721
  0.3720    2.88930
  0.3740    2.73046
  0.3760    2.57324
  0.3780    2.42192
  0.3800    2.28614
  0.3820    2.15663
  0.3840    2.03320
  0.3860    1.91604
  0.3880    1.80777
  0.3900    1.70399
  0.3920    1.59777
  0.3940    1.50394
  0.3960    1.41721
  0.3980    1.33495
  0.4000    1.26176
  0.4020    1.20964
  0.4040    1.16479
  0.4060    1.13689
  0.4080    1.11916
  0.4100    1.10917
  0.4120    1.09968
  0.4140    1.08860
  0.4160    1.07741
  0.4180    1.06365
  0.4200    1.04902
  0.4220    1.02880
  0.4240    1.00686
  0.4260    0.98776
  0.4280    0.97156
  0.4300    0.96193
  0.4320    0.94830
  0.4340    0.94439
  0.4360    0.93826
  0.4380    0.93713
  0.4400    0.93222
  0.4420    0.93345
  0.4440    0.93999
  0.4460    0.94421
  0.4480    0.95109
  0.4500    0.95805
  0.4520    0.97154
  0.4540    0.97552
  0.4560    0.98472
  0.4580    0.99310
  0.4600    0.98466
  0.4620    0.98612
  0.4640    0.97615
  0.4660    0.96778
  0.4680    0.95468
  0.4700    0.94337
  0.4720    0.93646
  0.4740    0.93401
  0.4760    0.94104
  0.4780    0.94778
  0.4800    0.97255
  0.4820    0.99890
  0.4840    1.03065
  0.4860    1.06162
  0.4880    1.09062
  0.4900    1.10966
  0.4920    1.12380
  0.4940    1.11520
  0.4960    1.09021
  0.4980    1.05238
  0.5000    1.00095
  0.5020    0.94203
  0.5040    0.87583
  0.5060    0.81273
  0.5080    0.76097
  0.5100    0.71607
  0.5120    0.68647
  0.5140    0.66947
  0.5160    0.67289
  0.5180    0.67505
  0.5200    0.68259
  0.5220    0.67895
  0.5240    0.66465
  0.5260    0.63394
  0.5280    0.57882
  0.5300    0.50903
  0.5320    0.42667
  0.5340    0.33116
  0.5360    0.22812
  0.5380    0.12756
  0.5400    0.01834
  0.5420   -0.07517
  0.5440   -0.15835
  0.5460   -0.23723
  0.5480   -0.29631
  0.5500   -0.34374
  0.5520   -0.37372
  0.5540   -0.39003
  0.5560   -0.40677
  0.5580   -0.42143
  0.5600   -0.43992
  0.5620   -0.45222
  0.5640   -0.48534
  0.5660   -0.52711
  0.5680   -0.57265
  0.5700   -0.62587
  0.5720   -0.67572
  0.5740   -0.72553
  0.5760   -0.77611
  0.5780   -0.81832
  0.5800   -0.84877
  0.5820   -0.87057
  0.5840   -0.88728
  0.5860   -0.90054
  0.5880   -0.90633
  0.5900   -0.90412
  0.5920   -0.90504
  0.5940   -0.90536
  0.5960   -0.90428
  0.5980   -0.90244
  0.6000   -0.90714
  0.6020   -0.91464
  0.6040   -0.91200
  0.6060   -0.91729
  0.6080   -0.91838
  0.6100   -0.92086
  0.6120   -0.92557
  0.6140   -0.92858
  0.6160   -0.92616
  0.6180   -0.92065
  0.6200   -0.92208
  0.6220   -0.92118
  0.6240   -0.91832
  0.6260   -0.91904
  0.6280   -0.92034
  0.6300   -0.91686
  0.6320   -0.90679
  0.6340   -0.89841
  0.6360   -0.89246
  0.6380   -0.88560
  0.6400   -0.88278
  0.6420   -0.87545
  0.6440   -0.87415
  0.6460   -0.87027
  0.6480   -0.85970
  0.6500   -0.85308
  0.6520   -0.84519
  0.6540   -0.82772
  0.6560   -0.81617
  0.6580   -0.79884
  0.6600   -0.77695
  0.6620   -0.76224
  0.6640   -0.74276
  0.6660   -0.72485
  0.6680   -0.70912
  0.6700   -0.69622
  0.6720   -0.68534
  0.6740   -0.67149
  0.6760   -0.65839
  0.6780   -0.64243
  0.6800   -0.62663
  0.6820   -0.61269
  0.6840   -0.59188
  0.6860   -0.56955
  0.6880   -0.54679
  0.6900   -0.52328
  0.6920   -0.50852
  0.6940   -0.48602
  0.6960   -0.46898
  0.6980   -0.45616
  0.7000   -0.44451
  0.7020   -0.42880
  0.7040   -0.41367
  0.7060   -0.40635
  0.7080   -0.39235
  0.7100   -0.38094
  0.7120   -0.36731
  0.7140   -0.35039
  0.7160   -0.33180
  0.7180   -0.31421
  0.7200   -0.29074
  0.7220   -0.26776
  0.7240   -0.24354
  0.7260   -0.22726
  0.7280   -0.20013
  0.7300   -0.16852
  0.7320   -0.13940
  0.7340   -0.10511
  0.7360   -0.07523
  0.7380   -0.04953
  0.7400   -0.02365
  0.7420   -0.00386
  0.7440    0.01639
  0.7460    0.02751
  0.7480    0.04209
  0.7500    0.04383
  0.7520    0.05056
  0.7540    0.05102
  0.7560    0.04596
  0.7580    0.03929
  0.7600    0.03395
  0.7620    0.03317
  0.7640    0.02822
  0.7660    0.02516
  0.7680    0.02435
  0.7700    0.02532
  0.7720    0.03008
  0.7740    0.02768
  0.7760    0.01920
  0.7780    0.02170
  0.7800    0.02229
  0.7820    0.01467
  0.7840    0.01238
  0.7860    0.00781
  0.7880    0.00675
  0.7900   -0.00077
  0.7920   -0.00505
  0.7940   -0.01485
  0.7960   -0.02264
  0.7980   -0.02555
  0.8000   -0.03141
  0.8020   -0.04271
  0.8040   -0.05816
  0.8060   -0.07353
  0.8080   -0.09011
  0.8100   -0.10474
  0.8120   -0.11972
  0.8140   -0.13095
  0.8160   -0.13686
  0.8180   -0.14061
  0.8200   -0.14297
  0.8220   -0.14735
  0.8240   -0.14762
  0.8260   -0.14324
  0.8280   -0.13836
  0.8300   -0.14053
  0.8320   -0.14422
  0.8340   -0.14857
  0.8360   -0.15512
  0.8380   -0.15561
  0.8400   -0.16292
  0.8420   -0.17225
  0.8440   -0.19224
  0.8460   -0.20419
  0.8480   -0.21852
  0.8500   -0.23061
  0.8520   -0.24279
  0.8540   -0.25842
  0.8560   -0.26755
  0.8580   -0.27360
  0.8600   -0.28290
  0.8620   -0.28862
  0.8640   -0.29070
  0.8660   -0.29801
  0.8680   -0.30707
  0.8700   -0.31595
  0.8720   -0.32553
  0.8740   -0.32829
  0.8760   -0.33624
  0.8780   -0.34253
  0.8800   -0.35667
  0.8820   -0.36768
  0.8840   -0.37638
  0.8860   -0.38647
  0.8880   -0.39931
  0.8900   -0.41324
  0.8920   -0.42339
  0.8940   -0.42658
  0.8960   -0.42669
  0.8980   -0.42926
  0.9000   -0.42909
  0.9020   -0.41955
  0.9040   -0.41561
  0.9060   -0.41163
  0.9080   -0.40083
  0.9100   -0.39333
  0.9120   -0.38052
  0.9140   -0.36475
  0.9160   -0.35198
  0.9180   -0.34066
  0.9200   -0.33088
  0.9220   -0.32010
  0.9240   -0.31182
  0.9260   -0.30448
  0.9280   -0.30185
  0.9300   -0.30532
  0.9320   -0.30633
  0.9340   -0.30686
  0.9360   -0.30802
  0.9380   -0.31054
  0.9400   -0.30777
  0.9420   -0.30542
  0.9440   -0.29817
  0.9460   -0.29525
  0.9480   -0.28903
  0.9500   -0.27964
  0.9520   -0.27573
  0.9540   -0.26297
  0.9560   -0.25219
  0.9580   -0.24285
  0.9600   -0.23197
  0.9620   -0.23052
  0.9640   -0.22487
  0.9660   -0.22397
  0.9680   -0.22549
  0.9700   -0.23329
  0.9720   -0.24195
  0.9740   -0.24866
  0.9760   -0.25517
  0.9780   -0.26434
  0.9800   -0.26930
  0.9820   -0.27009
  0.9840   -0.26531
  0.9860   -0.26397
  0.9880   -0.25418
  0.9900   -0.24612
  0.9920   -0.23624
  0.9940   -0.21836
  0.9960   -0.19787
  0.9980   -0.17314
  1.0000   -0.15030
  1.0020   -0.12833
  1.0040   -0.10858
  1.0060   -0.09012
  1.0080   -0.06496
  1.0100   -0.04321
  1.0120   -0.02240
  1.0140   -0.00704
  1.0160    0.00879
  1.0180    0.02315
  1.0200    0.03540
  1.0220    0.04461
  1.0240    0.04545
  1.0260    0.04647
  1.0280    0.05161
  1.0300    0.05013
  1.0320    0.04228
  1.0340    0.03443
  1.0360    0.03427
  1.0380    0.02713
  1.0400    0.02402
  1.0420    0.02365
  1.0440    0.02636
  1.0460    0.02991
  1.0480    0.04264
  1.0500    0.05615
  1.0520    0.08383
  1.0540    0.10338
  1.0560    0.12629
  1.0580    0.15064
  1.0600    0.17204
  1.0620    0.19233
  1.0640    0.20618
  1.0660    0.21937
  1.0680    0.22671
  1.0700    0.22949
  1.0720    0.23038
  1.0740    0.22545
  1.0760    0.21438
  1.0780    0.20371
  1.0800    0.19075
  1.0820    0.17782
  1.0840    0.16414
  1.0860    0.15508
  1.0880    0.14292
  1.0900    0.13329
  1.0920    0.12994
  1.0940    0.12833
  1.0960    0.13430
  1.0980    0.14261
  1.1000    0.15590
  1.1020    0.16875
  1.1040    0.18518
  1.1060    0.20268
  1.1080    0.21368
  1.1100    0.22536
  1.1120    0.23997
  1.1140    0.24724
  1.1160    0.25090
  1.1180    0.25169
  1.1200    0.25231
  1.1220    0.25221
  1.1240    0.24803
  1.1260    0.24987
  1.1280    0.24535
  1.1300    0.23963
  1.1320    0.23281
  1.1340    0.22909
  1.1360    0.22066
  1.1380    0.21524
  1.1400    0.20783
  1.1420    0.19953
  1.1440    0.19857
  1.1460    0.18734
  1.1480    0.17951
  1.1500    0.17373
  1.1520    0.17533
  1.1540    0.17606
  1.1560    0.17352
  1.1580    0.18133
  1.1600    0.18642
  1.1620    0.19021
  1.1640    0.19878
  1.1660    0.20136
  1.1680    0.20872
  1.1700    0.20859
  1.1720    0.21254
  1.1740    0.21396
  1.1760    0.20846
  1.1780    0.20534
  1.1800    0.19854
  1.1820    0.19225
  1.1840    0.18314
  1.1860    0.17263
  1.1880    0.16232
  1.1900    0.14897
  1.1920    0.13924
  1.1940    0.12925
  1.1960    0.11916
  1.1980    0.10349
  1.2000    0.09135
