# z (nm)   (kJ/mol)
  0.052000,278.952160
  0.054000,274.251090
  0.056000,271.103210
  0.058000,267.766030
  0.060000,264.365740
  0.062000,261.015700
  0.064000,257.658630
  0.066000,254.277080
  0.068000,250.857970
  0.070000,247.397500
  0.072000,243.886290
  0.074000,240.320010
  0.076000,236.697620
  0.078000,233.026430
  0.080000,229.301390
  0.082000,225.523120
  0.084000,221.701110
  0.086000,217.836390
  0.088000,213.934750
  0.090000,209.999240
  0.092000,206.035570
  0.094000,202.057840
  0.096000,198.069820
  0.098000,194.085150
  0.100000,190.126780
  0.102000,186.205860
  0.104000,182.334620
  0.106000,178.520220
  0.108000,174.771580
  0.110000,171.090820
  0.112000,167.479850
  0.114000,163.931630
  0.116000,160.439930
  0.118000,156.993160
  0.120000,153.588830
  0.122000,150.221500
  0.124000,146.886790
  0.126000,143.594740
  0.128000,140.347910
  0.130000,137.148060
  0.132000,134.005820
  0.134000,130.919380
  0.136000,127.885770
  0.138000,124.906920
  0.140000,121.969940
  0.142000,119.076680
  0.144000,116.212410
  0.146000,113.371880
  0.148000,110.552830
  0.150000,107.756890
  0.152000,104.979420
  0.154000,102.229940
  0.156000, 99.510230
  0.158000, 96.823600
  0.160000, 94.179210
  0.162000, 91.571010
  0.164000, 89.002830
  0.166000, 86.471360
  0.168000, 83.977830
  0.170000, 81.515750
  0.172000, 79.085680
  0.174000, 76.689730
  0.176000, 74.320620
  0.178000, 71.991390
  0.180000, 69.696370
  0.182000, 67.434350
  0.184000, 65.216870
  0.186000, 63.041960
  0.188000, 60.905270
  0.190000, 58.812930
  0.192000, 56.764240
  0.194000, 54.745160
  0.196000, 52.775050
  0.198000, 50.848560
  0.200000, 48.959250
  0.202000, 47.106930
  0.204000, 45.301880
  0.206000, 43.535400
  0.208000, 41.802570
  0.210000, 40.113520
  0.212000, 38.458060
  0.214000, 36.831170
  0.216000, 35.235590
  0.218000, 33.662690
  0.220000, 32.118090
  0.222000, 30.600550
  0.224000, 29.119650
  0.226000, 27.667720
  0.228000, 26.260370
  0.230000, 24.893230
  0.232000, 23.575410
  0.234000, 22.302580
  0.236000, 21.078650
  0.238000, 19.895660
  0.240000, 18.747530
  0.242000, 17.637160
  0.244000, 16.546010
  0.246000, 15.486730
  0.248000, 14.452920
  0.250000, 13.447410
  0.252000, 12.472570
  0.254000, 11.516540
  0.256000, 10.590750
  0.258000,  9.699750
  0.260000,  8.842360
  0.262000,  8.020990
  0.264000,  7.236230
  0.266000,  6.488080
  0.268000,  5.779870
  0.270000,  5.110940
  0.272000,  4.484110
  0.274000,  3.879610
  0.276000,  3.306670
  0.278000,  2.758900
  0.280000,  2.229210
  0.282000,  1.715500
  0.284000,  1.220840
  0.286000,  0.741120
  0.288000,  0.284270
  0.290000, -0.158190
  0.292000, -0.578390
  0.294000, -0.974890
  0.296000, -1.346500
  0.298000, -1.689730
  0.300000, -2.005110
  0.302000, -2.292130
  0.304000, -2.550800
  0.306000, -2.784620
  0.308000, -2.996360
  0.310000, -3.181900
  0.312000, -3.347820
  0.314000, -3.497030
  0.316000, -3.624930
  0.318000, -3.743760
  0.320000, -3.855150
  0.322000, -3.952300
  0.324000, -4.035410
  0.326000, -4.105320
  0.328000, -4.171110
  0.330000, -4.225320
  0.332000, -4.266480
  0.334000, -4.298400
  0.336000, -4.317820
  0.338000, -4.330880
  0.340000, -4.333440
  0.342000, -4.323220
  0.344000, -4.298330
  0.346000, -4.262460
  0.348000, -4.211370
  0.350000, -4.146890
  0.352000, -4.070830
  0.354000, -3.989090
  0.356000, -3.890930
  0.358000, -3.780960
  0.360000, -3.661550
  0.362000, -3.538850
  0.364000, -3.405270
  0.366000, -3.274060
  0.368000, -3.138960
  0.370000, -2.995800
  0.372000, -2.853640
  0.374000, -2.710940
  0.376000, -2.569210
  0.378000, -2.429340
  0.380000, -2.287340
  0.382000, -2.150840
  0.384000, -2.015540
  0.386000, -1.877660
  0.388000, -1.732490
  0.390000, -1.592410
  0.392000, -1.453770
  0.394000, -1.308250
  0.396000, -1.159290
  0.398000, -1.010360
  0.400000, -0.858510
  0.402000, -0.703620
  0.404000, -0.546460
  0.406000, -0.391950
  0.408000, -0.238810
  0.410000, -0.084920
  0.412000,  0.064230
  0.414000,  0.212340
  0.416000,  0.357350
  0.418000,  0.501520
  0.420000,  0.644270
  0.422000,  0.779680
  0.424000,  0.916140
  0.426000,  1.051070
  0.428000,  1.182460
  0.430000,  1.316900
  0.432000,  1.450790
  0.434000,  1.581480
  0.436000,  1.711960
  0.438000,  1.836110
  0.440000,  1.961490
  0.442000,  2.082250
  0.444000,  2.207940
  0.446000,  2.323070
  0.448000,  2.433820
  0.450000,  2.539210
  0.452000,  2.639900
  0.454000,  2.736360
  0.456000,  2.828650
  0.458000,  2.913880
  0.460000,  2.994740
  0.462000,  3.078570
  0.464000,  3.154630
  0.466000,  3.228150
  0.468000,  3.298500
  0.470000,  3.367690
  0.472000,  3.429280
  0.474000,  3.491390
  0.476000,  3.550200
  0.478000,  3.610010
  0.480000,  3.665420
  0.482000,  3.719530
  0.484000,  3.773020
  0.486000,  3.824130
  0.488000,  3.873860
  0.490000,  3.922910
  0.492000,  3.967040
  0.494000,  4.006480
  0.496000,  4.047090
  0.498000,  4.081280
  0.500000,  4.117550
  0.502000,  4.142840
  0.504000,  4.167210
  0.506000,  4.190850
  0.508000,  4.206940
  0.510000,  4.220670
  0.512000,  4.228330
  0.514000,  4.229780
  0.516000,  4.232990
  0.518000,  4.230840
  0.520000,  4.225080
  0.522000,  4.212920
  0.524000,  4.193080
  0.526000,  4.172490
  0.528000,  4.149460
  0.530000,  4.122820
  0.532000,  4.091770
  0.534000,  4.059360
  0.536000,  4.024730
  0.538000,  3.988710
  0.540000,  3.954730
  0.542000,  3.908990
  0.544000,  3.855440
  0.546000,  3.806800
  0.548000,  3.752190
  0.550000,  3.683380
  0.552000,  3.616880
  0.554000,  3.544010
  0.556000,  3.470850
  0.558000,  3.387830
  0.560000,  3.296900
  0.562000,  3.197860
  0.564000,  3.092270
  0.566000,  2.985920
  0.568000,  2.865590
  0.570000,  2.741390
  0.572000,  2.615000
  0.574000,  2.486140
  0.576000,  2.359690
  0.578000,  2.230080
  0.580000,  2.104800
  0.582000,  1.984220
  0.584000,  1.871220
  0.586000,  1.765320
  0.588000,  1.660790
  0.590000,  1.553550
  0.592000,  1.455660
  0.594000,  1.354330
  0.596000,  1.258760
  0.598000,  1.158440
  0.600000,  1.061260
  0.602000,  0.959750
  0.604000,  0.862640
  0.606000,  0.763630
  0.608000,  0.668730
  0.610000,  0.579470
  0.612000,  0.494760
  0.614000,  0.411930
  0.616000,  0.332650
  0.618000,  0.257850
  0.620000,  0.187170
  0.622000,  0.124220
  0.624000,  0.060100
  0.626000, -0.000660
  0.628000, -0.057420
  0.630000, -0.113180
  0.632000, -0.165270
  0.634000, -0.211400
  0.636000, -0.256710
  0.638000, -0.300930
  0.640000, -0.341300
  0.642000, -0.373200
  0.644000, -0.405580
  0.646000, -0.436310
  0.648000, -0.456750
  0.650000, -0.480330
  0.652000, -0.497210
  0.654000, -0.511080
  0.656000, -0.512090
  0.658000, -0.510980
  0.660000, -0.504470
  0.662000, -0.491330
  0.664000, -0.478460
  0.666000, -0.459590
  0.668000, -0.441030
  0.670000, -0.419010
  0.672000, -0.399730
  0.674000, -0.380310
  0.676000, -0.362430
  0.678000, -0.346320
  0.680000, -0.326570
  0.682000, -0.306600
  0.684000, -0.286930
  0.686000, -0.265740
  0.688000, -0.248430
  0.690000, -0.225870
  0.692000, -0.203140
  0.694000, -0.180860
  0.696000, -0.157850
  0.698000, -0.130980
  0.700000, -0.109870
  0.702000, -0.088830
  0.704000, -0.073930
  0.706000, -0.057890
  0.708000, -0.039180
  0.710000, -0.020030
  0.712000, -0.001860
  0.714000,  0.017720
  0.716000,  0.040790
  0.718000,  0.064610
  0.720000,  0.090650
  0.722000,  0.118150
  0.724000,  0.151600
  0.726000,  0.187990
  0.728000,  0.224190
  0.730000,  0.259360
  0.732000,  0.292990
  0.734000,  0.327400
  0.736000,  0.363540
  0.738000,  0.396000
  0.740000,  0.426610
  0.742000,  0.457780
  0.744000,  0.489410
  0.746000,  0.520470
  0.748000,  0.552500
  0.750000,  0.588900
  0.752000,  0.624800
  0.754000,  0.662880
  0.756000,  0.700110
  0.758000,  0.732700
  0.760000,  0.768110
  0.762000,  0.794080
  0.764000,  0.821190
  0.766000,  0.848100
  0.768000,  0.872640
  0.770000,  0.892820
  0.772000,  0.913890
  0.774000,  0.935070
  0.776000,  0.957220
  0.778000,  0.966180
  0.780000,  0.977060
  0.782000,  0.990290
  0.784000,  1.002370
  0.786000,  1.012310
  0.788000,  1.022710
  0.790000,  1.029510
  0.792000,  1.039720
  0.794000,  1.048920
  0.796000,  1.062470
  0.798000,  1.069170
  0.800000,  1.086100
  0.802000,  1.096730
  0.804000,  1.104490
  0.806000,  1.107010
  0.808000,  1.109030
  0.810000,  1.103180
  0.812000,  1.099230
  0.814000,  1.088950
  0.816000,  1.079130
  0.818000,  1.069720
  0.820000,  1.060580
  0.822000,  1.053460
  0.824000,  1.049430
  0.826000,  1.044610
  0.828000,  1.041520
  0.830000,  1.038380
  0.832000,  1.039010
  0.834000,  1.038190
  0.836000,  1.036810
  0.838000,  1.035720
  0.840000,  1.031510
  0.842000,  1.019590
  0.844000,  1.013680
  0.846000,  1.004800
  0.848000,  0.991700
  0.850000,  0.978040
  0.852000,  0.960200
  0.854000,  0.945430
  0.856000,  0.927060
  0.858000,  0.910730
  0.860000,  0.889400
  0.862000,  0.868200
  0.864000,  0.850000
  0.866000,  0.822600
  0.868000,  0.794660
  0.870000,  0.768240
  0.872000,  0.741800
  0.874000,  0.711460
  0.876000,  0.691140
  0.878000,  0.664140
  0.880000,  0.632790
  0.882000,  0.607030
  0.884000,  0.585590
  0.886000,  0.563210
  0.888000,  0.536630
  0.890000,  0.510980
  0.892000,  0.483380
  0.894000,  0.458710
  0.896000,  0.427080
  0.898000,  0.397000
  0.900000,  0.363340
  0.902000,  0.332570
  0.904000,  0.303250
  0.906000,  0.270420
  0.908000,  0.240100
  0.910000,  0.208640
  0.912000,  0.178090
  0.914000,  0.150940
  0.916000,  0.124800
  0.918000,  0.097730
  0.920000,  0.071080
  0.922000,  0.054190
  0.924000,  0.034940
  0.926000,  0.020730
  0.928000,  0.003910
  0.930000, -0.012520
  0.932000, -0.022160
  0.934000, -0.027960
  0.936000, -0.031960
  0.938000, -0.032270
  0.940000, -0.032990
  0.942000, -0.034210
  0.944000, -0.031330
  0.946000, -0.033770
  0.948000, -0.034330
  0.950000, -0.038220
  0.952000, -0.041140
  0.954000, -0.047580
  0.956000, -0.051030
  0.958000, -0.052420
  0.960000, -0.052440
  0.962000, -0.051140
  0.964000, -0.048340
  0.966000, -0.045520
  0.968000, -0.041950
  0.970000, -0.041850
  0.972000, -0.048440
  0.974000, -0.050290
  0.976000, -0.052910
  0.978000, -0.059100
  0.980000, -0.064420
  0.982000, -0.077920
  0.984000, -0.088490
  0.986000, -0.097370
  0.988000, -0.103500
  0.990000, -0.109600
  0.992000, -0.113510
  0.994000, -0.110410
  0.996000, -0.109850
  0.998000, -0.105560
  1.000000, -0.094890
