# z (nm)   (kJ/mol)
  0.060000,273.475690
  0.062000,269.714770
  0.064000,266.974980
  0.066000,263.826300
  0.068000,260.888320
  0.070000,257.822210
  0.072000,254.918080
  0.074000,251.949800
  0.076000,248.936220
  0.078000,245.883220
  0.080000,242.758640
  0.082000,239.556820
  0.084000,236.283380
  0.086000,232.919590
  0.088000,229.466680
  0.090000,225.917650
  0.092000,222.269600
  0.094000,218.521530
  0.096000,214.682540
  0.098000,210.757700
  0.100000,206.753460
  0.102000,202.680970
  0.104000,198.553380
  0.106000,194.385690
  0.108000,190.192450
  0.110000,185.992880
  0.112000,181.809860
  0.114000,177.663130
  0.116000,173.561140
  0.118000,169.527140
  0.120000,165.566160
  0.122000,161.684630
  0.124000,157.886890
  0.126000,154.173380
  0.128000,150.539490
  0.130000,146.977970
  0.132000,143.488700
  0.134000,140.056610
  0.136000,136.677500
  0.138000,133.334630
  0.140000,130.011930
  0.142000,126.713200
  0.144000,123.436700
  0.146000,120.204360
  0.148000,117.022820
  0.150000,113.902360
  0.152000,110.845390
  0.154000,107.846310
  0.156000,104.896510
  0.158000,101.977740
  0.160000, 99.090040
  0.162000, 96.221000
  0.164000, 93.382300
  0.166000, 90.566420
  0.168000, 87.773770
  0.170000, 85.007290
  0.172000, 82.277710
  0.174000, 79.584910
  0.176000, 76.932440
  0.178000, 74.325230
  0.180000, 71.755380
  0.182000, 69.230360
  0.184000, 66.751120
  0.186000, 64.322840
  0.188000, 61.938990
  0.190000, 59.615090
  0.192000, 57.350630
  0.194000, 55.150350
  0.196000, 53.006830
  0.198000, 50.907370
  0.200000, 48.855650
  0.202000, 46.841100
  0.204000, 44.845670
  0.206000, 42.867950
  0.208000, 40.904060
  0.210000, 38.961620
  0.212000, 37.062200
  0.214000, 35.221260
  0.216000, 33.449050
  0.218000, 31.759810
  0.220000, 30.145060
  0.222000, 28.586130
  0.224000, 27.048580
  0.226000, 25.513870
  0.228000, 23.968380
  0.230000, 22.417160
  0.232000, 20.880800
  0.234000, 19.375180
  0.236000, 17.923150
  0.238000, 16.546740
  0.240000, 15.232820
  0.242000, 13.991130
  0.244000, 12.806070
  0.246000, 11.661310
  0.248000, 10.557000
  0.250000,  9.486020
  0.252000,  8.434420
  0.254000,  7.406420
  0.256000,  6.401650
  0.258000,  5.427120
  0.260000,  4.475600
  0.262000,  3.554020
  0.264000,  2.663240
  0.266000,  1.806200
  0.268000,  0.979640
  0.270000,  0.193170
  0.272000, -0.549620
  0.274000, -1.253270
  0.276000, -1.921470
  0.278000, -2.550740
  0.280000, -3.153490
  0.282000, -3.728730
  0.284000, -4.262180
  0.286000, -4.762640
  0.288000, -5.227260
  0.290000, -5.664740
  0.292000, -6.071920
  0.294000, -6.453710
  0.296000, -6.813410
  0.298000, -7.154210
  0.300000, -7.472650
  0.302000, -7.764760
  0.304000, -8.043730
  0.306000, -8.285390
  0.308000, -8.505620
  0.310000, -8.691320
  0.312000, -8.845800
  0.314000, -8.974440
  0.316000, -9.081370
  0.318000, -9.165540
  0.320000, -9.224280
  0.322000, -9.281550
  0.324000, -9.335530
  0.326000, -9.384260
  0.328000, -9.430270
  0.330000, -9.475420
  0.332000, -9.502550
  0.334000, -9.520390
  0.336000, -9.517150
  0.338000, -9.496330
  0.340000, -9.451970
  0.342000, -9.390400
  0.344000, -9.311330
  0.346000, -9.221590
  0.348000, -9.129960
  0.350000, -9.043100
  0.352000, -8.960360
  0.354000, -8.889590
  0.356000, -8.820900
  0.358000, -8.752440
  0.360000, -8.679010
  0.362000, -8.593580
  0.364000, -8.500010
  0.366000, -8.398350
  0.368000, -8.277160
  0.370000, -8.140770
  0.372000, -8.002390
  0.374000, -7.856300
  0.376000, -7.705910
  0.378000, -7.564720
  0.380000, -7.427140
  0.382000, -7.294080
  0.384000, -7.179450
  0.386000, -7.071500
  0.388000, -6.972030
  0.390000, -6.880670
  0.392000, -6.791880
  0.394000, -6.697160
  0.396000, -6.594440
  0.398000, -6.487880
  0.400000, -6.365260
  0.402000, -6.241830
  0.404000, -6.099810
  0.406000, -5.955200
  0.408000, -5.803430
  0.410000, -5.659840
  0.412000, -5.511990
  0.414000, -5.371040
  0.416000, -5.233790
  0.418000, -5.102660
  0.420000, -4.981720
  0.422000, -4.863060
  0.424000, -4.752030
  0.426000, -4.647490
  0.428000, -4.543510
  0.430000, -4.454930
  0.432000, -4.367900
  0.434000, -4.281910
  0.436000, -4.192800
  0.438000, -4.101790
  0.440000, -4.016490
  0.442000, -3.927960
  0.444000, -3.838840
  0.446000, -3.752160
  0.448000, -3.664040
  0.450000, -3.574240
  0.452000, -3.492990
  0.454000, -3.411920
  0.456000, -3.327910
  0.458000, -3.240560
  0.460000, -3.146170
  0.462000, -3.045680
  0.464000, -2.945200
  0.466000, -2.844110
  0.468000, -2.733350
  0.470000, -2.641510
  0.472000, -2.543220
  0.474000, -2.446980
  0.476000, -2.348490
  0.478000, -2.252440
  0.480000, -2.145370
  0.482000, -2.029270
  0.484000, -1.894990
  0.486000, -1.743600
  0.488000, -1.587340
  0.490000, -1.421350
  0.492000, -1.255860
  0.494000, -1.096450
  0.496000, -0.948810
  0.498000, -0.810860
  0.500000, -0.686770
  0.502000, -0.578620
  0.504000, -0.472380
  0.506000, -0.374160
  0.508000, -0.272720
  0.510000, -0.171380
  0.512000, -0.060850
  0.514000,  0.061780
  0.516000,  0.195830
  0.518000,  0.334910
  0.520000,  0.484640
  0.522000,  0.630010
  0.524000,  0.774550
  0.526000,  0.916390
  0.528000,  1.046200
  0.530000,  1.167270
  0.532000,  1.279550
  0.534000,  1.380930
  0.536000,  1.461220
  0.538000,  1.536240
  0.540000,  1.600920
  0.542000,  1.661950
  0.544000,  1.713970
  0.546000,  1.770480
  0.548000,  1.818210
  0.550000,  1.869530
  0.552000,  1.917180
  0.554000,  1.971600
  0.556000,  2.021260
  0.558000,  2.064120
  0.560000,  2.105300
  0.562000,  2.131660
  0.564000,  2.146970
  0.566000,  2.146550
  0.568000,  2.124480
  0.570000,  2.088060
  0.572000,  2.040480
  0.574000,  1.983220
  0.576000,  1.913960
  0.578000,  1.840470
  0.580000,  1.768080
  0.582000,  1.694780
  0.584000,  1.631090
  0.586000,  1.563470
  0.588000,  1.497220
  0.590000,  1.437680
  0.592000,  1.382780
  0.594000,  1.329630
  0.596000,  1.272120
  0.598000,  1.213130
  0.600000,  1.137850
  0.602000,  1.059640
  0.604000,  0.979560
  0.606000,  0.887400
  0.608000,  0.801140
  0.610000,  0.714490
  0.612000,  0.634230
  0.614000,  0.566660
  0.616000,  0.506970
  0.618000,  0.452060
  0.620000,  0.400370
  0.622000,  0.347580
  0.624000,  0.285670
  0.626000,  0.204900
  0.628000,  0.113710
  0.630000,  0.006790
  0.632000, -0.106870
  0.634000, -0.223690
  0.636000, -0.336170
  0.638000, -0.432160
  0.640000, -0.503290
  0.642000, -0.554120
  0.644000, -0.584050
  0.646000, -0.590830
  0.648000, -0.585470
  0.650000, -0.573010
  0.652000, -0.558520
  0.654000, -0.555320
  0.656000, -0.565340
  0.658000, -0.590700
  0.660000, -0.629880
  0.662000, -0.682000
  0.664000, -0.734570
  0.666000, -0.781920
  0.668000, -0.821010
  0.670000, -0.850840
  0.672000, -0.873940
  0.674000, -0.890570
  0.676000, -0.913870
  0.678000, -0.925200
  0.680000, -0.938570
  0.682000, -0.946180
  0.684000, -0.945050
  0.686000, -0.955850
  0.688000, -0.949390
  0.690000, -0.942080
  0.692000, -0.917230
  0.694000, -0.893940
  0.696000, -0.861110
  0.698000, -0.823800
  0.700000, -0.783630
  0.702000, -0.751490
  0.704000, -0.720730
  0.706000, -0.697650
  0.708000, -0.686590
  0.710000, -0.688800
  0.712000, -0.700680
  0.714000, -0.717720
  0.716000, -0.736740
  0.718000, -0.748230
  0.720000, -0.751160
  0.722000, -0.746580
  0.724000, -0.735340
  0.726000, -0.712380
  0.728000, -0.684190
  0.730000, -0.648480
  0.732000, -0.605540
  0.734000, -0.567390
  0.736000, -0.528660
  0.738000, -0.503460
  0.740000, -0.479550
  0.742000, -0.463020
  0.744000, -0.460030
  0.746000, -0.455720
  0.748000, -0.464770
  0.750000, -0.463980
  0.752000, -0.458350
  0.754000, -0.451860
  0.756000, -0.441100
  0.758000, -0.426200
  0.760000, -0.403280
  0.762000, -0.375420
  0.764000, -0.349110
  0.766000, -0.325190
  0.768000, -0.299040
  0.770000, -0.274370
  0.772000, -0.251000
  0.774000, -0.235780
  0.776000, -0.219640
  0.778000, -0.206950
  0.780000, -0.191630
  0.782000, -0.172020
  0.784000, -0.155580
  0.786000, -0.126280
  0.788000, -0.096480
  0.790000, -0.055660
  0.792000, -0.018100
  0.794000,  0.017340
  0.796000,  0.043850
  0.798000,  0.069520
  0.800000,  0.083890
  0.802000,  0.101360
  0.804000,  0.102410
  0.806000,  0.105340
  0.808000,  0.110700
  0.810000,  0.110460
  0.812000,  0.115970
  0.814000,  0.121490
  0.816000,  0.131540
  0.818000,  0.142540
  0.820000,  0.157480
  0.822000,  0.174600
  0.824000,  0.198300
  0.826000,  0.220600
  0.828000,  0.242250
  0.830000,  0.266510
  0.832000,  0.283930
  0.834000,  0.297990
  0.836000,  0.307250
  0.838000,  0.316870
  0.840000,  0.325760
  0.842000,  0.332750
  0.844000,  0.338180
  0.846000,  0.347490
  0.848000,  0.360890
  0.850000,  0.366660
  0.852000,  0.375680
  0.854000,  0.377670
  0.856000,  0.386240
  0.858000,  0.395990
  0.860000,  0.394160
  0.862000,  0.392330
  0.864000,  0.396680
  0.866000,  0.401950
  0.868000,  0.405960
  0.870000,  0.404660
  0.872000,  0.400550
  0.874000,  0.397320
  0.876000,  0.402110
  0.878000,  0.402030
  0.880000,  0.403270
  0.882000,  0.402410
  0.884000,  0.401120
  0.886000,  0.391390
  0.888000,  0.388580
  0.890000,  0.377700
  0.892000,  0.364330
  0.894000,  0.358600
  0.896000,  0.348780
  0.898000,  0.333670
  0.900000,  0.323430
  0.902000,  0.315520
  0.904000,  0.306290
  0.906000,  0.300340
  0.908000,  0.294320
  0.910000,  0.280990
  0.912000,  0.274170
  0.914000,  0.267430
  0.916000,  0.251520
  0.918000,  0.235060
  0.920000,  0.220830
  0.922000,  0.202830
  0.924000,  0.180510
  0.926000,  0.152850
  0.928000,  0.123790
  0.930000,  0.100420
  0.932000,  0.072390
  0.934000,  0.040890
  0.936000,  0.008140
  0.938000, -0.021900
  0.940000, -0.055880
  0.942000, -0.089360
  0.944000, -0.124630
  0.946000, -0.147440
  0.948000, -0.167800
  0.950000, -0.182980
  0.952000, -0.188910
  0.954000, -0.185530
  0.956000, -0.176850
  0.958000, -0.159970
  0.960000, -0.146730
  0.962000, -0.130930
  0.964000, -0.116460
  0.966000, -0.107140
  0.968000, -0.095670
  0.970000, -0.097110
  0.972000, -0.095780
  0.974000, -0.099370
  0.976000, -0.103280
  0.978000, -0.111230
  0.980000, -0.109100
  0.982000, -0.115040
  0.984000, -0.109290
  0.986000, -0.101190
  0.988000, -0.095350
  0.990000, -0.088710
  0.992000, -0.085180
  0.994000, -0.079890
  0.996000, -0.079700
  0.998000, -0.079740
  1.000000, -0.080170
