# z (nm)   (kJ/mol)
  0.098000,265.979730
  0.100000,263.013320
  0.102000,260.649120
  0.104000,257.591600
  0.106000,255.061930
  0.108000,252.516050
  0.110000,249.895940
  0.112000,247.307270
  0.114000,244.646180
  0.116000,241.910520
  0.118000,239.091090
  0.120000,236.172260
  0.122000,233.137040
  0.124000,229.970500
  0.126000,226.665780
  0.128000,223.210960
  0.130000,219.602740
  0.132000,215.840660
  0.134000,211.948970
  0.136000,207.943030
  0.138000,203.848890
  0.140000,199.692150
  0.142000,195.499120
  0.144000,191.275190
  0.146000,187.028410
  0.148000,182.770990
  0.150000,178.494950
  0.152000,174.225330
  0.154000,169.979320
  0.156000,165.788800
  0.158000,161.686830
  0.160000,157.696430
  0.162000,153.818670
  0.164000,150.038740
  0.166000,146.321650
  0.168000,142.635210
  0.170000,138.966740
  0.172000,135.312920
  0.174000,131.695990
  0.176000,128.144070
  0.178000,124.666500
  0.180000,121.252770
  0.182000,117.894800
  0.184000,114.571620
  0.186000,111.282780
  0.188000,108.025540
  0.190000,104.810890
  0.192000,101.632500
  0.194000, 98.482200
  0.196000, 95.352340
  0.198000, 92.226730
  0.200000, 89.103390
  0.202000, 85.991770
  0.204000, 82.903520
  0.206000, 79.852180
  0.208000, 76.853640
  0.210000, 73.933070
  0.212000, 71.098970
  0.214000, 68.351620
  0.216000, 65.686510
  0.218000, 63.084980
  0.220000, 60.536370
  0.222000, 58.013580
  0.224000, 55.516450
  0.226000, 53.039760
  0.228000, 50.590610
  0.230000, 48.177740
  0.232000, 45.793170
  0.234000, 43.440590
  0.236000, 41.128900
  0.238000, 38.850030
  0.240000, 36.611650
  0.242000, 34.417360
  0.244000, 32.286020
  0.246000, 30.220750
  0.248000, 28.206880
  0.250000, 26.234530
  0.252000, 24.289520
  0.254000, 22.357790
  0.256000, 20.430820
  0.258000, 18.511940
  0.260000, 16.621020
  0.262000, 14.772430
  0.264000, 12.963100
  0.266000, 11.218890
  0.268000,  9.534570
  0.270000,  7.906500
  0.272000,  6.332590
  0.274000,  4.808400
  0.276000,  3.324610
  0.278000,  1.871120
  0.280000,  0.443530
  0.282000, -0.954880
  0.284000, -2.321430
  0.286000, -3.667890
  0.288000, -4.976550
  0.290000, -6.243280
  0.292000, -7.472820
  0.294000, -8.653040
  0.296000, -9.785190
  0.298000,-10.869930
  0.300000,-11.929000
  0.302000,-12.949070
  0.304000,-13.936370
  0.306000,-14.888550
  0.308000,-15.796750
  0.310000,-16.657590
  0.312000,-17.466320
  0.314000,-18.216310
  0.316000,-18.906000
  0.318000,-19.546300
  0.320000,-20.137140
  0.322000,-20.672990
  0.324000,-21.166220
  0.326000,-21.614870
  0.328000,-22.010660
  0.330000,-22.358440
  0.332000,-22.673310
  0.334000,-22.938210
  0.336000,-23.166420
  0.338000,-23.357840
  0.340000,-23.513170
  0.342000,-23.628930
  0.344000,-23.713910
  0.346000,-23.768610
  0.348000,-23.793800
  0.350000,-23.794840
  0.352000,-23.773840
  0.354000,-23.742260
  0.356000,-23.689170
  0.358000,-23.633560
  0.360000,-23.579980
  0.362000,-23.531580
  0.364000,-23.491620
  0.366000,-23.456560
  0.368000,-23.438200
  0.370000,-23.433360
  0.372000,-23.444320
  0.374000,-23.464420
  0.376000,-23.487230
  0.378000,-23.519150
  0.380000,-23.552140
  0.382000,-23.580170
  0.384000,-23.601380
  0.386000,-23.599490
  0.388000,-23.581450
  0.390000,-23.525800
  0.392000,-23.442110
  0.394000,-23.318830
  0.396000,-23.162770
  0.398000,-22.963470
  0.400000,-22.724070
  0.402000,-22.440220
  0.404000,-22.121980
  0.406000,-21.765640
  0.408000,-21.385210
  0.410000,-20.975780
  0.412000,-20.556240
  0.414000,-20.119890
  0.416000,-19.687900
  0.418000,-19.250800
  0.420000,-18.811750
  0.422000,-18.377930
  0.424000,-17.952840
  0.426000,-17.533190
  0.428000,-17.123040
  0.430000,-16.727360
  0.432000,-16.336540
  0.434000,-15.951970
  0.436000,-15.568000
  0.438000,-15.188870
  0.440000,-14.815880
  0.442000,-14.438340
  0.444000,-14.061750
  0.446000,-13.674180
  0.448000,-13.282700
  0.450000,-12.877670
  0.452000,-12.464280
  0.454000,-12.035400
  0.456000,-11.593500
  0.458000,-11.139810
  0.460000,-10.672830
  0.462000,-10.194440
  0.464000, -9.706940
  0.466000, -9.212230
  0.468000, -8.710550
  0.470000, -8.206560
  0.472000, -7.697650
  0.474000, -7.190460
  0.476000, -6.691730
  0.478000, -6.218470
  0.480000, -5.769520
  0.482000, -5.350010
  0.484000, -4.960000
  0.486000, -4.590370
  0.488000, -4.244250
  0.490000, -3.918230
  0.492000, -3.610910
  0.494000, -3.329010
  0.496000, -3.079760
  0.498000, -2.862530
  0.500000, -2.684700
  0.502000, -2.543980
  0.504000, -2.439420
  0.506000, -2.361220
  0.508000, -2.313420
  0.510000, -2.288950
  0.512000, -2.270580
  0.514000, -2.270750
  0.516000, -2.287350
  0.518000, -2.315450
  0.520000, -2.363850
  0.522000, -2.415940
  0.524000, -2.481320
  0.526000, -2.557560
  0.528000, -2.642180
  0.530000, -2.740300
  0.532000, -2.840720
  0.534000, -2.947360
  0.536000, -3.050720
  0.538000, -3.145620
  0.540000, -3.240850
  0.542000, -3.319240
  0.544000, -3.385500
  0.546000, -3.447930
  0.548000, -3.502930
  0.550000, -3.550730
  0.552000, -3.601960
  0.554000, -3.651270
  0.556000, -3.710630
  0.558000, -3.777040
  0.560000, -3.845260
  0.562000, -3.921840
  0.564000, -3.996820
  0.566000, -4.067990
  0.568000, -4.134950
  0.570000, -4.193160
  0.572000, -4.232690
  0.574000, -4.262050
  0.576000, -4.286760
  0.578000, -4.296690
  0.580000, -4.305350
  0.582000, -4.307160
  0.584000, -4.310510
  0.586000, -4.316220
  0.588000, -4.325250
  0.590000, -4.334790
  0.592000, -4.340110
  0.594000, -4.347300
  0.596000, -4.347230
  0.598000, -4.339100
  0.600000, -4.328650
  0.602000, -4.308010
  0.604000, -4.281200
  0.606000, -4.245460
  0.608000, -4.207090
  0.610000, -4.163650
  0.612000, -4.118390
  0.614000, -4.075140
  0.616000, -4.021760
  0.618000, -3.972200
  0.620000, -3.916760
  0.622000, -3.861390
  0.624000, -3.807420
  0.626000, -3.755220
  0.628000, -3.710190
  0.630000, -3.675720
  0.632000, -3.631790
  0.634000, -3.590230
  0.636000, -3.554190
  0.638000, -3.514330
  0.640000, -3.470610
  0.642000, -3.418730
  0.644000, -3.358370
  0.646000, -3.285980
  0.648000, -3.209240
  0.650000, -3.136260
  0.652000, -3.053830
  0.654000, -2.971180
  0.656000, -2.889970
  0.658000, -2.812400
  0.660000, -2.735970
  0.662000, -2.662030
  0.664000, -2.591830
  0.666000, -2.528410
  0.668000, -2.470120
  0.670000, -2.409920
  0.672000, -2.349840
  0.674000, -2.290830
  0.676000, -2.238280
  0.678000, -2.185240
  0.680000, -2.129980
  0.682000, -2.085240
  0.684000, -2.036540
  0.686000, -1.995710
  0.688000, -1.950270
  0.690000, -1.905940
  0.692000, -1.865460
  0.694000, -1.821430
  0.696000, -1.780460
  0.698000, -1.732160
  0.700000, -1.688040
  0.702000, -1.644570
  0.704000, -1.598990
  0.706000, -1.551300
  0.708000, -1.510210
  0.710000, -1.471440
  0.712000, -1.438670
  0.714000, -1.398740
  0.716000, -1.356790
  0.718000, -1.321260
  0.720000, -1.277950
  0.722000, -1.240630
  0.724000, -1.207310
  0.726000, -1.174170
  0.728000, -1.150460
  0.730000, -1.115910
  0.732000, -1.088080
  0.734000, -1.063090
  0.736000, -1.033000
  0.738000, -1.007700
  0.740000, -0.984610
  0.742000, -0.960760
  0.744000, -0.930570
  0.746000, -0.903000
  0.748000, -0.870630
  0.750000, -0.834570
  0.752000, -0.800120
  0.754000, -0.768580
  0.756000, -0.743140
  0.758000, -0.726340
  0.760000, -0.712660
  0.762000, -0.707380
  0.764000, -0.715560
  0.766000, -0.726530
  0.768000, -0.749450
  0.770000, -0.780180
  0.772000, -0.799420
  0.774000, -0.822620
  0.776000, -0.836350
  0.778000, -0.845110
  0.780000, -0.847130
  0.782000, -0.842520
  0.784000, -0.832730
  0.786000, -0.817550
  0.788000, -0.804270
  0.790000, -0.787650
  0.792000, -0.773420
  0.794000, -0.762530
  0.796000, -0.755670
  0.798000, -0.754010
  0.800000, -0.752010
  0.802000, -0.752020
  0.804000, -0.754550
  0.806000, -0.761080
  0.808000, -0.766270
  0.810000, -0.766120
  0.812000, -0.764240
  0.814000, -0.759780
  0.816000, -0.755370
  0.818000, -0.742380
  0.820000, -0.731920
  0.822000, -0.723570
  0.824000, -0.711850
  0.826000, -0.701920
  0.828000, -0.689600
  0.830000, -0.678580
  0.832000, -0.665220
  0.834000, -0.655560
  0.836000, -0.641990
  0.838000, -0.624630
  0.840000, -0.601560
  0.842000, -0.572430
  0.844000, -0.536330
  0.846000, -0.492170
  0.848000, -0.452650
  0.850000, -0.412860
  0.852000, -0.380540
  0.854000, -0.353720
  0.856000, -0.336520
  0.858000, -0.325560
  0.860000, -0.322710
  0.862000, -0.324600
  0.864000, -0.321740
  0.866000, -0.315080
  0.868000, -0.310420
  0.870000, -0.299560
  0.872000, -0.282730
  0.874000, -0.252930
  0.876000, -0.219240
  0.878000, -0.181330
  0.880000, -0.143350
  0.882000, -0.101220
  0.884000, -0.066920
  0.886000, -0.044290
  0.888000, -0.024940
  0.890000, -0.016780
  0.892000, -0.013750
  0.894000, -0.014490
  0.896000, -0.011890
  0.898000, -0.012410
  0.900000, -0.011550
  0.902000, -0.012290
  0.904000, -0.008770
  0.906000,  0.006010
  0.908000,  0.019730
  0.910000,  0.035730
  0.912000,  0.048190
  0.914000,  0.060850
  0.916000,  0.065860
  0.918000,  0.071170
  0.920000,  0.067440
  0.922000,  0.061630
  0.924000,  0.053440
  0.926000,  0.046020
  0.928000,  0.034540
  0.930000,  0.031180
  0.932000,  0.025520
  0.934000,  0.021410
  0.936000,  0.025820
  0.938000,  0.030050
  0.940000,  0.040230
  0.942000,  0.050360
  0.944000,  0.058310
  0.946000,  0.067620
  0.948000,  0.078690
  0.950000,  0.085060
  0.952000,  0.083130
  0.954000,  0.076220
  0.956000,  0.072810
  0.958000,  0.063650
  0.960000,  0.052850
  0.962000,  0.033340
  0.964000,  0.019750
  0.966000, -0.001060
  0.968000, -0.018130
  0.970000, -0.033950
  0.972000, -0.059180
  0.974000, -0.079390
  0.976000, -0.100400
  0.978000, -0.114230
  0.980000, -0.126930
  0.982000, -0.130780
  0.984000, -0.133710
  0.986000, -0.128490
  0.988000, -0.117740
  0.990000, -0.100440
  0.992000, -0.085590
  0.994000, -0.067920
  0.996000, -0.059590
  0.998000, -0.051690
  1.000000, -0.056310
