# z (nm)   (kJ/mol)
  0.114000,260.612910
  0.116000,256.495090
  0.118000,254.875070
  0.120000,251.939910
  0.122000,249.188840
  0.124000,246.522760
  0.126000,243.902200
  0.128000,241.264110
  0.130000,238.577100
  0.132000,235.823090
  0.134000,232.985960
  0.136000,230.045810
  0.138000,226.977700
  0.140000,223.769270
  0.142000,220.415060
  0.144000,216.914990
  0.146000,213.277330
  0.148000,209.515010
  0.150000,205.640650
  0.152000,201.674860
  0.154000,197.638470
  0.156000,193.543370
  0.158000,189.404870
  0.160000,185.225970
  0.162000,181.017120
  0.164000,176.783830
  0.166000,172.535040
  0.168000,168.296480
  0.170000,164.086190
  0.172000,159.933310
  0.174000,155.851170
  0.176000,151.869360
  0.178000,148.000310
  0.180000,144.256180
  0.182000,140.631010
  0.184000,137.118230
  0.186000,133.691920
  0.188000,130.325470
  0.190000,126.990500
  0.192000,123.664460
  0.194000,120.338360
  0.196000,117.005670
  0.198000,113.688360
  0.200000,110.409780
  0.202000,107.194490
  0.204000,104.077150
  0.206000,101.056610
  0.208000, 98.120790
  0.210000, 95.239590
  0.212000, 92.375720
  0.214000, 89.505440
  0.216000, 86.626740
  0.218000, 83.753130
  0.220000, 80.905170
  0.222000, 78.118480
  0.224000, 75.411320
  0.226000, 72.787930
  0.228000, 70.233220
  0.230000, 67.725690
  0.232000, 65.246210
  0.234000, 62.800150
  0.236000, 60.380680
  0.238000, 57.997860
  0.240000, 55.672920
  0.242000, 53.400020
  0.244000, 51.175720
  0.246000, 48.990020
  0.248000, 46.824210
  0.250000, 44.688210
  0.252000, 42.600300
  0.254000, 40.592850
  0.256000, 38.681680
  0.258000, 36.850120
  0.260000, 35.061980
  0.262000, 33.252030
  0.264000, 31.416740
  0.266000, 29.563310
  0.268000, 27.726710
  0.270000, 25.956850
  0.272000, 24.292030
  0.274000, 22.728190
  0.276000, 21.242580
  0.278000, 19.816550
  0.280000, 18.442730
  0.282000, 17.132720
  0.284000, 15.880200
  0.286000, 14.645100
  0.288000, 13.396940
  0.290000, 12.124420
  0.292000, 10.833850
  0.294000,  9.582040
  0.296000,  8.394080
  0.298000,  7.305330
  0.300000,  6.309200
  0.302000,  5.385150
  0.304000,  4.504990
  0.306000,  3.646280
  0.308000,  2.820930
  0.310000,  2.017590
  0.312000,  1.229580
  0.314000,  0.424180
  0.316000, -0.407750
  0.318000, -1.272450
  0.320000, -2.141290
  0.322000, -2.958580
  0.324000, -3.686250
  0.326000, -4.295480
  0.328000, -4.820530
  0.330000, -5.309580
  0.332000, -5.821770
  0.334000, -6.398950
  0.336000, -7.036170
  0.338000, -7.714540
  0.340000, -8.401240
  0.342000, -9.050680
  0.344000, -9.648130
  0.346000,-10.176870
  0.348000,-10.648400
  0.350000,-11.083370
  0.352000,-11.499310
  0.354000,-11.907650
  0.356000,-12.326590
  0.358000,-12.757460
  0.360000,-13.196020
  0.362000,-13.639100
  0.364000,-14.060940
  0.366000,-14.470020
  0.368000,-14.847570
  0.370000,-15.192710
  0.372000,-15.500940
  0.374000,-15.768760
  0.376000,-15.980930
  0.378000,-16.169110
  0.380000,-16.357900
  0.382000,-16.563120
  0.384000,-16.792050
  0.386000,-17.016870
  0.388000,-17.228700
  0.390000,-17.404260
  0.392000,-17.542480
  0.394000,-17.647680
  0.396000,-17.730940
  0.398000,-17.815460
  0.400000,-17.901160
  0.402000,-17.967270
  0.404000,-18.004280
  0.406000,-18.008800
  0.408000,-17.975900
  0.410000,-17.910630
  0.412000,-17.836940
  0.414000,-17.776480
  0.416000,-17.736770
  0.418000,-17.718530
  0.420000,-17.705080
  0.422000,-17.644180
  0.424000,-17.530160
  0.426000,-17.364410
  0.428000,-17.192060
  0.430000,-17.022420
  0.432000,-16.884500
  0.434000,-16.774620
  0.436000,-16.670270
  0.438000,-16.556070
  0.440000,-16.414540
  0.442000,-16.266510
  0.444000,-16.116690
  0.446000,-15.982570
  0.448000,-15.871520
  0.450000,-15.770520
  0.452000,-15.660620
  0.454000,-15.538630
  0.456000,-15.395730
  0.458000,-15.248180
  0.460000,-15.108930
  0.462000,-14.991860
  0.464000,-14.890630
  0.466000,-14.807760
  0.468000,-14.737780
  0.470000,-14.659680
  0.472000,-14.565800
  0.474000,-14.467400
  0.476000,-14.337240
  0.478000,-14.190240
  0.480000,-14.033820
  0.482000,-13.868260
  0.484000,-13.700900
  0.486000,-13.531030
  0.488000,-13.375290
  0.490000,-13.219360
  0.492000,-13.064770
  0.494000,-12.899530
  0.496000,-12.728540
  0.498000,-12.554930
  0.500000,-12.354580
  0.502000,-12.146010
  0.504000,-11.920960
  0.506000,-11.683830
  0.508000,-11.435100
  0.510000,-11.171740
  0.512000,-10.906900
  0.514000,-10.646220
  0.516000,-10.390210
  0.518000,-10.147320
  0.520000, -9.924780
  0.522000, -9.732160
  0.524000, -9.557450
  0.526000, -9.399920
  0.528000, -9.231270
  0.530000, -9.030480
  0.532000, -8.786560
  0.534000, -8.502560
  0.536000, -8.208220
  0.538000, -7.934660
  0.540000, -7.705140
  0.542000, -7.532380
  0.544000, -7.415320
  0.546000, -7.320100
  0.548000, -7.209270
  0.550000, -7.062680
  0.552000, -6.877690
  0.554000, -6.652890
  0.556000, -6.427780
  0.558000, -6.219210
  0.560000, -6.040860
  0.562000, -5.898490
  0.564000, -5.787120
  0.566000, -5.695920
  0.568000, -5.606130
  0.570000, -5.496950
  0.572000, -5.381100
  0.574000, -5.255320
  0.576000, -5.116340
  0.578000, -4.982860
  0.580000, -4.830280
  0.582000, -4.669100
  0.584000, -4.505880
  0.586000, -4.355750
  0.588000, -4.215850
  0.590000, -4.090920
  0.592000, -3.980010
  0.594000, -3.880850
  0.596000, -3.779040
  0.598000, -3.677030
  0.600000, -3.559080
  0.602000, -3.422650
  0.604000, -3.268090
  0.606000, -3.103050
  0.608000, -2.933640
  0.610000, -2.768350
  0.612000, -2.603760
  0.614000, -2.447650
  0.616000, -2.294120
  0.618000, -2.151370
  0.620000, -2.021570
  0.622000, -1.912890
  0.624000, -1.814440
  0.626000, -1.726010
  0.628000, -1.638100
  0.630000, -1.546760
  0.632000, -1.453910
  0.634000, -1.369270
  0.636000, -1.281920
  0.638000, -1.202690
  0.640000, -1.128410
  0.642000, -1.067050
  0.644000, -1.022730
  0.646000, -0.995910
  0.648000, -0.995200
  0.650000, -1.014320
  0.652000, -1.037720
  0.654000, -1.052000
  0.656000, -1.053400
  0.658000, -1.034510
  0.660000, -1.008900
  0.662000, -0.986200
  0.664000, -0.968590
  0.666000, -0.968110
  0.668000, -0.975550
  0.670000, -0.987290
  0.672000, -1.012180
  0.674000, -1.052780
  0.676000, -1.105420
  0.678000, -1.170910
  0.680000, -1.241240
  0.682000, -1.315080
  0.684000, -1.376590
  0.686000, -1.421400
  0.688000, -1.441690
  0.690000, -1.438120
  0.692000, -1.423170
  0.694000, -1.406530
  0.696000, -1.399060
  0.698000, -1.411810
  0.700000, -1.459340
  0.702000, -1.519740
  0.704000, -1.577580
  0.706000, -1.623870
  0.708000, -1.644460
  0.710000, -1.630720
  0.712000, -1.605620
  0.714000, -1.580680
  0.716000, -1.573280
  0.718000, -1.593400
  0.720000, -1.634630
  0.722000, -1.686810
  0.724000, -1.742220
  0.726000, -1.777650
  0.728000, -1.788020
  0.730000, -1.785400
  0.732000, -1.761040
  0.734000, -1.724250
  0.736000, -1.679440
  0.738000, -1.648680
  0.740000, -1.639430
  0.742000, -1.656790
  0.744000, -1.703870
  0.746000, -1.767070
  0.748000, -1.839450
  0.750000, -1.888380
  0.752000, -1.906260
  0.754000, -1.892700
  0.756000, -1.854070
  0.758000, -1.784590
  0.760000, -1.705530
  0.762000, -1.631810
  0.764000, -1.559990
  0.766000, -1.503580
  0.768000, -1.454670
  0.770000, -1.423380
  0.772000, -1.405310
  0.774000, -1.412630
  0.776000, -1.432190
  0.778000, -1.463880
  0.780000, -1.492440
  0.782000, -1.520350
  0.784000, -1.529230
  0.786000, -1.523690
  0.788000, -1.494070
  0.790000, -1.446770
  0.792000, -1.383110
  0.794000, -1.296770
  0.796000, -1.215380
  0.798000, -1.144920
  0.800000, -1.094820
  0.802000, -1.062380
  0.804000, -1.052480
  0.806000, -1.056510
  0.808000, -1.078890
  0.810000, -1.098630
  0.812000, -1.108340
  0.814000, -1.100820
  0.816000, -1.079460
  0.818000, -1.037890
  0.820000, -0.987810
  0.822000, -0.927620
  0.824000, -0.866920
  0.826000, -0.814440
  0.828000, -0.765290
  0.830000, -0.717370
  0.832000, -0.675920
  0.834000, -0.641520
  0.836000, -0.602380
  0.838000, -0.567490
  0.840000, -0.529680
  0.842000, -0.494800
  0.844000, -0.457600
  0.846000, -0.425470
  0.848000, -0.388150
  0.850000, -0.355120
  0.852000, -0.322020
  0.854000, -0.303750
  0.856000, -0.292230
  0.858000, -0.286810
  0.860000, -0.292150
  0.862000, -0.297840
  0.864000, -0.300550
  0.866000, -0.302420
  0.868000, -0.294980
  0.870000, -0.271510
  0.872000, -0.236820
  0.874000, -0.191720
  0.876000, -0.141500
  0.878000, -0.100960
  0.880000, -0.064630
  0.882000, -0.031690
  0.884000, -0.019480
  0.886000, -0.008980
  0.888000,  0.004020
  0.890000,  0.022590
  0.892000,  0.048290
  0.894000,  0.073300
  0.896000,  0.111700
  0.898000,  0.155500
  0.900000,  0.184700
  0.902000,  0.218080
  0.904000,  0.242570
  0.906000,  0.256510
  0.908000,  0.271520
  0.910000,  0.264390
  0.912000,  0.254470
  0.914000,  0.230120
  0.916000,  0.192820
  0.918000,  0.150490
  0.920000,  0.108860
  0.922000,  0.071040
  0.924000,  0.049740
  0.926000,  0.046290
  0.928000,  0.065820
  0.930000,  0.109540
  0.932000,  0.154980
  0.934000,  0.194410
  0.936000,  0.216700
  0.938000,  0.206860
  0.940000,  0.167610
  0.942000,  0.110260
  0.944000,  0.044430
  0.946000, -0.016970
  0.948000, -0.066070
  0.950000, -0.095580
  0.952000, -0.106840
  0.954000, -0.110050
  0.956000, -0.117370
  0.958000, -0.131710
  0.960000, -0.154480
  0.962000, -0.173120
  0.964000, -0.168350
  0.966000, -0.125590
  0.968000, -0.035370
  0.970000,  0.085650
  0.972000,  0.193310
  0.974000,  0.213680
  0.976000,  0.086300
  0.978000, -0.189950
  0.980000, -0.543930
  0.982000, -0.816990
  0.984000, -0.889990
  0.986000, -0.708690
  0.988000, -0.365170
  0.990000, -0.011500
  0.992000,  0.221730
  0.994000,  0.282400
  0.996000,  0.202680
  0.998000,  0.041210
  1.000000, -0.126760
