# z (nm)   (kJ/mol)
  0.056000,273.175420
  0.058000,270.797110
  0.060000,268.459390
  0.062000,266.016120
  0.064000,263.674570
  0.066000,261.207610
  0.068000,258.807490
  0.070000,256.489380
  0.072000,254.079890
  0.074000,251.681050
  0.076000,249.230860
  0.078000,246.740970
  0.080000,244.176740
  0.082000,241.541660
  0.084000,238.816070
  0.086000,235.990910
  0.088000,233.054550
  0.090000,229.999780
  0.092000,226.819850
  0.094000,223.510980
  0.096000,220.075710
  0.098000,216.512610
  0.100000,212.830850
  0.102000,209.048440
  0.104000,205.179080
  0.106000,201.236960
  0.108000,197.251290
  0.110000,193.234230
  0.112000,189.217250
  0.114000,185.210070
  0.116000,181.224520
  0.118000,177.271540
  0.120000,173.353080
  0.122000,169.469100
  0.124000,165.615100
  0.126000,161.794490
  0.128000,158.007370
  0.130000,154.255180
  0.132000,150.548160
  0.134000,146.894990
  0.136000,143.309410
  0.138000,139.795340
  0.140000,136.355090
  0.142000,132.989900
  0.144000,129.689060
  0.146000,126.440430
  0.148000,123.227770
  0.150000,120.040280
  0.152000,116.866170
  0.154000,113.709410
  0.156000,110.571380
  0.158000,107.461310
  0.160000,104.393940
  0.162000,101.382140
  0.164000, 98.435740
  0.166000, 95.550320
  0.168000, 92.727810
  0.170000, 89.955180
  0.172000, 87.223630
  0.174000, 84.516070
  0.176000, 81.824960
  0.178000, 79.143060
  0.180000, 76.472130
  0.182000, 73.823940
  0.184000, 71.214430
  0.186000, 68.650020
  0.188000, 66.140160
  0.190000, 63.693010
  0.192000, 61.309130
  0.194000, 58.983510
  0.196000, 56.713380
  0.198000, 54.486670
  0.200000, 52.292190
  0.202000, 50.124050
  0.204000, 47.980620
  0.206000, 45.855240
  0.208000, 43.747820
  0.210000, 41.667360
  0.212000, 39.621270
  0.214000, 37.604560
  0.216000, 35.641590
  0.218000, 33.730550
  0.220000, 31.881000
  0.222000, 30.080490
  0.224000, 28.320410
  0.226000, 26.605920
  0.228000, 24.914720
  0.230000, 23.256120
  0.232000, 21.628360
  0.234000, 20.027130
  0.236000, 18.460400
  0.238000, 16.935060
  0.240000, 15.451470
  0.242000, 14.002900
  0.244000, 12.599000
  0.246000, 11.233570
  0.248000,  9.900540
  0.250000,  8.601320
  0.252000,  7.332280
  0.254000,  6.095510
  0.256000,  4.886420
  0.258000,  3.708450
  0.260000,  2.568370
  0.262000,  1.473770
  0.264000,  0.430370
  0.266000, -0.570720
  0.268000, -1.518400
  0.270000, -2.424730
  0.272000, -3.287450
  0.274000, -4.119450
  0.276000, -4.921080
  0.278000, -5.706990
  0.280000, -6.467240
  0.282000, -7.198820
  0.284000, -7.894900
  0.286000, -8.545900
  0.288000, -9.147720
  0.290000, -9.706730
  0.292000,-10.215900
  0.294000,-10.687810
  0.296000,-11.136450
  0.298000,-11.566270
  0.300000,-11.978100
  0.302000,-12.375010
  0.304000,-12.741960
  0.306000,-13.079500
  0.308000,-13.379390
  0.310000,-13.642710
  0.312000,-13.863820
  0.314000,-14.060350
  0.316000,-14.231360
  0.318000,-14.380350
  0.320000,-14.506910
  0.322000,-14.629420
  0.324000,-14.750130
  0.326000,-14.853290
  0.328000,-14.940090
  0.330000,-15.007000
  0.332000,-15.054810
  0.334000,-15.075590
  0.336000,-15.066160
  0.338000,-15.032250
  0.340000,-14.970750
  0.342000,-14.886220
  0.344000,-14.791300
  0.346000,-14.678200
  0.348000,-14.568050
  0.350000,-14.449740
  0.352000,-14.325290
  0.354000,-14.196600
  0.356000,-14.060810
  0.358000,-13.918710
  0.360000,-13.768000
  0.362000,-13.604580
  0.364000,-13.436450
  0.366000,-13.256870
  0.368000,-13.071370
  0.370000,-12.886190
  0.372000,-12.694740
  0.374000,-12.505420
  0.376000,-12.322030
  0.378000,-12.141140
  0.380000,-11.963480
  0.382000,-11.779370
  0.384000,-11.591650
  0.386000,-11.397770
  0.388000,-11.203250
  0.390000,-11.000700
  0.392000,-10.794470
  0.394000,-10.585780
  0.396000,-10.379500
  0.398000,-10.180460
  0.400000, -9.981740
  0.402000, -9.804170
  0.404000, -9.621380
  0.406000, -9.446100
  0.408000, -9.268470
  0.410000, -9.091120
  0.412000, -8.914640
  0.414000, -8.733700
  0.416000, -8.561890
  0.418000, -8.386810
  0.420000, -8.218480
  0.422000, -8.053870
  0.424000, -7.897460
  0.426000, -7.743770
  0.428000, -7.597960
  0.430000, -7.456930
  0.432000, -7.317700
  0.434000, -7.186860
  0.436000, -7.055760
  0.438000, -6.934640
  0.440000, -6.824490
  0.442000, -6.717240
  0.444000, -6.613400
  0.446000, -6.512860
  0.448000, -6.411870
  0.450000, -6.314000
  0.452000, -6.219400
  0.454000, -6.127930
  0.456000, -6.033660
  0.458000, -5.948230
  0.460000, -5.872070
  0.462000, -5.807410
  0.464000, -5.757120
  0.466000, -5.720310
  0.468000, -5.695590
  0.470000, -5.682660
  0.472000, -5.675400
  0.474000, -5.661690
  0.476000, -5.647160
  0.478000, -5.620140
  0.480000, -5.573060
  0.482000, -5.524040
  0.484000, -5.464190
  0.486000, -5.394970
  0.488000, -5.324000
  0.490000, -5.251930
  0.492000, -5.178370
  0.494000, -5.101970
  0.496000, -5.034460
  0.498000, -4.969790
  0.500000, -4.904780
  0.502000, -4.844610
  0.504000, -4.775290
  0.506000, -4.705780
  0.508000, -4.632190
  0.510000, -4.544190
  0.512000, -4.448400
  0.514000, -4.347150
  0.516000, -4.235070
  0.518000, -4.121020
  0.520000, -4.000510
  0.522000, -3.867550
  0.524000, -3.732080
  0.526000, -3.596280
  0.528000, -3.442950
  0.530000, -3.290100
  0.532000, -3.131570
  0.534000, -2.972830
  0.536000, -2.808650
  0.538000, -2.636990
  0.540000, -2.466660
  0.542000, -2.290260
  0.544000, -2.117970
  0.546000, -1.940760
  0.548000, -1.763340
  0.550000, -1.585380
  0.552000, -1.409940
  0.554000, -1.232850
  0.556000, -1.066160
  0.558000, -0.903020
  0.560000, -0.747610
  0.562000, -0.598140
  0.564000, -0.452840
  0.566000, -0.304610
  0.568000, -0.163810
  0.570000, -0.019650
  0.572000,  0.126510
  0.574000,  0.278160
  0.576000,  0.435540
  0.578000,  0.587290
  0.580000,  0.734110
  0.582000,  0.866070
  0.584000,  0.980720
  0.586000,  1.075920
  0.588000,  1.147270
  0.590000,  1.196200
  0.592000,  1.230350
  0.594000,  1.250980
  0.596000,  1.266600
  0.598000,  1.271820
  0.600000,  1.277270
  0.602000,  1.283950
  0.604000,  1.295440
  0.606000,  1.299230
  0.608000,  1.308620
  0.610000,  1.312850
  0.612000,  1.313110
  0.614000,  1.303650
  0.616000,  1.275010
  0.618000,  1.234440
  0.620000,  1.177350
  0.622000,  1.112310
  0.624000,  1.039440
  0.626000,  0.962640
  0.628000,  0.884250
  0.630000,  0.793960
  0.632000,  0.719500
  0.634000,  0.649170
  0.636000,  0.587310
  0.638000,  0.534980
  0.640000,  0.489590
  0.642000,  0.451070
  0.644000,  0.413050
  0.646000,  0.373260
  0.648000,  0.330540
  0.650000,  0.280730
  0.652000,  0.228860
  0.654000,  0.163270
  0.656000,  0.098130
  0.658000,  0.024380
  0.660000, -0.041950
  0.662000, -0.113820
  0.664000, -0.180350
  0.666000, -0.231560
  0.668000, -0.272920
  0.670000, -0.299950
  0.672000, -0.311110
  0.674000, -0.304120
  0.676000, -0.291850
  0.678000, -0.280210
  0.680000, -0.271840
  0.682000, -0.281200
  0.684000, -0.302290
  0.686000, -0.339890
  0.688000, -0.398340
  0.690000, -0.454550
  0.692000, -0.509840
  0.694000, -0.548820
  0.696000, -0.559230
  0.698000, -0.549760
  0.700000, -0.519010
  0.702000, -0.482110
  0.704000, -0.446860
  0.706000, -0.423860
  0.708000, -0.414040
  0.710000, -0.422580
  0.712000, -0.438540
  0.714000, -0.458030
  0.716000, -0.483800
  0.718000, -0.513570
  0.720000, -0.537160
  0.722000, -0.565580
  0.724000, -0.600870
  0.726000, -0.634990
  0.728000, -0.667300
  0.730000, -0.701040
  0.732000, -0.724110
  0.734000, -0.752880
  0.736000, -0.773830
  0.738000, -0.783490
  0.740000, -0.788910
  0.742000, -0.789220
  0.744000, -0.777510
  0.746000, -0.762830
  0.748000, -0.742990
  0.750000, -0.723730
  0.752000, -0.697770
  0.754000, -0.673530
  0.756000, -0.649110
  0.758000, -0.632950
  0.760000, -0.632790
  0.762000, -0.637800
  0.764000, -0.647820
  0.766000, -0.662390
  0.768000, -0.684950
  0.770000, -0.705740
  0.772000, -0.726020
  0.774000, -0.748560
  0.776000, -0.760320
  0.778000, -0.768040
  0.780000, -0.770230
  0.782000, -0.760860
  0.784000, -0.746610
  0.786000, -0.722230
  0.788000, -0.692760
  0.790000, -0.654110
  0.792000, -0.622440
  0.794000, -0.587390
  0.796000, -0.556970
  0.798000, -0.527750
  0.800000, -0.501430
  0.802000, -0.483360
  0.804000, -0.473400
  0.806000, -0.467610
  0.808000, -0.462170
  0.810000, -0.458990
  0.812000, -0.456450
  0.814000, -0.452770
  0.816000, -0.445720
  0.818000, -0.439570
  0.820000, -0.436710
  0.822000, -0.430530
  0.824000, -0.420720
  0.826000, -0.405200
  0.828000, -0.388140
  0.830000, -0.370890
  0.832000, -0.349550
  0.834000, -0.326800
  0.836000, -0.301320
  0.838000, -0.273570
  0.840000, -0.245630
  0.842000, -0.212490
  0.844000, -0.173640
  0.846000, -0.139150
  0.848000, -0.111620
  0.850000, -0.085670
  0.852000, -0.053510
  0.854000, -0.027200
  0.856000,  0.001120
  0.858000,  0.025970
  0.860000,  0.052840
  0.862000,  0.064690
  0.864000,  0.075690
  0.866000,  0.086010
  0.868000,  0.092670
  0.870000,  0.095190
  0.872000,  0.095600
  0.874000,  0.097230
  0.876000,  0.107180
  0.878000,  0.121600
  0.880000,  0.141150
  0.882000,  0.164420
  0.884000,  0.195930
  0.886000,  0.229460
  0.888000,  0.261860
  0.890000,  0.292440
  0.892000,  0.320490
  0.894000,  0.342480
  0.896000,  0.353420
  0.898000,  0.358620
  0.900000,  0.357830
  0.902000,  0.343570
  0.904000,  0.322570
  0.906000,  0.294660
  0.908000,  0.270750
  0.910000,  0.240500
  0.912000,  0.213690
  0.914000,  0.190300
  0.916000,  0.170740
  0.918000,  0.158600
  0.920000,  0.151010
  0.922000,  0.146750
  0.924000,  0.139980
  0.926000,  0.127610
  0.928000,  0.115390
  0.930000,  0.096950
  0.932000,  0.070410
  0.934000,  0.047300
  0.936000,  0.020530
  0.938000, -0.001960
  0.940000, -0.017880
  0.942000, -0.028810
  0.944000, -0.033940
  0.946000, -0.033260
  0.948000, -0.037830
  0.950000, -0.031660
  0.952000, -0.023420
  0.954000, -0.020370
  0.956000, -0.019180
  0.958000, -0.024410
  0.960000, -0.030390
  0.962000, -0.045280
  0.964000, -0.061680
  0.966000, -0.078310
  0.968000, -0.103860
  0.970000, -0.123350
  0.972000, -0.146920
  0.974000, -0.165750
  0.976000, -0.176850
  0.978000, -0.186610
  0.980000, -0.186180
  0.982000, -0.187700
  0.984000, -0.179280
  0.986000, -0.172080
  0.988000, -0.160230
  0.990000, -0.152200
  0.992000, -0.143290
  0.994000, -0.137090
  0.996000, -0.132280
  0.998000, -0.137070
  1.000000, -0.142210
