# z (nm)   (kJ/mol)
  0.068000,270.282180
  0.070000,267.792720
  0.072000,264.919290
  0.074000,262.246490
  0.076000,259.481920
  0.078000,256.904290
  0.080000,254.334070
  0.082000,251.659340
  0.084000,248.992850
  0.086000,246.248410
  0.088000,243.441960
  0.090000,240.572770
  0.092000,237.611840
  0.094000,234.551360
  0.096000,231.374870
  0.098000,228.083990
  0.100000,224.680100
  0.102000,221.158890
  0.104000,217.527530
  0.106000,213.798530
  0.108000,209.984650
  0.110000,206.098920
  0.112000,202.155970
  0.114000,198.180540
  0.116000,194.189150
  0.118000,190.193770
  0.120000,186.202470
  0.122000,182.230800
  0.124000,178.277520
  0.126000,174.339520
  0.128000,170.430920
  0.130000,166.533700
  0.132000,162.651060
  0.134000,158.783630
  0.136000,154.937040
  0.138000,151.129470
  0.140000,147.379090
  0.142000,143.708480
  0.144000,140.132540
  0.146000,136.670320
  0.148000,133.317180
  0.150000,130.061240
  0.152000,126.891740
  0.154000,123.776440
  0.156000,120.701480
  0.158000,117.643220
  0.160000,114.593690
  0.162000,111.545600
  0.164000,108.497340
  0.166000,105.448750
  0.168000,102.397470
  0.170000, 99.337190
  0.172000, 96.267520
  0.174000, 93.191140
  0.176000, 90.127420
  0.178000, 87.112540
  0.180000, 84.202510
  0.182000, 81.432220
  0.184000, 78.819560
  0.186000, 76.332790
  0.188000, 73.911820
  0.190000, 71.495450
  0.192000, 69.040080
  0.194000, 66.529210
  0.196000, 63.987130
  0.198000, 61.445930
  0.200000, 58.940610
  0.202000, 56.500250
  0.204000, 54.133980
  0.206000, 51.842680
  0.208000, 49.613680
  0.210000, 47.434070
  0.212000, 45.293460
  0.214000, 43.183650
  0.216000, 41.108770
  0.218000, 39.075460
  0.220000, 37.102740
  0.222000, 35.184940
  0.224000, 33.339980
  0.226000, 31.549680
  0.228000, 29.802860
  0.230000, 28.089100
  0.232000, 26.403550
  0.234000, 24.745010
  0.236000, 23.098160
  0.238000, 21.475530
  0.240000, 19.882130
  0.242000, 18.320230
  0.244000, 16.784670
  0.246000, 15.288100
  0.248000, 13.844820
  0.250000, 12.462220
  0.252000, 11.135730
  0.254000,  9.864770
  0.256000,  8.657550
  0.258000,  7.495700
  0.260000,  6.375720
  0.262000,  5.279560
  0.264000,  4.209700
  0.266000,  3.154510
  0.268000,  2.118210
  0.270000,  1.095090
  0.272000,  0.098890
  0.274000, -0.869410
  0.276000, -1.784490
  0.278000, -2.650300
  0.280000, -3.461440
  0.282000, -4.214590
  0.284000, -4.926770
  0.286000, -5.599460
  0.288000, -6.244380
  0.290000, -6.869640
  0.292000, -7.480210
  0.294000, -8.075540
  0.296000, -8.641720
  0.298000, -9.181550
  0.300000, -9.683590
  0.302000,-10.148500
  0.304000,-10.569560
  0.306000,-10.951200
  0.308000,-11.297740
  0.310000,-11.599800
  0.312000,-11.865740
  0.314000,-12.086660
  0.316000,-12.279020
  0.318000,-12.446250
  0.320000,-12.602720
  0.322000,-12.735590
  0.324000,-12.860430
  0.326000,-12.989280
  0.328000,-13.107420
  0.330000,-13.211370
  0.332000,-13.308490
  0.334000,-13.380450
  0.336000,-13.434700
  0.338000,-13.452110
  0.340000,-13.443960
  0.342000,-13.401840
  0.344000,-13.334650
  0.346000,-13.244110
  0.348000,-13.149300
  0.350000,-13.046030
  0.352000,-12.951710
  0.354000,-12.870740
  0.356000,-12.796240
  0.358000,-12.715970
  0.360000,-12.635230
  0.362000,-12.539830
  0.364000,-12.417680
  0.366000,-12.274820
  0.368000,-12.109240
  0.370000,-11.925770
  0.372000,-11.731810
  0.374000,-11.525650
  0.376000,-11.322510
  0.378000,-11.133680
  0.380000,-10.953640
  0.382000,-10.780280
  0.384000,-10.616420
  0.386000,-10.454620
  0.388000,-10.295150
  0.390000,-10.119450
  0.392000, -9.931470
  0.394000, -9.733530
  0.396000, -9.520640
  0.398000, -9.313120
  0.400000, -9.098400
  0.402000, -8.882140
  0.404000, -8.678740
  0.406000, -8.476000
  0.408000, -8.284020
  0.410000, -8.100120
  0.412000, -7.927840
  0.414000, -7.777650
  0.416000, -7.637750
  0.418000, -7.508290
  0.420000, -7.394960
  0.422000, -7.293540
  0.424000, -7.194100
  0.426000, -7.100820
  0.428000, -7.008140
  0.430000, -6.903720
  0.432000, -6.795200
  0.434000, -6.669750
  0.436000, -6.537060
  0.438000, -6.400400
  0.440000, -6.265880
  0.442000, -6.129330
  0.444000, -5.999390
  0.446000, -5.869340
  0.448000, -5.754970
  0.450000, -5.642350
  0.452000, -5.527910
  0.454000, -5.419630
  0.456000, -5.323240
  0.458000, -5.231270
  0.460000, -5.143560
  0.462000, -5.059070
  0.464000, -4.971610
  0.466000, -4.892720
  0.468000, -4.812570
  0.470000, -4.729240
  0.472000, -4.649870
  0.474000, -4.576180
  0.476000, -4.499920
  0.478000, -4.420190
  0.480000, -4.339380
  0.482000, -4.243470
  0.484000, -4.148100
  0.486000, -4.039470
  0.488000, -3.921020
  0.490000, -3.804560
  0.492000, -3.677330
  0.494000, -3.555610
  0.496000, -3.456940
  0.498000, -3.380990
  0.500000, -3.326400
  0.502000, -3.289680
  0.504000, -3.275640
  0.506000, -3.271320
  0.508000, -3.265440
  0.510000, -3.226130
  0.512000, -3.151510
  0.514000, -3.026210
  0.516000, -2.858770
  0.518000, -2.657340
  0.520000, -2.439130
  0.522000, -2.227580
  0.524000, -2.029400
  0.526000, -1.858150
  0.528000, -1.716990
  0.530000, -1.620990
  0.532000, -1.554000
  0.534000, -1.496590
  0.536000, -1.462680
  0.538000, -1.419840
  0.540000, -1.361750
  0.542000, -1.268450
  0.544000, -1.144550
  0.546000, -0.984910
  0.548000, -0.793860
  0.550000, -0.578710
  0.552000, -0.357460
  0.554000, -0.133040
  0.556000,  0.082900
  0.558000,  0.275400
  0.560000,  0.444950
  0.562000,  0.579130
  0.564000,  0.682540
  0.566000,  0.754110
  0.568000,  0.813860
  0.570000,  0.858190
  0.572000,  0.896240
  0.574000,  0.930940
  0.576000,  0.970820
  0.578000,  1.025940
  0.580000,  1.087980
  0.582000,  1.159970
  0.584000,  1.241940
  0.586000,  1.329200
  0.588000,  1.413930
  0.590000,  1.494880
  0.592000,  1.561690
  0.594000,  1.609290
  0.596000,  1.630400
  0.598000,  1.632740
  0.600000,  1.615400
  0.602000,  1.578400
  0.604000,  1.530400
  0.606000,  1.476930
  0.608000,  1.414070
  0.610000,  1.347750
  0.612000,  1.281330
  0.614000,  1.223300
  0.616000,  1.162450
  0.618000,  1.109840
  0.620000,  1.063430
  0.622000,  1.020200
  0.624000,  0.975940
  0.626000,  0.931120
  0.628000,  0.880420
  0.630000,  0.834830
  0.632000,  0.776620
  0.634000,  0.708730
  0.636000,  0.639870
  0.638000,  0.566160
  0.640000,  0.483090
  0.642000,  0.398050
  0.644000,  0.312040
  0.646000,  0.233670
  0.648000,  0.158790
  0.650000,  0.089390
  0.652000,  0.029050
  0.654000, -0.028290
  0.656000, -0.069550
  0.658000, -0.109420
  0.660000, -0.136650
  0.662000, -0.163570
  0.664000, -0.189420
  0.666000, -0.201550
  0.668000, -0.211470
  0.670000, -0.215590
  0.672000, -0.215300
  0.674000, -0.213030
  0.676000, -0.208670
  0.678000, -0.202380
  0.680000, -0.202700
  0.682000, -0.206710
  0.684000, -0.228980
  0.686000, -0.256610
  0.688000, -0.297340
  0.690000, -0.358900
  0.692000, -0.423320
  0.694000, -0.493810
  0.696000, -0.566430
  0.698000, -0.627000
  0.700000, -0.673330
  0.702000, -0.704030
  0.704000, -0.705110
  0.706000, -0.681350
  0.708000, -0.635770
  0.710000, -0.575630
  0.712000, -0.499250
  0.714000, -0.439700
  0.716000, -0.388170
  0.718000, -0.348050
  0.720000, -0.329170
  0.722000, -0.332160
  0.724000, -0.346290
  0.726000, -0.367310
  0.728000, -0.391870
  0.730000, -0.410330
  0.732000, -0.424440
  0.734000, -0.429030
  0.736000, -0.421360
  0.738000, -0.395050
  0.740000, -0.355320
  0.742000, -0.319280
  0.744000, -0.280190
  0.746000, -0.238780
  0.748000, -0.201480
  0.750000, -0.171340
  0.752000, -0.147020
  0.754000, -0.133280
  0.756000, -0.125980
  0.758000, -0.129020
  0.760000, -0.136200
  0.762000, -0.148750
  0.764000, -0.165990
  0.766000, -0.180880
  0.768000, -0.200910
  0.770000, -0.209950
  0.772000, -0.223050
  0.774000, -0.229590
  0.776000, -0.231480
  0.778000, -0.229610
  0.780000, -0.222960
  0.782000, -0.210830
  0.784000, -0.191190
  0.786000, -0.161260
  0.788000, -0.140120
  0.790000, -0.110340
  0.792000, -0.085330
  0.794000, -0.053820
  0.796000, -0.032930
  0.798000, -0.017190
  0.800000,  0.003280
  0.802000,  0.011310
  0.804000,  0.018280
  0.806000,  0.015050
  0.808000,  0.014110
  0.810000,  0.005050
  0.812000, -0.001270
  0.814000, -0.010450
  0.816000, -0.015790
  0.818000, -0.026000
  0.820000, -0.038920
  0.822000, -0.047380
  0.824000, -0.052410
  0.826000, -0.048540
  0.828000, -0.043270
  0.830000, -0.032500
  0.832000, -0.016590
  0.834000,  0.000660
  0.836000,  0.029120
  0.838000,  0.053090
  0.840000,  0.078820
  0.842000,  0.101830
  0.844000,  0.120370
  0.846000,  0.136520
  0.848000,  0.147400
  0.850000,  0.158030
  0.852000,  0.162200
  0.854000,  0.164280
  0.856000,  0.162230
  0.858000,  0.161700
  0.860000,  0.161470
  0.862000,  0.161760
  0.864000,  0.162810
  0.866000,  0.160750
  0.868000,  0.157610
  0.870000,  0.153870
  0.872000,  0.156590
  0.874000,  0.157190
  0.876000,  0.160600
  0.878000,  0.158420
  0.880000,  0.162340
  0.882000,  0.170490
  0.884000,  0.181240
  0.886000,  0.197310
  0.888000,  0.208390
  0.890000,  0.219260
  0.892000,  0.228100
  0.894000,  0.243320
  0.896000,  0.253970
  0.898000,  0.256300
  0.900000,  0.250320
  0.902000,  0.236290
  0.904000,  0.222650
  0.906000,  0.199790
  0.908000,  0.179670
  0.910000,  0.162030
  0.912000,  0.141000
  0.914000,  0.129220
  0.916000,  0.113890
  0.918000,  0.105500
  0.920000,  0.104840
  0.922000,  0.108200
  0.924000,  0.112260
  0.926000,  0.117550
  0.928000,  0.128680
  0.930000,  0.126080
  0.932000,  0.128740
  0.934000,  0.121660
  0.936000,  0.111030
  0.938000,  0.094790
  0.940000,  0.076600
  0.942000,  0.056660
  0.944000,  0.030100
  0.946000,  0.008260
  0.948000, -0.011910
  0.950000, -0.029640
  0.952000, -0.041120
  0.954000, -0.053430
  0.956000, -0.061650
  0.958000, -0.060150
  0.960000, -0.056630
  0.962000, -0.056520
  0.964000, -0.053960
  0.966000, -0.054620
  0.968000, -0.060910
  0.970000, -0.064950
  0.972000, -0.082690
  0.974000, -0.096470
  0.976000, -0.109450
  0.978000, -0.125970
  0.980000, -0.139870
  0.982000, -0.148020
  0.984000, -0.153710
  0.986000, -0.154630
  0.988000, -0.156130
  0.990000, -0.157630
  0.992000, -0.164830
  0.994000, -0.168970
  0.996000, -0.176440
  0.998000, -0.184270
  1.000000, -0.190910
