# z (nm)   (kJ/mol)
  0.062000,271.046910
  0.064000,267.394700
  0.066000,264.835540
  0.068000,262.127840
  0.070000,259.423870
  0.072000,256.764400
  0.074000,254.158610
  0.076000,251.526260
  0.078000,248.825590
  0.080000,246.135180
  0.082000,243.398650
  0.084000,240.622040
  0.086000,237.766850
  0.088000,234.844160
  0.090000,231.838060
  0.092000,228.744820
  0.094000,225.547880
  0.096000,222.244280
  0.098000,218.832510
  0.100000,215.307930
  0.102000,211.671070
  0.104000,207.927990
  0.106000,204.081680
  0.108000,200.145930
  0.110000,196.122890
  0.112000,192.031290
  0.114000,187.882940
  0.116000,183.683610
  0.118000,179.455150
  0.120000,175.213480
  0.122000,170.971880
  0.124000,166.760240
  0.126000,162.598170
  0.128000,158.504310
  0.130000,154.497610
  0.132000,150.599360
  0.134000,146.812120
  0.136000,143.132900
  0.138000,139.544740
  0.140000,136.034710
  0.142000,132.576160
  0.144000,129.153910
  0.146000,125.764810
  0.148000,122.413180
  0.150000,119.118150
  0.152000,115.895300
  0.154000,112.756590
  0.156000,109.687890
  0.158000,106.683700
  0.160000,103.712900
  0.162000,100.754110
  0.164000, 97.801260
  0.166000, 94.858470
  0.168000, 91.941860
  0.170000, 89.052820
  0.172000, 86.196960
  0.174000, 83.366990
  0.176000, 80.558780
  0.178000, 77.774880
  0.180000, 75.012690
  0.182000, 72.284210
  0.184000, 69.595300
  0.186000, 66.957240
  0.188000, 64.365810
  0.190000, 61.835550
  0.192000, 59.370110
  0.194000, 56.971990
  0.196000, 54.626830
  0.198000, 52.331780
  0.200000, 50.074770
  0.202000, 47.849820
  0.204000, 45.663390
  0.206000, 43.506810
  0.208000, 41.387500
  0.210000, 39.305120
  0.212000, 37.271130
  0.214000, 35.278100
  0.216000, 33.319320
  0.218000, 31.395050
  0.220000, 29.491470
  0.222000, 27.618500
  0.224000, 25.765120
  0.226000, 23.962360
  0.228000, 22.212580
  0.230000, 20.534320
  0.232000, 18.931390
  0.234000, 17.396280
  0.236000, 15.922030
  0.238000, 14.490420
  0.240000, 13.098550
  0.242000, 11.727940
  0.244000, 10.373090
  0.246000,  9.040300
  0.248000,  7.731090
  0.250000,  6.447200
  0.252000,  5.196240
  0.254000,  3.985040
  0.256000,  2.809430
  0.258000,  1.694160
  0.260000,  0.634790
  0.262000, -0.375390
  0.264000, -1.337470
  0.266000, -2.250370
  0.268000, -3.127460
  0.270000, -3.984940
  0.272000, -4.818930
  0.274000, -5.630340
  0.276000, -6.413060
  0.278000, -7.159960
  0.280000, -7.880770
  0.282000, -8.561400
  0.284000, -9.194850
  0.286000, -9.785640
  0.288000,-10.336570
  0.290000,-10.863910
  0.292000,-11.362530
  0.294000,-11.829240
  0.296000,-12.272260
  0.298000,-12.682160
  0.300000,-13.052570
  0.302000,-13.391410
  0.304000,-13.699840
  0.306000,-13.984770
  0.308000,-14.253540
  0.310000,-14.502210
  0.312000,-14.730200
  0.314000,-14.939360
  0.316000,-15.112330
  0.318000,-15.250640
  0.320000,-15.349590
  0.322000,-15.415400
  0.324000,-15.461710
  0.326000,-15.484510
  0.328000,-15.520250
  0.330000,-15.562580
  0.332000,-15.609310
  0.334000,-15.641110
  0.336000,-15.663100
  0.338000,-15.640340
  0.340000,-15.575850
  0.342000,-15.468090
  0.344000,-15.307220
  0.346000,-15.115550
  0.348000,-14.909620
  0.350000,-14.700140
  0.352000,-14.500460
  0.354000,-14.317690
  0.356000,-14.148660
  0.358000,-13.987670
  0.360000,-13.831980
  0.362000,-13.656270
  0.364000,-13.475290
  0.366000,-13.273830
  0.368000,-13.064380
  0.370000,-12.849870
  0.372000,-12.620790
  0.374000,-12.396730
  0.376000,-12.164870
  0.378000,-11.921440
  0.380000,-11.679400
  0.382000,-11.436170
  0.384000,-11.196570
  0.386000,-10.964050
  0.388000,-10.740990
  0.390000,-10.528380
  0.392000,-10.320380
  0.394000,-10.118430
  0.396000, -9.928790
  0.398000, -9.747980
  0.400000, -9.572470
  0.402000, -9.398790
  0.404000, -9.220440
  0.406000, -9.036190
  0.408000, -8.859520
  0.410000, -8.685090
  0.412000, -8.513090
  0.414000, -8.352300
  0.416000, -8.199550
  0.418000, -8.066620
  0.420000, -7.949410
  0.422000, -7.843090
  0.424000, -7.747280
  0.426000, -7.661750
  0.428000, -7.584830
  0.430000, -7.506700
  0.432000, -7.432130
  0.434000, -7.354980
  0.436000, -7.277630
  0.438000, -7.193800
  0.440000, -7.109260
  0.442000, -7.021820
  0.444000, -6.933900
  0.446000, -6.845060
  0.448000, -6.763880
  0.450000, -6.683710
  0.452000, -6.610320
  0.454000, -6.538410
  0.456000, -6.466370
  0.458000, -6.402960
  0.460000, -6.330280
  0.462000, -6.258540
  0.464000, -6.182960
  0.466000, -6.095120
  0.468000, -6.006220
  0.470000, -5.920600
  0.472000, -5.840480
  0.474000, -5.760540
  0.476000, -5.689090
  0.478000, -5.627200
  0.480000, -5.576520
  0.482000, -5.529310
  0.484000, -5.487060
  0.486000, -5.446110
  0.488000, -5.400760
  0.490000, -5.357030
  0.492000, -5.300350
  0.494000, -5.235460
  0.496000, -5.176500
  0.498000, -5.116310
  0.500000, -5.067450
  0.502000, -5.021840
  0.504000, -4.987620
  0.506000, -4.956160
  0.508000, -4.924480
  0.510000, -4.894420
  0.512000, -4.854800
  0.514000, -4.813540
  0.516000, -4.763200
  0.518000, -4.709900
  0.520000, -4.651750
  0.522000, -4.588210
  0.524000, -4.518300
  0.526000, -4.449370
  0.528000, -4.383370
  0.530000, -4.311020
  0.532000, -4.235020
  0.534000, -4.151260
  0.536000, -4.067370
  0.538000, -3.971170
  0.540000, -3.870150
  0.542000, -3.755550
  0.544000, -3.626820
  0.546000, -3.485250
  0.548000, -3.329630
  0.550000, -3.165420
  0.552000, -2.996220
  0.554000, -2.822670
  0.556000, -2.654320
  0.558000, -2.499620
  0.560000, -2.353940
  0.562000, -2.228070
  0.564000, -2.103940
  0.566000, -1.999400
  0.568000, -1.882440
  0.570000, -1.762630
  0.572000, -1.624660
  0.574000, -1.472570
  0.576000, -1.308130
  0.578000, -1.122320
  0.580000, -0.932280
  0.582000, -0.740680
  0.584000, -0.553480
  0.586000, -0.388720
  0.588000, -0.245730
  0.590000, -0.128190
  0.592000, -0.031810
  0.594000,  0.043580
  0.596000,  0.104100
  0.598000,  0.162040
  0.600000,  0.219030
  0.602000,  0.277970
  0.604000,  0.336030
  0.606000,  0.396360
  0.608000,  0.449930
  0.610000,  0.497970
  0.612000,  0.531370
  0.614000,  0.549600
  0.616000,  0.550700
  0.618000,  0.531660
  0.620000,  0.509140
  0.622000,  0.470400
  0.624000,  0.429730
  0.626000,  0.387240
  0.628000,  0.344680
  0.630000,  0.302200
  0.632000,  0.261930
  0.634000,  0.220590
  0.636000,  0.179930
  0.638000,  0.145410
  0.640000,  0.108340
  0.642000,  0.065590
  0.644000,  0.024420
  0.646000, -0.009130
  0.648000, -0.042080
  0.650000, -0.072530
  0.652000, -0.096270
  0.654000, -0.110720
  0.656000, -0.121590
  0.658000, -0.132600
  0.660000, -0.148440
  0.662000, -0.170260
  0.664000, -0.208390
  0.666000, -0.241700
  0.668000, -0.272450
  0.670000, -0.307490
  0.672000, -0.340610
  0.674000, -0.365880
  0.676000, -0.383580
  0.678000, -0.401380
  0.680000, -0.412360
  0.682000, -0.418220
  0.684000, -0.423210
  0.686000, -0.429110
  0.688000, -0.434700
  0.690000, -0.441300
  0.692000, -0.450810
  0.694000, -0.460420
  0.696000, -0.468020
  0.698000, -0.478720
  0.700000, -0.500580
  0.702000, -0.511790
  0.704000, -0.518390
  0.706000, -0.528660
  0.708000, -0.532150
  0.710000, -0.541650
  0.712000, -0.555140
  0.714000, -0.564540
  0.716000, -0.573790
  0.718000, -0.583690
  0.720000, -0.595040
  0.722000, -0.599040
  0.724000, -0.601830
  0.726000, -0.599330
  0.728000, -0.591280
  0.730000, -0.581340
  0.732000, -0.570220
  0.734000, -0.571110
  0.736000, -0.568790
  0.738000, -0.565010
  0.740000, -0.565350
  0.742000, -0.573550
  0.744000, -0.576020
  0.746000, -0.575280
  0.748000, -0.571200
  0.750000, -0.561300
  0.752000, -0.546420
  0.754000, -0.531670
  0.756000, -0.526490
  0.758000, -0.522730
  0.760000, -0.523610
  0.762000, -0.529310
  0.764000, -0.535960
  0.766000, -0.555680
  0.768000, -0.573330
  0.770000, -0.592790
  0.772000, -0.605350
  0.774000, -0.616820
  0.776000, -0.615560
  0.778000, -0.610290
  0.780000, -0.605090
  0.782000, -0.589260
  0.784000, -0.572340
  0.786000, -0.548560
  0.788000, -0.525400
  0.790000, -0.498660
  0.792000, -0.474320
  0.794000, -0.448780
  0.796000, -0.421750
  0.798000, -0.396900
  0.800000, -0.366020
  0.802000, -0.333400
  0.804000, -0.298630
  0.806000, -0.265260
  0.808000, -0.240600
  0.810000, -0.217940
  0.812000, -0.202770
  0.814000, -0.193890
  0.816000, -0.190780
  0.818000, -0.189220
  0.820000, -0.193460
  0.822000, -0.199730
  0.824000, -0.205830
  0.826000, -0.208550
  0.828000, -0.210910
  0.830000, -0.208400
  0.832000, -0.193910
  0.834000, -0.171550
  0.836000, -0.143890
  0.838000, -0.106340
  0.840000, -0.073740
  0.842000, -0.039140
  0.844000, -0.007060
  0.846000,  0.018180
  0.848000,  0.033380
  0.850000,  0.042890
  0.852000,  0.041520
  0.854000,  0.031360
  0.856000,  0.022110
  0.858000,  0.003850
  0.860000, -0.001360
  0.862000, -0.011550
  0.864000, -0.018460
  0.866000, -0.015990
  0.868000, -0.002550
  0.870000,  0.013280
  0.872000,  0.032170
  0.874000,  0.057650
  0.876000,  0.083670
  0.878000,  0.106720
  0.880000,  0.125380
  0.882000,  0.142560
  0.884000,  0.156810
  0.886000,  0.168720
  0.888000,  0.181260
  0.890000,  0.187280
  0.892000,  0.197070
  0.894000,  0.211050
  0.896000,  0.222430
  0.898000,  0.235570
  0.900000,  0.246370
  0.902000,  0.257280
  0.904000,  0.263660
  0.906000,  0.269450
  0.908000,  0.272250
  0.910000,  0.263680
  0.912000,  0.250390
  0.914000,  0.231330
  0.916000,  0.207570
  0.918000,  0.182960
  0.920000,  0.157190
  0.922000,  0.129930
  0.924000,  0.103240
  0.926000,  0.089170
  0.928000,  0.076870
  0.930000,  0.076410
  0.932000,  0.084280
  0.934000,  0.093000
  0.936000,  0.107890
  0.938000,  0.113280
  0.940000,  0.116060
  0.942000,  0.109230
  0.944000,  0.095190
  0.946000,  0.074880
  0.948000,  0.043630
  0.950000,  0.013170
  0.952000, -0.018230
  0.954000, -0.048010
  0.956000, -0.070540
  0.958000, -0.092190
  0.960000, -0.097690
  0.962000, -0.099680
  0.964000, -0.104180
  0.966000, -0.099920
  0.968000, -0.093920
  0.970000, -0.094290
  0.972000, -0.091950
  0.974000, -0.100510
  0.976000, -0.112920
  0.978000, -0.129180
  0.980000, -0.143090
  0.982000, -0.164030
  0.984000, -0.186930
  0.986000, -0.208200
  0.988000, -0.225490
  0.990000, -0.241180
  0.992000, -0.248000
  0.994000, -0.250530
  0.996000, -0.251930
  0.998000, -0.253640
  1.000000, -0.255750
