# z (nm)   (kJ/mol)
  0.090000,265.079860
  0.092000,261.406790
  0.094000,258.232610
  0.096000,255.473840
  0.098000,252.707820
  0.100000,249.864380
  0.102000,247.077700
  0.104000,244.216190
  0.106000,241.322050
  0.108000,238.357950
  0.110000,235.319080
  0.112000,232.185090
  0.114000,228.950750
  0.116000,225.603190
  0.118000,222.140170
  0.120000,218.547430
  0.122000,214.828340
  0.124000,210.978410
  0.126000,206.995620
  0.128000,202.890640
  0.130000,198.674440
  0.132000,194.380910
  0.134000,190.050510
  0.136000,185.725450
  0.138000,181.444390
  0.140000,177.239460
  0.142000,173.120170
  0.144000,169.091040
  0.146000,165.139450
  0.148000,161.251280
  0.150000,157.407680
  0.152000,153.589020
  0.154000,149.789130
  0.156000,146.017970
  0.158000,142.297990
  0.160000,138.655720
  0.162000,135.115720
  0.164000,131.689490
  0.166000,128.372950
  0.168000,125.149500
  0.170000,121.990630
  0.172000,118.870070
  0.174000,115.764500
  0.176000,112.665340
  0.178000,109.571800
  0.180000,106.495090
  0.182000,103.439210
  0.184000,100.420030
  0.186000, 97.415960
  0.188000, 94.422080
  0.190000, 91.425890
  0.192000, 88.436080
  0.194000, 85.476670
  0.196000, 82.573860
  0.198000, 79.753940
  0.200000, 77.040760
  0.202000, 74.426180
  0.204000, 71.900450
  0.206000, 69.435250
  0.208000, 67.002530
  0.210000, 64.584940
  0.212000, 62.160200
  0.214000, 59.739970
  0.216000, 57.331990
  0.218000, 54.955160
  0.220000, 52.623260
  0.222000, 50.351190
  0.224000, 48.147510
  0.226000, 46.001840
  0.228000, 43.907070
  0.230000, 41.865990
  0.232000, 39.863970
  0.234000, 37.885490
  0.236000, 35.919140
  0.238000, 33.965930
  0.240000, 32.025550
  0.242000, 30.095010
  0.244000, 28.181640
  0.246000, 26.300090
  0.248000, 24.467030
  0.250000, 22.688930
  0.252000, 20.969910
  0.254000, 19.320430
  0.256000, 17.743760
  0.258000, 16.224040
  0.260000, 14.766450
  0.262000, 13.356070
  0.264000, 11.983760
  0.266000, 10.642280
  0.268000,  9.332200
  0.270000,  8.040040
  0.272000,  6.792420
  0.274000,  5.592130
  0.276000,  4.435820
  0.278000,  3.327890
  0.280000,  2.263650
  0.282000,  1.246970
  0.284000,  0.267050
  0.286000, -0.681340
  0.288000, -1.594030
  0.290000, -2.462480
  0.292000, -3.275570
  0.294000, -4.033880
  0.296000, -4.737240
  0.298000, -5.402680
  0.300000, -6.032460
  0.302000, -6.643520
  0.304000, -7.235710
  0.306000, -7.810670
  0.308000, -8.354580
  0.310000, -8.876050
  0.312000, -9.365930
  0.314000, -9.826640
  0.316000,-10.265580
  0.318000,-10.678560
  0.320000,-11.065720
  0.322000,-11.434270
  0.324000,-11.770410
  0.326000,-12.087640
  0.328000,-12.371890
  0.330000,-12.648260
  0.332000,-12.906390
  0.334000,-13.150310
  0.336000,-13.379400
  0.338000,-13.592040
  0.340000,-13.781880
  0.342000,-13.946910
  0.344000,-14.082760
  0.346000,-14.192270
  0.348000,-14.288750
  0.350000,-14.375180
  0.352000,-14.444860
  0.354000,-14.511040
  0.356000,-14.570790
  0.358000,-14.630390
  0.360000,-14.675410
  0.362000,-14.710380
  0.364000,-14.720070
  0.366000,-14.712150
  0.368000,-14.691450
  0.370000,-14.669050
  0.372000,-14.650990
  0.374000,-14.629860
  0.376000,-14.610300
  0.378000,-14.590500
  0.380000,-14.560030
  0.382000,-14.514480
  0.384000,-14.455740
  0.386000,-14.375950
  0.388000,-14.287610
  0.390000,-14.193230
  0.392000,-14.101130
  0.394000,-14.020390
  0.396000,-13.947370
  0.398000,-13.886820
  0.400000,-13.831310
  0.402000,-13.783370
  0.404000,-13.732560
  0.406000,-13.669340
  0.408000,-13.584790
  0.410000,-13.477900
  0.412000,-13.347980
  0.414000,-13.208760
  0.416000,-13.060550
  0.418000,-12.908230
  0.420000,-12.760030
  0.422000,-12.626310
  0.424000,-12.505230
  0.426000,-12.392210
  0.428000,-12.278400
  0.430000,-12.172960
  0.432000,-12.051560
  0.434000,-11.915450
  0.436000,-11.763190
  0.438000,-11.603390
  0.440000,-11.430670
  0.442000,-11.259780
  0.444000,-11.079990
  0.446000,-10.909210
  0.448000,-10.743180
  0.450000,-10.581470
  0.452000,-10.412580
  0.454000,-10.248690
  0.456000,-10.090640
  0.458000, -9.933110
  0.460000, -9.776420
  0.462000, -9.622110
  0.464000, -9.470290
  0.466000, -9.326170
  0.468000, -9.178390
  0.470000, -9.038510
  0.472000, -8.908350
  0.474000, -8.790040
  0.476000, -8.684930
  0.478000, -8.602270
  0.480000, -8.524740
  0.482000, -8.458180
  0.484000, -8.372470
  0.486000, -8.294660
  0.488000, -8.199690
  0.490000, -8.094180
  0.492000, -7.972120
  0.494000, -7.845420
  0.496000, -7.715240
  0.498000, -7.586900
  0.500000, -7.458340
  0.502000, -7.332910
  0.504000, -7.227720
  0.506000, -7.137880
  0.508000, -7.063010
  0.510000, -7.007450
  0.512000, -6.964120
  0.514000, -6.933820
  0.516000, -6.909940
  0.518000, -6.893500
  0.520000, -6.865900
  0.522000, -6.820800
  0.524000, -6.760250
  0.526000, -6.673870
  0.528000, -6.571970
  0.530000, -6.466010
  0.532000, -6.355370
  0.534000, -6.253790
  0.536000, -6.163390
  0.538000, -6.085180
  0.540000, -6.018720
  0.542000, -5.956840
  0.544000, -5.896560
  0.546000, -5.829370
  0.548000, -5.745520
  0.550000, -5.642800
  0.552000, -5.516420
  0.554000, -5.385390
  0.556000, -5.225810
  0.558000, -5.062660
  0.560000, -4.894620
  0.562000, -4.728180
  0.564000, -4.554850
  0.566000, -4.386020
  0.568000, -4.217440
  0.570000, -4.047190
  0.572000, -3.880100
  0.574000, -3.715020
  0.576000, -3.548030
  0.578000, -3.378390
  0.580000, -3.210970
  0.582000, -3.045460
  0.584000, -2.881410
  0.586000, -2.711570
  0.588000, -2.541430
  0.590000, -2.369460
  0.592000, -2.192560
  0.594000, -2.006360
  0.596000, -1.813940
  0.598000, -1.624460
  0.600000, -1.434490
  0.602000, -1.251370
  0.604000, -1.076040
  0.606000, -0.916600
  0.608000, -0.781560
  0.610000, -0.669550
  0.612000, -0.576710
  0.614000, -0.494590
  0.616000, -0.420080
  0.618000, -0.341430
  0.620000, -0.261370
  0.622000, -0.179580
  0.624000, -0.098600
  0.626000, -0.032330
  0.628000,  0.024470
  0.630000,  0.066120
  0.632000,  0.090510
  0.634000,  0.102700
  0.636000,  0.107060
  0.638000,  0.102970
  0.640000,  0.089010
  0.642000,  0.075630
  0.644000,  0.057430
  0.646000,  0.045660
  0.648000,  0.041200
  0.650000,  0.046210
  0.652000,  0.046560
  0.654000,  0.049600
  0.656000,  0.045420
  0.658000,  0.026460
  0.660000, -0.008690
  0.662000, -0.059810
  0.664000, -0.125460
  0.666000, -0.200330
  0.668000, -0.280900
  0.670000, -0.366030
  0.672000, -0.443550
  0.674000, -0.523570
  0.676000, -0.586660
  0.678000, -0.637110
  0.680000, -0.676530
  0.682000, -0.712510
  0.684000, -0.743130
  0.686000, -0.782980
  0.688000, -0.821580
  0.690000, -0.868530
  0.692000, -0.916230
  0.694000, -0.971430
  0.696000, -1.024940
  0.698000, -1.077110
  0.700000, -1.122360
  0.702000, -1.160430
  0.704000, -1.187510
  0.706000, -1.201090
  0.708000, -1.205040
  0.710000, -1.198830
  0.712000, -1.188970
  0.714000, -1.180490
  0.716000, -1.178530
  0.718000, -1.188500
  0.720000, -1.207560
  0.722000, -1.234730
  0.724000, -1.268980
  0.726000, -1.309910
  0.728000, -1.348320
  0.730000, -1.384850
  0.732000, -1.408080
  0.734000, -1.411860
  0.736000, -1.409540
  0.738000, -1.387700
  0.740000, -1.364530
  0.742000, -1.341150
  0.744000, -1.313960
  0.746000, -1.294460
  0.748000, -1.281440
  0.750000, -1.281180
  0.752000, -1.286540
  0.754000, -1.305800
  0.756000, -1.330610
  0.758000, -1.357890
  0.760000, -1.390590
  0.762000, -1.429010
  0.764000, -1.448390
  0.766000, -1.457580
  0.768000, -1.444060
  0.770000, -1.420010
  0.772000, -1.385310
  0.774000, -1.338580
  0.776000, -1.286880
  0.778000, -1.230700
  0.780000, -1.185260
  0.782000, -1.148930
  0.784000, -1.120900
  0.786000, -1.114460
  0.788000, -1.116280
  0.790000, -1.133780
  0.792000, -1.158920
  0.794000, -1.181330
  0.796000, -1.195660
  0.798000, -1.197060
  0.800000, -1.177340
  0.802000, -1.136390
  0.804000, -1.074550
  0.806000, -1.010000
  0.808000, -0.948440
  0.810000, -0.886290
  0.812000, -0.833120
  0.814000, -0.792390
  0.816000, -0.764560
  0.818000, -0.747300
  0.820000, -0.724200
  0.822000, -0.715300
  0.824000, -0.710180
  0.826000, -0.707560
  0.828000, -0.708480
  0.830000, -0.712460
  0.832000, -0.728320
  0.834000, -0.743020
  0.836000, -0.760770
  0.838000, -0.775500
  0.840000, -0.779660
  0.842000, -0.767940
  0.844000, -0.737280
  0.846000, -0.687180
  0.848000, -0.623530
  0.850000, -0.551180
  0.852000, -0.475500
  0.854000, -0.408960
  0.856000, -0.352870
  0.858000, -0.315980
  0.860000, -0.297710
  0.862000, -0.294060
  0.864000, -0.294990
  0.866000, -0.294850
  0.868000, -0.281150
  0.870000, -0.257230
  0.872000, -0.229770
  0.874000, -0.188550
  0.876000, -0.146590
  0.878000, -0.106830
  0.880000, -0.070760
  0.882000, -0.041060
  0.884000, -0.006390
  0.886000,  0.016230
  0.888000,  0.031820
  0.890000,  0.041700
  0.892000,  0.057260
  0.894000,  0.064420
  0.896000,  0.079410
  0.898000,  0.102540
  0.900000,  0.137620
  0.902000,  0.169030
  0.904000,  0.201160
  0.906000,  0.236710
  0.908000,  0.267270
  0.910000,  0.289390
  0.912000,  0.297430
  0.914000,  0.298660
  0.916000,  0.284640
  0.918000,  0.264240
  0.920000,  0.244820
  0.922000,  0.219310
  0.924000,  0.191620
  0.926000,  0.161700
  0.928000,  0.140960
  0.930000,  0.130610
  0.932000,  0.123710
  0.934000,  0.126420
  0.936000,  0.134490
  0.938000,  0.146450
  0.940000,  0.162000
  0.942000,  0.176370
  0.944000,  0.186660
  0.946000,  0.193980
  0.948000,  0.190980
  0.950000,  0.178750
  0.952000,  0.163330
  0.954000,  0.127740
  0.956000,  0.085260
  0.958000,  0.033700
  0.960000, -0.023390
  0.962000, -0.081030
  0.964000, -0.137870
  0.966000, -0.194780
  0.968000, -0.234170
  0.970000, -0.267080
  0.972000, -0.283370
  0.974000, -0.278880
  0.976000, -0.259330
  0.978000, -0.230410
  0.980000, -0.190870
  0.982000, -0.157210
  0.984000, -0.135010
  0.986000, -0.133590
  0.988000, -0.165280
  0.990000, -0.229080
  0.992000, -0.317180
  0.994000, -0.419240
  0.996000, -0.509620
  0.998000, -0.573250
  1.000000, -0.606780
