# z (nm)   (kJ/mol)
  0.038000,285.397160
  0.040000,283.030190
  0.042000,280.708400
  0.044000,278.417630
  0.046000,276.161430
  0.048000,277.605850
  0.050000,274.256580
  0.052000,271.555350
  0.054000,269.048650
  0.056000,266.477290
  0.058000,263.820050
  0.060000,261.121560
  0.062000,258.386410
  0.064000,255.587110
  0.066000,252.690600
  0.068000,249.699470
  0.070000,246.600050
  0.072000,243.366460
  0.074000,239.992980
  0.076000,236.475880
  0.078000,232.813260
  0.080000,229.010340
  0.082000,225.079390
  0.084000,221.033910
  0.086000,216.889680
  0.088000,212.678850
  0.090000,208.424730
  0.092000,204.155190
  0.094000,199.900680
  0.096000,195.689390
  0.098000,191.556440
  0.100000,187.519060
  0.102000,183.594580
  0.104000,179.782850
  0.106000,176.070920
  0.108000,172.457170
  0.110000,168.912740
  0.112000,165.423070
  0.114000,161.969680
  0.116000,158.540300
  0.118000,155.138450
  0.120000,151.756180
  0.122000,148.397320
  0.124000,145.065770
  0.126000,141.769290
  0.128000,138.518410
  0.130000,135.314070
  0.132000,132.170780
  0.134000,129.083770
  0.136000,126.053620
  0.138000,123.075590
  0.140000,120.140980
  0.142000,117.243140
  0.144000,114.375480
  0.146000,111.536880
  0.148000,108.721160
  0.150000,105.933560
  0.152000,103.174410
  0.154000,100.441400
  0.156000, 97.732430
  0.158000, 95.050780
  0.160000, 92.400960
  0.162000, 89.772690
  0.164000, 87.177690
  0.166000, 84.606040
  0.168000, 82.063180
  0.170000, 79.553620
  0.172000, 77.078080
  0.174000, 74.644830
  0.176000, 72.257800
  0.178000, 69.923210
  0.180000, 67.648020
  0.182000, 65.417690
  0.184000, 63.248380
  0.186000, 61.124130
  0.188000, 59.036960
  0.190000, 56.976160
  0.192000, 54.946210
  0.194000, 52.930540
  0.196000, 50.931620
  0.198000, 48.965490
  0.200000, 47.029790
  0.202000, 45.137640
  0.204000, 43.285400
  0.206000, 41.494270
  0.208000, 39.745740
  0.210000, 38.059620
  0.212000, 36.433600
  0.214000, 34.867060
  0.216000, 33.336070
  0.218000, 31.848620
  0.220000, 30.396480
  0.222000, 28.967060
  0.224000, 27.558600
  0.226000, 26.165350
  0.228000, 24.795620
  0.230000, 23.444820
  0.232000, 22.114400
  0.234000, 20.827890
  0.236000, 19.596170
  0.238000, 18.405980
  0.240000, 17.269060
  0.242000, 16.178100
  0.244000, 15.123620
  0.246000, 14.099990
  0.248000, 13.106000
  0.250000, 12.131480
  0.252000, 11.185050
  0.254000, 10.257880
  0.256000,  9.360340
  0.258000,  8.499130
  0.260000,  7.669930
  0.262000,  6.873650
  0.264000,  6.107990
  0.266000,  5.377020
  0.268000,  4.676790
  0.270000,  4.002810
  0.272000,  3.356330
  0.274000,  2.737320
  0.276000,  2.147870
  0.278000,  1.585590
  0.280000,  1.053830
  0.282000,  0.546590
  0.284000,  0.069320
  0.286000, -0.379900
  0.288000, -0.807480
  0.290000, -1.201090
  0.292000, -1.572550
  0.294000, -1.919730
  0.296000, -2.242020
  0.298000, -2.551710
  0.300000, -2.841010
  0.302000, -3.113940
  0.304000, -3.370230
  0.306000, -3.604830
  0.308000, -3.816930
  0.310000, -4.023810
  0.312000, -4.202630
  0.314000, -4.360980
  0.316000, -4.503890
  0.318000, -4.624420
  0.320000, -4.725560
  0.322000, -4.805870
  0.324000, -4.866010
  0.326000, -4.917240
  0.328000, -4.969130
  0.330000, -4.997080
  0.332000, -5.035520
  0.334000, -5.074830
  0.336000, -5.107610
  0.338000, -5.136160
  0.340000, -5.159540
  0.342000, -5.176620
  0.344000, -5.190700
  0.346000, -5.189470
  0.348000, -5.180140
  0.350000, -5.151460
  0.352000, -5.118100
  0.354000, -5.074360
  0.356000, -5.030750
  0.358000, -4.978040
  0.360000, -4.922790
  0.362000, -4.879610
  0.364000, -4.831080
  0.366000, -4.789900
  0.368000, -4.752610
  0.370000, -4.718410
  0.372000, -4.698930
  0.374000, -4.681690
  0.376000, -4.665300
  0.378000, -4.651220
  0.380000, -4.636120
  0.382000, -4.616180
  0.384000, -4.589600
  0.386000, -4.551940
  0.388000, -4.509410
  0.390000, -4.453170
  0.392000, -4.384770
  0.394000, -4.296840
  0.396000, -4.202860
  0.398000, -4.104990
  0.400000, -3.994020
  0.402000, -3.874580
  0.404000, -3.745420
  0.406000, -3.606510
  0.408000, -3.464360
  0.410000, -3.326770
  0.412000, -3.187670
  0.414000, -3.043860
  0.416000, -2.896390
  0.418000, -2.753050
  0.420000, -2.609550
  0.422000, -2.465380
  0.424000, -2.317790
  0.426000, -2.173200
  0.428000, -2.028490
  0.430000, -1.887230
  0.432000, -1.740320
  0.434000, -1.600000
  0.436000, -1.457730
  0.438000, -1.319930
  0.440000, -1.178750
  0.442000, -1.039510
  0.444000, -0.901200
  0.446000, -0.764710
  0.448000, -0.620680
  0.450000, -0.479310
  0.452000, -0.332020
  0.454000, -0.190630
  0.456000, -0.046860
  0.458000,  0.095750
  0.460000,  0.235380
  0.462000,  0.369160
  0.464000,  0.504330
  0.466000,  0.632260
  0.468000,  0.756860
  0.470000,  0.870520
  0.472000,  0.977330
  0.474000,  1.084390
  0.476000,  1.183520
  0.478000,  1.272220
  0.480000,  1.358770
  0.482000,  1.448690
  0.484000,  1.535060
  0.486000,  1.616620
  0.488000,  1.698320
  0.490000,  1.780180
  0.492000,  1.868000
  0.494000,  1.948830
  0.496000,  2.026650
  0.498000,  2.101590
  0.500000,  2.170720
  0.502000,  2.233790
  0.504000,  2.294430
  0.506000,  2.348710
  0.508000,  2.396870
  0.510000,  2.432110
  0.512000,  2.463080
  0.514000,  2.487370
  0.516000,  2.507720
  0.518000,  2.527350
  0.520000,  2.543680
  0.522000,  2.559820
  0.524000,  2.569230
  0.526000,  2.574350
  0.528000,  2.582550
  0.530000,  2.587230
  0.532000,  2.583260
  0.534000,  2.578340
  0.536000,  2.570350
  0.538000,  2.559660
  0.540000,  2.539260
  0.542000,  2.522740
  0.544000,  2.497730
  0.546000,  2.459240
  0.548000,  2.414690
  0.550000,  2.357410
  0.552000,  2.292030
  0.554000,  2.221520
  0.556000,  2.141440
  0.558000,  2.055070
  0.560000,  1.963770
  0.562000,  1.869460
  0.564000,  1.770230
  0.566000,  1.675170
  0.568000,  1.578780
  0.570000,  1.486750
  0.572000,  1.396370
  0.574000,  1.313970
  0.576000,  1.233940
  0.578000,  1.152950
  0.580000,  1.087710
  0.582000,  1.014160
  0.584000,  0.948040
  0.586000,  0.888370
  0.588000,  0.831880
  0.590000,  0.778760
  0.592000,  0.728080
  0.594000,  0.682280
  0.596000,  0.639280
  0.598000,  0.595810
  0.600000,  0.551240
  0.602000,  0.512350
  0.604000,  0.469620
  0.606000,  0.425340
  0.608000,  0.388780
  0.610000,  0.350160
  0.612000,  0.311400
  0.614000,  0.274630
  0.616000,  0.234090
  0.618000,  0.192660
  0.620000,  0.149880
  0.622000,  0.110890
  0.624000,  0.069090
  0.626000,  0.025920
  0.628000, -0.014550
  0.630000, -0.055510
  0.632000, -0.094200
  0.634000, -0.128870
  0.636000, -0.156570
  0.638000, -0.188370
  0.640000, -0.209000
  0.642000, -0.227430
  0.644000, -0.246080
  0.646000, -0.254410
  0.648000, -0.259160
  0.650000, -0.260190
  0.652000, -0.262410
  0.654000, -0.252890
  0.656000, -0.238870
  0.658000, -0.231800
  0.660000, -0.219280
  0.662000, -0.222710
  0.664000, -0.221610
  0.666000, -0.221600
  0.668000, -0.224620
  0.670000, -0.232550
  0.672000, -0.248220
  0.674000, -0.260580
  0.676000, -0.272860
  0.678000, -0.295240
  0.680000, -0.320580
  0.682000, -0.339520
  0.684000, -0.358070
  0.686000, -0.374360
  0.688000, -0.386600
  0.690000, -0.392300
  0.692000, -0.395320
  0.694000, -0.396100
  0.696000, -0.394080
  0.698000, -0.389160
  0.700000, -0.380160
  0.702000, -0.369160
  0.704000, -0.355960
  0.706000, -0.341880
  0.708000, -0.325560
  0.710000, -0.306820
  0.712000, -0.292690
  0.714000, -0.274890
  0.716000, -0.261340
  0.718000, -0.243200
  0.720000, -0.225510
  0.722000, -0.211690
  0.724000, -0.193320
  0.726000, -0.173230
  0.728000, -0.157770
  0.730000, -0.140550
  0.732000, -0.116730
  0.734000, -0.087350
  0.736000, -0.055040
  0.738000, -0.025150
  0.740000,  0.006500
  0.742000,  0.039740
  0.744000,  0.073110
  0.746000,  0.110390
  0.748000,  0.146580
  0.750000,  0.187480
  0.752000,  0.227790
  0.754000,  0.264710
  0.756000,  0.299370
  0.758000,  0.336930
  0.760000,  0.371840
  0.762000,  0.396660
  0.764000,  0.418620
  0.766000,  0.436100
  0.768000,  0.453090
  0.770000,  0.462930
  0.772000,  0.467610
  0.774000,  0.470710
  0.776000,  0.470660
  0.778000,  0.470260
  0.780000,  0.472910
  0.782000,  0.475700
  0.784000,  0.480310
  0.786000,  0.489240
  0.788000,  0.500280
  0.790000,  0.514680
  0.792000,  0.528280
  0.794000,  0.545060
  0.796000,  0.558810
  0.798000,  0.580700
  0.800000,  0.603880
  0.802000,  0.618070
  0.804000,  0.636900
  0.806000,  0.656700
  0.808000,  0.674990
  0.810000,  0.687820
  0.812000,  0.699640
  0.814000,  0.706420
  0.816000,  0.717020
  0.818000,  0.721890
  0.820000,  0.719170
  0.822000,  0.718490
  0.824000,  0.710990
  0.826000,  0.700060
  0.828000,  0.690990
  0.830000,  0.678880
  0.832000,  0.669150
  0.834000,  0.651740
  0.836000,  0.638100
  0.838000,  0.626720
  0.840000,  0.613030
  0.842000,  0.604410
  0.844000,  0.594650
  0.846000,  0.581660
  0.848000,  0.573880
  0.850000,  0.567530
  0.852000,  0.558470
  0.854000,  0.547970
  0.856000,  0.546720
  0.858000,  0.536210
  0.860000,  0.527840
  0.862000,  0.523010
  0.864000,  0.508730
  0.866000,  0.495750
  0.868000,  0.484400
  0.870000,  0.466530
  0.872000,  0.449360
  0.874000,  0.432380
  0.876000,  0.411060
  0.878000,  0.394370
  0.880000,  0.371260
  0.882000,  0.353430
  0.884000,  0.334920
  0.886000,  0.318900
  0.888000,  0.298750
  0.890000,  0.284850
  0.892000,  0.270810
  0.894000,  0.261390
  0.896000,  0.253120
  0.898000,  0.248900
  0.900000,  0.243110
  0.902000,  0.244640
  0.904000,  0.248490
  0.906000,  0.252900
  0.908000,  0.250130
  0.910000,  0.245490
  0.912000,  0.239410
  0.914000,  0.231530
  0.916000,  0.218130
  0.918000,  0.203180
  0.920000,  0.187740
  0.922000,  0.172040
  0.924000,  0.150110
  0.926000,  0.127900
  0.928000,  0.102590
  0.930000,  0.078310
  0.932000,  0.056270
  0.934000,  0.035580
  0.936000,  0.008650
  0.938000, -0.015850
  0.940000, -0.042060
  0.942000, -0.064020
  0.944000, -0.083380
  0.946000, -0.094470
  0.948000, -0.108730
  0.950000, -0.121890
  0.952000, -0.128680
  0.954000, -0.136200
  0.956000, -0.136430
  0.958000, -0.135640
  0.960000, -0.129610
  0.962000, -0.129150
  0.964000, -0.129470
  0.966000, -0.123050
  0.968000, -0.116030
  0.970000, -0.109490
  0.972000, -0.101930
  0.974000, -0.095330
  0.976000, -0.090720
  0.978000, -0.085250
  0.980000, -0.074310
  0.982000, -0.071820
  0.984000, -0.068070
  0.986000, -0.060190
  0.988000, -0.064850
  0.990000, -0.068620
  0.992000, -0.075120
  0.994000, -0.083200
  0.996000, -0.092720
  0.998000, -0.101080
  1.000000, -0.115740
