# z (nm)   (kJ/mol)
  0.076000,261.535010
  0.078000,255.991600
  0.080000,253.152010
  0.082000,250.100270
  0.084000,247.202930
  0.086000,244.233380
  0.088000,241.210560
  0.090000,238.177890
  0.092000,235.045610
  0.094000,231.826400
  0.096000,228.489550
  0.098000,225.030650
  0.100000,221.452350
  0.102000,217.741010
  0.104000,213.906880
  0.106000,209.950230
  0.108000,205.880950
  0.110000,201.713670
  0.112000,197.459920
  0.114000,193.135820
  0.116000,188.756930
  0.118000,184.349040
  0.120000,179.935650
  0.122000,175.543310
  0.124000,171.197910
  0.126000,166.921120
  0.128000,162.724890
  0.130000,158.611950
  0.132000,154.576230
  0.134000,150.602590
  0.136000,146.675260
  0.138000,142.779580
  0.140000,138.922840
  0.142000,135.099390
  0.144000,131.332820
  0.146000,127.636980
  0.148000,124.021880
  0.150000,120.489610
  0.152000,117.025860
  0.154000,113.617500
  0.156000,110.241050
  0.158000,106.899550
  0.160000,103.619670
  0.162000,100.439210
  0.164000, 97.363790
  0.166000, 94.357280
  0.168000, 91.365770
  0.170000, 88.305500
  0.172000, 85.143770
  0.174000, 81.896890
  0.176000, 78.625010
  0.178000, 75.409290
  0.180000, 72.330430
  0.182000, 69.418560
  0.184000, 66.656660
  0.186000, 64.011230
  0.188000, 61.403570
  0.190000, 58.772870
  0.192000, 56.088160
  0.194000, 53.371830
  0.196000, 50.663160
  0.198000, 48.021050
  0.200000, 45.478280
  0.202000, 43.068880
  0.204000, 40.778410
  0.206000, 38.576680
  0.208000, 36.432790
  0.210000, 34.325420
  0.212000, 32.239390
  0.214000, 30.154500
  0.216000, 28.054330
  0.218000, 25.957240
  0.220000, 23.880940
  0.222000, 21.841500
  0.224000, 19.865020
  0.226000, 17.968960
  0.228000, 16.155650
  0.230000, 14.436050
  0.232000, 12.790530
  0.234000, 11.195190
  0.236000,  9.626800
  0.238000,  8.047980
  0.240000,  6.459110
  0.242000,  4.864220
  0.244000,  3.316490
  0.246000,  1.845720
  0.248000,  0.493520
  0.250000, -0.734980
  0.252000, -1.861820
  0.254000, -2.918490
  0.256000, -3.954620
  0.258000, -5.010250
  0.260000, -6.080640
  0.262000, -7.154840
  0.264000, -8.199810
  0.266000, -9.181460
  0.268000,-10.082360
  0.270000,-10.907910
  0.272000,-11.675030
  0.274000,-12.391150
  0.276000,-13.068810
  0.278000,-13.727550
  0.280000,-14.359680
  0.282000,-14.956960
  0.284000,-15.508520
  0.286000,-16.020440
  0.288000,-16.501920
  0.290000,-16.957370
  0.292000,-17.387410
  0.294000,-17.789300
  0.296000,-18.151070
  0.298000,-18.470920
  0.300000,-18.723590
  0.302000,-18.913850
  0.304000,-19.041830
  0.306000,-19.137240
  0.308000,-19.228880
  0.310000,-19.337580
  0.312000,-19.466850
  0.314000,-19.601720
  0.316000,-19.705910
  0.318000,-19.742150
  0.320000,-19.691320
  0.322000,-19.560590
  0.324000,-19.367910
  0.326000,-19.163450
  0.328000,-18.954480
  0.330000,-18.781800
  0.332000,-18.639320
  0.334000,-18.505510
  0.336000,-18.353310
  0.338000,-18.154970
  0.340000,-17.907160
  0.342000,-17.603140
  0.344000,-17.276970
  0.346000,-16.933480
  0.348000,-16.585220
  0.350000,-16.258750
  0.352000,-15.933700
  0.354000,-15.605290
  0.356000,-15.268240
  0.358000,-14.910240
  0.360000,-14.528640
  0.362000,-14.139770
  0.364000,-13.757460
  0.366000,-13.381470
  0.368000,-13.018620
  0.370000,-12.663120
  0.372000,-12.307610
  0.374000,-11.960200
  0.376000,-11.613700
  0.378000,-11.281520
  0.380000,-10.979270
  0.382000,-10.719100
  0.384000,-10.495270
  0.386000,-10.314710
  0.388000,-10.171080
  0.390000,-10.052990
  0.392000, -9.934260
  0.394000, -9.812990
  0.396000, -9.681740
  0.398000, -9.543210
  0.400000, -9.410160
  0.402000, -9.304330
  0.404000, -9.228860
  0.406000, -9.205240
  0.408000, -9.231820
  0.410000, -9.284880
  0.412000, -9.355520
  0.414000, -9.420520
  0.416000, -9.466850
  0.418000, -9.494380
  0.420000, -9.498270
  0.422000, -9.492480
  0.424000, -9.487880
  0.426000, -9.469600
  0.428000, -9.457890
  0.430000, -9.434020
  0.432000, -9.423910
  0.434000, -9.424100
  0.436000, -9.433010
  0.438000, -9.453070
  0.440000, -9.484470
  0.442000, -9.511390
  0.444000, -9.534510
  0.446000, -9.543620
  0.448000, -9.549810
  0.450000, -9.540330
  0.452000, -9.528080
  0.454000, -9.505000
  0.456000, -9.471640
  0.458000, -9.432520
  0.460000, -9.379860
  0.462000, -9.329080
  0.464000, -9.272090
  0.466000, -9.218150
  0.468000, -9.171130
  0.470000, -9.130280
  0.472000, -9.087550
  0.474000, -9.048560
  0.476000, -8.998170
  0.478000, -8.941680
  0.480000, -8.871300
  0.482000, -8.778540
  0.484000, -8.665440
  0.486000, -8.539390
  0.488000, -8.398560
  0.490000, -8.250850
  0.492000, -8.102190
  0.494000, -7.968590
  0.496000, -7.845180
  0.498000, -7.733680
  0.500000, -7.629260
  0.502000, -7.525260
  0.504000, -7.422980
  0.506000, -7.304210
  0.508000, -7.177330
  0.510000, -7.036710
  0.512000, -6.886010
  0.514000, -6.734500
  0.516000, -6.588500
  0.518000, -6.468100
  0.520000, -6.363100
  0.522000, -6.280670
  0.524000, -6.214660
  0.526000, -6.163740
  0.528000, -6.105960
  0.530000, -6.043320
  0.532000, -5.978370
  0.534000, -5.898920
  0.536000, -5.807240
  0.538000, -5.706100
  0.540000, -5.606540
  0.542000, -5.493340
  0.544000, -5.382820
  0.546000, -5.285170
  0.548000, -5.191500
  0.550000, -5.120170
  0.552000, -5.059990
  0.554000, -5.023260
  0.556000, -4.986210
  0.558000, -4.942220
  0.560000, -4.892230
  0.562000, -4.827430
  0.564000, -4.764960
  0.566000, -4.698640
  0.568000, -4.625160
  0.570000, -4.559250
  0.572000, -4.498590
  0.574000, -4.454300
  0.576000, -4.404830
  0.578000, -4.355690
  0.580000, -4.300160
  0.582000, -4.242090
  0.584000, -4.170520
  0.586000, -4.086300
  0.588000, -3.994630
  0.590000, -3.889800
  0.592000, -3.779790
  0.594000, -3.667140
  0.596000, -3.553760
  0.598000, -3.440760
  0.600000, -3.335190
  0.602000, -3.231220
  0.604000, -3.129780
  0.606000, -3.024940
  0.608000, -2.926560
  0.610000, -2.831820
  0.612000, -2.738090
  0.614000, -2.646060
  0.616000, -2.541850
  0.618000, -2.435090
  0.620000, -2.325620
  0.622000, -2.210120
  0.624000, -2.091970
  0.626000, -1.972330
  0.628000, -1.855500
  0.630000, -1.738850
  0.632000, -1.620210
  0.634000, -1.514460
  0.636000, -1.402880
  0.638000, -1.291720
  0.640000, -1.186570
  0.642000, -1.097570
  0.644000, -1.012480
  0.646000, -0.939390
  0.648000, -0.876830
  0.650000, -0.824200
  0.652000, -0.774140
  0.654000, -0.726710
  0.656000, -0.669570
  0.658000, -0.603930
  0.660000, -0.528760
  0.662000, -0.441030
  0.664000, -0.343770
  0.666000, -0.248690
  0.668000, -0.157130
  0.670000, -0.075270
  0.672000, -0.011900
  0.674000,  0.040780
  0.676000,  0.077430
  0.678000,  0.111330
  0.680000,  0.136290
  0.682000,  0.163610
  0.684000,  0.193900
  0.686000,  0.232760
  0.688000,  0.275280
  0.690000,  0.326310
  0.692000,  0.381340
  0.694000,  0.435930
  0.696000,  0.492820
  0.698000,  0.536270
  0.700000,  0.576450
  0.702000,  0.609730
  0.704000,  0.629420
  0.706000,  0.641280
  0.708000,  0.646440
  0.710000,  0.647970
  0.712000,  0.648960
  0.714000,  0.647790
  0.716000,  0.650530
  0.718000,  0.655380
  0.720000,  0.655040
  0.722000,  0.643210
  0.724000,  0.624850
  0.726000,  0.604450
  0.728000,  0.577260
  0.730000,  0.553370
  0.732000,  0.532170
  0.734000,  0.509910
  0.736000,  0.489680
  0.738000,  0.464420
  0.740000,  0.431210
  0.742000,  0.394490
  0.744000,  0.358210
  0.746000,  0.322350
  0.748000,  0.283520
  0.750000,  0.242470
  0.752000,  0.202430
  0.754000,  0.158170
  0.756000,  0.114550
  0.758000,  0.066930
  0.760000,  0.024340
  0.762000, -0.021200
  0.764000, -0.061850
  0.766000, -0.098510
  0.768000, -0.131320
  0.770000, -0.165730
  0.772000, -0.195250
  0.774000, -0.228880
  0.776000, -0.266600
  0.778000, -0.293320
  0.780000, -0.319610
  0.782000, -0.341600
  0.784000, -0.351240
  0.786000, -0.356270
  0.788000, -0.362720
  0.790000, -0.360350
  0.792000, -0.365400
  0.794000, -0.369740
  0.796000, -0.388680
  0.798000, -0.411320
  0.800000, -0.446890
  0.802000, -0.488430
  0.804000, -0.527470
  0.806000, -0.572680
  0.808000, -0.611850
  0.810000, -0.638420
  0.812000, -0.648090
  0.814000, -0.649730
  0.816000, -0.635680
  0.818000, -0.620560
  0.820000, -0.600510
  0.822000, -0.574770
  0.824000, -0.550010
  0.826000, -0.528080
  0.828000, -0.505280
  0.830000, -0.482630
  0.832000, -0.462770
  0.834000, -0.443470
  0.836000, -0.427160
  0.838000, -0.416690
  0.840000, -0.413600
  0.842000, -0.414790
  0.844000, -0.417520
  0.846000, -0.422310
  0.848000, -0.425330
  0.850000, -0.417780
  0.852000, -0.404340
  0.854000, -0.383720
  0.856000, -0.357320
  0.858000, -0.326760
  0.860000, -0.296000
  0.862000, -0.262090
  0.864000, -0.228880
  0.866000, -0.208680
  0.868000, -0.186850
  0.870000, -0.179700
  0.872000, -0.185330
  0.874000, -0.203930
  0.876000, -0.233730
  0.878000, -0.275920
  0.880000, -0.317310
  0.882000, -0.355040
  0.884000, -0.380280
  0.886000, -0.383920
  0.888000, -0.375910
  0.890000, -0.352850
  0.892000, -0.322350
  0.894000, -0.294930
  0.896000, -0.272940
  0.898000, -0.266860
  0.900000, -0.261450
  0.902000, -0.278790
  0.904000, -0.298120
  0.906000, -0.325870
  0.908000, -0.348680
  0.910000, -0.362190
  0.912000, -0.361680
  0.914000, -0.343310
  0.916000, -0.313800
  0.918000, -0.272490
  0.920000, -0.219810
  0.922000, -0.162650
  0.924000, -0.109040
  0.926000, -0.063430
  0.928000, -0.024650
  0.930000, -0.008500
  0.932000, -0.006940
  0.934000, -0.017100
  0.936000, -0.035840
  0.938000, -0.059800
  0.940000, -0.081660
  0.942000, -0.092540
  0.944000, -0.092070
  0.946000, -0.082660
  0.948000, -0.062620
  0.950000, -0.030750
  0.952000,  0.003000
  0.954000,  0.048400
  0.956000,  0.090080
  0.958000,  0.128670
  0.960000,  0.150650
  0.962000,  0.169320
  0.964000,  0.172760
  0.966000,  0.164990
  0.968000,  0.153670
  0.970000,  0.132470
  0.972000,  0.105170
  0.974000,  0.081660
  0.976000,  0.067080
  0.978000,  0.060020
  0.980000,  0.062250
  0.982000,  0.081580
  0.984000,  0.114640
  0.986000,  0.150510
  0.988000,  0.193430
  0.990000,  0.233720
  0.992000,  0.279510
  0.994000,  0.319290
  0.996000,  0.347790
  0.998000,  0.367780
  1.000000,  0.376550
