# z (nm)   (kJ/mol)
  0.118000,266.462190
  0.120000,263.559180
  0.122000,261.495070
  0.124000,259.355570
  0.126000,257.374840
  0.128000,255.338940
  0.130000,253.407010
  0.132000,251.445280
  0.134000,249.475050
  0.136000,247.512550
  0.138000,245.514320
  0.140000,243.465640
  0.142000,241.351820
  0.144000,239.132560
  0.146000,236.815100
  0.148000,234.362800
  0.150000,231.757000
  0.152000,228.981770
  0.154000,226.019080
  0.156000,222.848250
  0.158000,219.454330
  0.160000,215.811090
  0.162000,211.909660
  0.164000,207.741550
  0.166000,203.316450
  0.168000,198.666900
  0.170000,193.845760
  0.172000,188.939450
  0.174000,184.028530
  0.176000,179.191080
  0.178000,174.473540
  0.180000,169.902590
  0.182000,165.464070
  0.184000,161.133640
  0.186000,156.877820
  0.188000,152.673320
  0.190000,148.531660
  0.192000,144.473070
  0.194000,140.530860
  0.196000,136.737480
  0.198000,133.115080
  0.200000,129.643590
  0.202000,126.280380
  0.204000,122.947080
  0.206000,119.587640
  0.208000,116.184770
  0.210000,112.767400
  0.212000,109.371530
  0.214000,106.024650
  0.216000,102.722540
  0.218000, 99.442200
  0.220000, 96.193150
  0.222000, 93.002460
  0.224000, 89.912540
  0.226000, 86.930720
  0.228000, 84.079370
  0.230000, 81.320820
  0.232000, 78.617290
  0.234000, 75.933340
  0.236000, 73.260830
  0.238000, 70.616600
  0.240000, 68.022850
  0.242000, 65.507370
  0.244000, 63.083970
  0.246000, 60.741500
  0.248000, 58.455240
  0.250000, 56.172610
  0.252000, 53.872100
  0.254000, 51.563660
  0.256000, 49.290400
  0.258000, 47.108680
  0.260000, 45.050810
  0.262000, 43.078980
  0.264000, 41.161130
  0.266000, 39.246090
  0.268000, 37.322790
  0.270000, 35.416840
  0.272000, 33.550820
  0.274000, 31.764050
  0.276000, 30.066370
  0.278000, 28.459080
  0.280000, 26.923410
  0.282000, 25.448260
  0.284000, 24.009300
  0.286000, 22.593310
  0.288000, 21.210590
  0.290000, 19.881680
  0.292000, 18.629100
  0.294000, 17.474880
  0.296000, 16.406420
  0.298000, 15.417340
  0.300000, 14.482850
  0.302000, 13.572100
  0.304000, 12.672220
  0.306000, 11.783170
  0.308000, 10.914420
  0.310000, 10.094830
  0.312000,  9.345480
  0.314000,  8.677860
  0.316000,  8.112640
  0.318000,  7.632850
  0.320000,  7.233150
  0.322000,  6.876920
  0.324000,  6.546540
  0.326000,  6.219630
  0.328000,  5.884110
  0.330000,  5.551930
  0.332000,  5.226640
  0.334000,  4.930410
  0.336000,  4.696150
  0.338000,  4.537490
  0.340000,  4.451470
  0.342000,  4.411940
  0.344000,  4.393600
  0.346000,  4.355730
  0.348000,  4.282430
  0.350000,  4.193410
  0.352000,  4.095170
  0.354000,  4.020320
  0.356000,  3.980260
  0.358000,  3.964190
  0.360000,  3.956620
  0.362000,  3.939020
  0.364000,  3.911120
  0.366000,  3.875850
  0.368000,  3.851100
  0.370000,  3.846090
  0.372000,  3.861750
  0.374000,  3.882840
  0.376000,  3.904130
  0.378000,  3.891890
  0.380000,  3.839980
  0.382000,  3.746340
  0.384000,  3.613810
  0.386000,  3.454780
  0.388000,  3.284690
  0.390000,  3.109790
  0.392000,  2.948540
  0.394000,  2.787800
  0.396000,  2.631020
  0.398000,  2.461420
  0.400000,  2.258050
  0.402000,  2.040440
  0.404000,  1.790840
  0.406000,  1.517170
  0.408000,  1.224380
  0.410000,  0.926320
  0.412000,  0.629760
  0.414000,  0.346100
  0.416000,  0.087200
  0.418000, -0.149950
  0.420000, -0.369740
  0.422000, -0.578420
  0.424000, -0.775610
  0.426000, -0.968050
  0.428000, -1.150350
  0.430000, -1.323390
  0.432000, -1.485600
  0.434000, -1.633380
  0.436000, -1.766650
  0.438000, -1.884890
  0.440000, -1.992630
  0.442000, -2.090620
  0.444000, -2.182880
  0.446000, -2.280250
  0.448000, -2.373890
  0.450000, -2.462040
  0.452000, -2.550760
  0.454000, -2.630430
  0.456000, -2.705110
  0.458000, -2.772100
  0.460000, -2.831440
  0.462000, -2.889840
  0.464000, -2.937650
  0.466000, -2.993710
  0.468000, -3.065100
  0.470000, -3.147650
  0.472000, -3.248830
  0.474000, -3.362180
  0.476000, -3.465610
  0.478000, -3.554200
  0.480000, -3.627480
  0.482000, -3.675280
  0.484000, -3.713460
  0.486000, -3.757670
  0.488000, -3.806960
  0.490000, -3.881410
  0.492000, -3.974260
  0.494000, -4.095980
  0.496000, -4.226610
  0.498000, -4.370160
  0.500000, -4.512720
  0.502000, -4.638330
  0.504000, -4.751260
  0.506000, -4.853960
  0.508000, -4.940940
  0.510000, -5.034030
  0.512000, -5.126030
  0.514000, -5.218960
  0.516000, -5.317880
  0.518000, -5.422440
  0.520000, -5.530650
  0.522000, -5.641730
  0.524000, -5.755330
  0.526000, -5.866520
  0.528000, -5.970210
  0.530000, -6.071900
  0.532000, -6.163090
  0.534000, -6.256550
  0.536000, -6.347490
  0.538000, -6.437320
  0.540000, -6.515940
  0.542000, -6.588470
  0.544000, -6.661450
  0.546000, -6.721860
  0.548000, -6.767370
  0.550000, -6.805590
  0.552000, -6.822950
  0.554000, -6.827370
  0.556000, -6.826060
  0.558000, -6.818340
  0.560000, -6.815410
  0.562000, -6.823170
  0.564000, -6.841170
  0.566000, -6.861370
  0.568000, -6.882520
  0.570000, -6.890900
  0.572000, -6.881550
  0.574000, -6.846460
  0.576000, -6.782810
  0.578000, -6.689930
  0.580000, -6.587870
  0.582000, -6.479270
  0.584000, -6.378840
  0.586000, -6.293010
  0.588000, -6.218700
  0.590000, -6.158800
  0.592000, -6.104460
  0.594000, -6.054030
  0.596000, -6.000380
  0.598000, -5.941800
  0.600000, -5.868210
  0.602000, -5.792850
  0.604000, -5.714250
  0.606000, -5.620600
  0.608000, -5.522730
  0.610000, -5.409010
  0.612000, -5.294650
  0.614000, -5.171970
  0.616000, -5.049390
  0.618000, -4.937340
  0.620000, -4.829820
  0.622000, -4.742800
  0.624000, -4.670370
  0.626000, -4.608120
  0.628000, -4.561370
  0.630000, -4.519730
  0.632000, -4.485430
  0.634000, -4.450110
  0.636000, -4.411210
  0.638000, -4.370640
  0.640000, -4.334550
  0.642000, -4.305840
  0.644000, -4.296120
  0.646000, -4.294740
  0.648000, -4.295990
  0.650000, -4.295770
  0.652000, -4.286410
  0.654000, -4.269470
  0.656000, -4.239960
  0.658000, -4.223660
  0.660000, -4.215990
  0.662000, -4.227920
  0.664000, -4.252650
  0.666000, -4.296820
  0.668000, -4.338780
  0.670000, -4.364970
  0.672000, -4.363170
  0.674000, -4.323360
  0.676000, -4.258710
  0.678000, -4.172680
  0.680000, -4.080710
  0.682000, -3.996920
  0.684000, -3.927680
  0.686000, -3.882290
  0.688000, -3.855660
  0.690000, -3.841690
  0.692000, -3.825280
  0.694000, -3.801880
  0.696000, -3.749900
  0.698000, -3.681060
  0.700000, -3.586850
  0.702000, -3.472980
  0.704000, -3.344010
  0.706000, -3.205840
  0.708000, -3.070770
  0.710000, -2.960860
  0.712000, -2.885070
  0.714000, -2.832240
  0.716000, -2.800720
  0.718000, -2.770940
  0.720000, -2.741130
  0.722000, -2.694910
  0.724000, -2.614480
  0.726000, -2.511110
  0.728000, -2.386660
  0.730000, -2.254080
  0.732000, -2.139630
  0.734000, -2.051610
  0.736000, -1.990450
  0.738000, -1.967160
  0.740000, -1.965130
  0.742000, -1.964030
  0.744000, -1.940140
  0.746000, -1.893010
  0.748000, -1.815060
  0.750000, -1.704570
  0.752000, -1.592090
  0.754000, -1.486760
  0.756000, -1.406400
  0.758000, -1.347400
  0.760000, -1.300620
  0.762000, -1.255520
  0.764000, -1.212940
  0.766000, -1.160520
  0.768000, -1.111860
  0.770000, -1.058690
  0.772000, -1.015220
  0.774000, -0.977360
  0.776000, -0.960300
  0.778000, -0.956290
  0.780000, -0.963800
  0.782000, -0.972950
  0.784000, -0.977930
  0.786000, -0.980490
  0.788000, -0.969460
  0.790000, -0.945750
  0.792000, -0.906860
  0.794000, -0.859900
  0.796000, -0.800300
  0.798000, -0.742450
  0.800000, -0.703000
  0.802000, -0.658650
  0.804000, -0.626820
  0.806000, -0.598750
  0.808000, -0.579180
  0.810000, -0.567440
  0.812000, -0.550000
  0.814000, -0.525100
  0.816000, -0.498630
  0.818000, -0.467760
  0.820000, -0.427970
  0.822000, -0.386150
  0.824000, -0.350560
  0.826000, -0.302880
  0.828000, -0.265530
  0.830000, -0.234550
  0.832000, -0.203380
  0.834000, -0.185450
  0.836000, -0.164030
  0.838000, -0.144520
  0.840000, -0.128870
  0.842000, -0.117090
  0.844000, -0.107990
  0.846000, -0.098600
  0.848000, -0.095990
  0.850000, -0.095110
  0.852000, -0.102460
  0.854000, -0.117150
  0.856000, -0.128410
  0.858000, -0.138640
  0.860000, -0.141640
  0.862000, -0.145030
  0.864000, -0.132620
  0.866000, -0.117700
  0.868000, -0.092810
  0.870000, -0.047390
  0.872000,  0.011830
  0.874000,  0.074370
  0.876000,  0.138930
  0.878000,  0.196170
  0.880000,  0.241300
  0.882000,  0.274370
  0.884000,  0.275660
  0.886000,  0.257260
  0.888000,  0.222730
  0.890000,  0.179990
  0.892000,  0.129480
  0.894000,  0.078580
  0.896000,  0.038620
  0.898000,  0.019240
  0.900000,  0.015360
  0.902000,  0.017610
  0.904000,  0.027220
  0.906000,  0.046220
  0.908000,  0.061300
  0.910000,  0.081600
  0.912000,  0.090480
  0.914000,  0.096250
  0.916000,  0.093150
  0.918000,  0.087030
  0.920000,  0.065260
  0.922000,  0.038980
  0.924000,  0.003500
  0.926000, -0.039350
  0.928000, -0.081350
  0.930000, -0.123240
  0.932000, -0.152630
  0.934000, -0.165810
  0.936000, -0.163470
  0.938000, -0.133610
  0.940000, -0.101560
  0.942000, -0.059750
  0.944000, -0.015790
  0.946000,  0.024820
  0.948000,  0.058140
  0.950000,  0.077690
  0.952000,  0.082030
  0.954000,  0.076390
  0.956000,  0.050420
  0.958000,  0.018270
  0.960000, -0.005550
  0.962000, -0.034440
  0.964000, -0.057690
  0.966000, -0.078800
  0.968000, -0.094480
  0.970000, -0.098240
  0.972000, -0.099890
  0.974000, -0.098040
  0.976000, -0.091270
  0.978000, -0.077820
  0.980000, -0.058510
  0.982000, -0.031180
  0.984000, -0.000210
  0.986000,  0.030550
  0.988000,  0.061700
  0.990000,  0.087650
  0.992000,  0.105490
  0.994000,  0.119430
  0.996000,  0.120670
  0.998000,  0.121460
  1.000000,  0.119400
