# z (nm)   (kJ/mol)
  0.038000,265.302520
  0.040000,262.800890
  0.042000,258.364000
  0.044000,255.604850
  0.046000,252.669620
  0.048000,249.881160
  0.050000,247.061380
  0.052000,244.220930
  0.054000,241.321010
  0.056000,238.338120
  0.058000,235.272220
  0.060000,232.106580
  0.062000,228.825930
  0.064000,225.428600
  0.066000,221.915520
  0.068000,218.285050
  0.070000,214.536950
  0.072000,210.670630
  0.074000,206.686030
  0.076000,202.582670
  0.078000,198.365910
  0.080000,194.048530
  0.082000,189.669620
  0.084000,185.278910
  0.086000,180.918890
  0.088000,176.634610
  0.090000,172.443350
  0.092000,168.346130
  0.094000,164.316610
  0.096000,160.333130
  0.098000,156.376050
  0.100000,152.430150
  0.102000,148.500230
  0.104000,144.590070
  0.106000,140.695310
  0.108000,136.821140
  0.110000,132.970040
  0.112000,129.144410
  0.114000,125.358230
  0.116000,121.643810
  0.118000,118.018350
  0.120000,114.511050
  0.122000,111.131660
  0.124000,107.885370
  0.126000,104.749380
  0.128000,101.693890
  0.130000, 98.698290
  0.132000, 95.740390
  0.134000, 92.793720
  0.136000, 89.855370
  0.138000, 86.924490
  0.140000, 84.011190
  0.142000, 81.125790
  0.144000, 78.284550
  0.146000, 75.507810
  0.148000, 72.797490
  0.150000, 70.163170
  0.152000, 67.611370
  0.154000, 65.139290
  0.156000, 62.737300
  0.158000, 60.414390
  0.160000, 58.153720
  0.162000, 55.945260
  0.164000, 53.777160
  0.166000, 51.641920
  0.168000, 49.522750
  0.170000, 47.413510
  0.172000, 45.317180
  0.174000, 43.242580
  0.176000, 41.209800
  0.178000, 39.242720
  0.180000, 37.364550
  0.182000, 35.583620
  0.184000, 33.912850
  0.186000, 32.334990
  0.188000, 30.817400
  0.190000, 29.351430
  0.192000, 27.894440
  0.194000, 26.448550
  0.196000, 24.993510
  0.198000, 23.548140
  0.200000, 22.135560
  0.202000, 20.779960
  0.204000, 19.497320
  0.206000, 18.292770
  0.208000, 17.160990
  0.210000, 16.097530
  0.212000, 15.088860
  0.214000, 14.120780
  0.216000, 13.195740
  0.218000, 12.312430
  0.220000, 11.472780
  0.222000, 10.678040
  0.224000,  9.934040
  0.226000,  9.239880
  0.228000,  8.586190
  0.230000,  7.963720
  0.232000,  7.375610
  0.234000,  6.821560
  0.236000,  6.313470
  0.238000,  5.836530
  0.240000,  5.384610
  0.242000,  4.961690
  0.244000,  4.540370
  0.246000,  4.119110
  0.248000,  3.690610
  0.250000,  3.256440
  0.252000,  2.805500
  0.254000,  2.346960
  0.256000,  1.889660
  0.258000,  1.419990
  0.260000,  0.941040
  0.262000,  0.447480
  0.264000, -0.071860
  0.266000, -0.620320
  0.268000, -1.213010
  0.270000, -1.829430
  0.272000, -2.473710
  0.274000, -3.125060
  0.276000, -3.764610
  0.278000, -4.381370
  0.280000, -4.964380
  0.282000, -5.517030
  0.284000, -6.029080
  0.286000, -6.515850
  0.288000, -6.987430
  0.290000, -7.465490
  0.292000, -7.947070
  0.294000, -8.448950
  0.296000, -8.951270
  0.298000, -9.435670
  0.300000, -9.902520
  0.302000,-10.326920
  0.304000,-10.692140
  0.306000,-11.004330
  0.308000,-11.269850
  0.310000,-11.515120
  0.312000,-11.749420
  0.314000,-12.000520
  0.316000,-12.264660
  0.318000,-12.551540
  0.320000,-12.855970
  0.322000,-13.162110
  0.324000,-13.441240
  0.326000,-13.672810
  0.328000,-13.858760
  0.330000,-13.985470
  0.332000,-14.066340
  0.334000,-14.119590
  0.336000,-14.146450
  0.338000,-14.172960
  0.340000,-14.210820
  0.342000,-14.261540
  0.344000,-14.324010
  0.346000,-14.412770
  0.348000,-14.509740
  0.350000,-14.607520
  0.352000,-14.697520
  0.354000,-14.772500
  0.356000,-14.816030
  0.358000,-14.829310
  0.360000,-14.806660
  0.362000,-14.758170
  0.364000,-14.691640
  0.366000,-14.615330
  0.368000,-14.523580
  0.370000,-14.439820
  0.372000,-14.357350
  0.374000,-14.262800
  0.376000,-14.168540
  0.378000,-14.045980
  0.380000,-13.904940
  0.382000,-13.732520
  0.384000,-13.523590
  0.386000,-13.279280
  0.388000,-13.003920
  0.390000,-12.692540
  0.392000,-12.349990
  0.394000,-11.977640
  0.396000,-11.582950
  0.398000,-11.169700
  0.400000,-10.742080
  0.402000,-10.318210
  0.404000, -9.881150
  0.406000, -9.433950
  0.408000, -8.987630
  0.410000, -8.522960
  0.412000, -8.043320
  0.414000, -7.547840
  0.416000, -7.049840
  0.418000, -6.551850
  0.420000, -6.062550
  0.422000, -5.592200
  0.424000, -5.131970
  0.426000, -4.687300
  0.428000, -4.255240
  0.430000, -3.847130
  0.432000, -3.460130
  0.434000, -3.099120
  0.436000, -2.772350
  0.438000, -2.469690
  0.440000, -2.197510
  0.442000, -1.950610
  0.444000, -1.736750
  0.446000, -1.536810
  0.448000, -1.347140
  0.450000, -1.165250
  0.452000, -0.989680
  0.454000, -0.819880
  0.456000, -0.651020
  0.458000, -0.481240
  0.460000, -0.314080
  0.462000, -0.157360
  0.464000, -0.017160
  0.466000,  0.096180
  0.468000,  0.186680
  0.470000,  0.255940
  0.472000,  0.302300
  0.474000,  0.335290
  0.476000,  0.369130
  0.478000,  0.411660
  0.480000,  0.454290
  0.482000,  0.507610
  0.484000,  0.574480
  0.486000,  0.639450
  0.488000,  0.691850
  0.490000,  0.723510
  0.492000,  0.719390
  0.494000,  0.693900
  0.496000,  0.645200
  0.498000,  0.581470
  0.500000,  0.503620
  0.502000,  0.419200
  0.504000,  0.347850
  0.506000,  0.284740
  0.508000,  0.226230
  0.510000,  0.172110
  0.512000,  0.117610
  0.514000,  0.063150
  0.516000,  0.000570
  0.518000, -0.073500
  0.520000, -0.153560
  0.522000, -0.233200
  0.524000, -0.319630
  0.526000, -0.405290
  0.528000, -0.489370
  0.530000, -0.565290
  0.532000, -0.640130
  0.534000, -0.708280
  0.536000, -0.784750
  0.538000, -0.858210
  0.540000, -0.931200
  0.542000, -1.014970
  0.544000, -1.094150
  0.546000, -1.171090
  0.548000, -1.246610
  0.550000, -1.315690
  0.552000, -1.378520
  0.554000, -1.432200
  0.556000, -1.468890
  0.558000, -1.495900
  0.560000, -1.507370
  0.562000, -1.514850
  0.564000, -1.518460
  0.566000, -1.520310
  0.568000, -1.525340
  0.570000, -1.539560
  0.572000, -1.559820
  0.574000, -1.580150
  0.576000, -1.601010
  0.578000, -1.611070
  0.580000, -1.611140
  0.582000, -1.596480
  0.584000, -1.570520
  0.586000, -1.532870
  0.588000, -1.484680
  0.590000, -1.430730
  0.592000, -1.380440
  0.594000, -1.330790
  0.596000, -1.306540
  0.598000, -1.297180
  0.600000, -1.312180
  0.602000, -1.331920
  0.604000, -1.358500
  0.606000, -1.379500
  0.608000, -1.392590
  0.610000, -1.388770
  0.612000, -1.370640
  0.614000, -1.326780
  0.616000, -1.268440
  0.618000, -1.195510
  0.620000, -1.121590
  0.622000, -1.049410
  0.624000, -0.993640
  0.626000, -0.948900
  0.628000, -0.916390
  0.630000, -0.904440
  0.632000, -0.909580
  0.634000, -0.921820
  0.636000, -0.941440
  0.638000, -0.960120
  0.640000, -0.964040
  0.642000, -0.952990
  0.644000, -0.929750
  0.646000, -0.888760
  0.648000, -0.837400
  0.650000, -0.778680
  0.652000, -0.720250
  0.654000, -0.662780
  0.656000, -0.615730
  0.658000, -0.578210
  0.660000, -0.553650
  0.662000, -0.545740
  0.664000, -0.554980
  0.666000, -0.568170
  0.668000, -0.580930
  0.670000, -0.592200
  0.672000, -0.593370
  0.674000, -0.579650
  0.676000, -0.546150
  0.678000, -0.478250
  0.680000, -0.376610
  0.682000, -0.244050
  0.684000, -0.092480
  0.686000,  0.059530
  0.688000,  0.181550
  0.690000,  0.245420
  0.692000,  0.211560
  0.694000,  0.094180
  0.696000, -0.090890
  0.698000, -0.288100
  0.700000, -0.424940
  0.702000, -0.455770
  0.704000, -0.365960
  0.706000, -0.168280
  0.708000,  0.096120
  0.710000,  0.352580
  0.712000,  0.556570
  0.714000,  0.666030
  0.716000,  0.691160
  0.718000,  0.651850
  0.720000,  0.570790
  0.722000,  0.475500
  0.724000,  0.394180
  0.726000,  0.336950
  0.728000,  0.303540
  0.730000,  0.300850
  0.732000,  0.317850
  0.734000,  0.346250
  0.736000,  0.387120
  0.738000,  0.424830
  0.740000,  0.473440
  0.742000,  0.506810
  0.744000,  0.533030
  0.746000,  0.553620
  0.748000,  0.575680
  0.750000,  0.584310
  0.752000,  0.592220
  0.754000,  0.593530
  0.756000,  0.584110
  0.758000,  0.570620
  0.760000,  0.548910
  0.762000,  0.514380
  0.764000,  0.477210
  0.766000,  0.433220
  0.768000,  0.391730
  0.770000,  0.355310
  0.772000,  0.315140
  0.774000,  0.291910
  0.776000,  0.274910
  0.778000,  0.266740
  0.780000,  0.268360
  0.782000,  0.265940
  0.784000,  0.263530
  0.786000,  0.254150
  0.788000,  0.242330
  0.790000,  0.215950
  0.792000,  0.194260
  0.794000,  0.167110
  0.796000,  0.138090
  0.798000,  0.116380
  0.800000,  0.097570
  0.802000,  0.088440
  0.804000,  0.079700
  0.806000,  0.070070
  0.808000,  0.054710
  0.810000,  0.038590
  0.812000,  0.018900
  0.814000, -0.001130
  0.816000, -0.024350
  0.818000, -0.046760
  0.820000, -0.064960
  0.822000, -0.077300
  0.824000, -0.086070
  0.826000, -0.091760
  0.828000, -0.085370
  0.830000, -0.070370
  0.832000, -0.046820
  0.834000, -0.021350
  0.836000,  0.007620
  0.838000,  0.039390
  0.840000,  0.063650
  0.842000,  0.082950
  0.844000,  0.086730
  0.846000,  0.085190
  0.848000,  0.069230
  0.850000,  0.041440
  0.852000,  0.009780
  0.854000, -0.021110
  0.856000, -0.053790
  0.858000, -0.075460
  0.860000, -0.081650
  0.862000, -0.080380
  0.864000, -0.061570
  0.866000, -0.022700
  0.868000,  0.023400
  0.870000,  0.070630
  0.872000,  0.109680
  0.874000,  0.144590
  0.876000,  0.176520
  0.878000,  0.193900
  0.880000,  0.199120
  0.882000,  0.183870
  0.884000,  0.161350
  0.886000,  0.132210
  0.888000,  0.099950
  0.890000,  0.064700
  0.892000,  0.034560
  0.894000,  0.008560
  0.896000, -0.006760
  0.898000, -0.007910
  0.900000, -0.008240
  0.902000,  0.005990
  0.904000,  0.023050
  0.906000,  0.040290
  0.908000,  0.059890
  0.910000,  0.074650
  0.912000,  0.092240
  0.914000,  0.107020
  0.916000,  0.111980
  0.918000,  0.113560
  0.920000,  0.107800
  0.922000,  0.097690
  0.924000,  0.088690
  0.926000,  0.076150
  0.928000,  0.066370
  0.930000,  0.061530
  0.932000,  0.048660
  0.934000,  0.040150
  0.936000,  0.028050
  0.938000,  0.014700
  0.940000, -0.000280
  0.942000, -0.015600
  0.944000, -0.030290
  0.946000, -0.048480
  0.948000, -0.059770
  0.950000, -0.065140
  0.952000, -0.067570
  0.954000, -0.067560
  0.956000, -0.068160
  0.958000, -0.060430
  0.960000, -0.051740
  0.962000, -0.045380
  0.964000, -0.038460
  0.966000, -0.036160
  0.968000, -0.033240
  0.970000, -0.035040
  0.972000, -0.034630
  0.974000, -0.042920
  0.976000, -0.048190
  0.978000, -0.042640
  0.980000, -0.046130
  0.982000, -0.045200
  0.984000, -0.045340
  0.986000, -0.041210
  0.988000, -0.032130
  0.990000, -0.024900
  0.992000, -0.022650
  0.994000, -0.024150
  0.996000, -0.024270
  0.998000, -0.028840
  1.000000, -0.031970
