# z (nm)   (kJ/mol)
  0.074000,277.746820
  0.076000,275.430480
  0.078000,273.151170
  0.080000,270.387350
  0.082000,268.110870
  0.084000,265.852090
  0.086000,263.492900
  0.088000,261.076430
  0.090000,258.650060
  0.092000,256.244420
  0.094000,253.801590
  0.096000,251.305110
  0.098000,248.744670
  0.100000,246.106990
  0.102000,243.370510
  0.104000,240.538570
  0.106000,237.593760
  0.108000,234.527920
  0.110000,231.323190
  0.112000,227.977380
  0.114000,224.479520
  0.116000,220.827550
  0.118000,217.027060
  0.120000,213.105810
  0.122000,209.100620
  0.124000,205.057690
  0.126000,201.031680
  0.128000,197.049970
  0.130000,193.136120
  0.132000,189.283220
  0.134000,185.500520
  0.136000,181.792810
  0.138000,178.161070
  0.140000,174.621390
  0.142000,171.182430
  0.144000,167.834540
  0.146000,164.566000
  0.148000,161.367000
  0.150000,158.210930
  0.152000,155.087590
  0.154000,151.978620
  0.156000,148.865610
  0.158000,145.755890
  0.160000,142.647430
  0.162000,139.550300
  0.164000,136.483050
  0.166000,133.466020
  0.168000,130.520210
  0.170000,127.649030
  0.172000,124.861900
  0.174000,122.144850
  0.176000,119.490220
  0.178000,116.870630
  0.180000,114.280290
  0.182000,111.696950
  0.184000,109.122740
  0.186000,106.552570
  0.188000,103.983860
  0.190000,101.417110
  0.192000, 98.870090
  0.194000, 96.352130
  0.196000, 93.879980
  0.198000, 91.474080
  0.200000, 89.160170
  0.202000, 86.924560
  0.204000, 84.770860
  0.206000, 82.683760
  0.208000, 80.637400
  0.210000, 78.613520
  0.212000, 76.602170
  0.214000, 74.592590
  0.216000, 72.592550
  0.218000, 70.619130
  0.220000, 68.679330
  0.222000, 66.782370
  0.224000, 64.941400
  0.226000, 63.158810
  0.228000, 61.422780
  0.230000, 59.739880
  0.232000, 58.090350
  0.234000, 56.475810
  0.236000, 54.882820
  0.238000, 53.306350
  0.240000, 51.748450
  0.242000, 50.209420
  0.244000, 48.688020
  0.246000, 47.190670
  0.248000, 45.717950
  0.250000, 44.282390
  0.252000, 42.891450
  0.254000, 41.555330
  0.256000, 40.285880
  0.258000, 39.071890
  0.260000, 37.925080
  0.262000, 36.814870
  0.264000, 35.754570
  0.266000, 34.732980
  0.268000, 33.731060
  0.270000, 32.747690
  0.272000, 31.779770
  0.274000, 30.816070
  0.276000, 29.874900
  0.278000, 28.954670
  0.280000, 28.064170
  0.282000, 27.199620
  0.284000, 26.371690
  0.286000, 25.581780
  0.288000, 24.815980
  0.290000, 24.080190
  0.292000, 23.374380
  0.294000, 22.689000
  0.296000, 22.027130
  0.298000, 21.385690
  0.300000, 20.760430
  0.302000, 20.146090
  0.304000, 19.547390
  0.306000, 18.960420
  0.308000, 18.387510
  0.310000, 17.824190
  0.312000, 17.254380
  0.314000, 16.687950
  0.316000, 16.135670
  0.318000, 15.582050
  0.320000, 15.039540
  0.322000, 14.516390
  0.324000, 14.016240
  0.326000, 13.529200
  0.328000, 13.076350
  0.330000, 12.652460
  0.332000, 12.253800
  0.334000, 11.881020
  0.336000, 11.535140
  0.338000, 11.207520
  0.340000, 10.894310
  0.342000, 10.580550
  0.344000, 10.278310
  0.346000,  9.975330
  0.348000,  9.665960
  0.350000,  9.360190
  0.352000,  9.062900
  0.354000,  8.771020
  0.356000,  8.482730
  0.358000,  8.210680
  0.360000,  7.956800
  0.362000,  7.715990
  0.364000,  7.498700
  0.366000,  7.301820
  0.368000,  7.135180
  0.370000,  6.996500
  0.372000,  6.880760
  0.374000,  6.777630
  0.376000,  6.678120
  0.378000,  6.586640
  0.380000,  6.491370
  0.382000,  6.383910
  0.384000,  6.263950
  0.386000,  6.124240
  0.388000,  5.975460
  0.390000,  5.812060
  0.392000,  5.645600
  0.394000,  5.479130
  0.396000,  5.323510
  0.398000,  5.189970
  0.400000,  5.074990
  0.402000,  4.978330
  0.404000,  4.902550
  0.406000,  4.834440
  0.408000,  4.765990
  0.410000,  4.695950
  0.412000,  4.607340
  0.414000,  4.491810
  0.416000,  4.361100
  0.418000,  4.208250
  0.420000,  4.048610
  0.422000,  3.876860
  0.424000,  3.703390
  0.426000,  3.522820
  0.428000,  3.343710
  0.430000,  3.172220
  0.432000,  3.000730
  0.434000,  2.824840
  0.436000,  2.641360
  0.438000,  2.449240
  0.440000,  2.246700
  0.442000,  2.035080
  0.444000,  1.808630
  0.446000,  1.576120
  0.448000,  1.334450
  0.450000,  1.092640
  0.452000,  0.847430
  0.454000,  0.603710
  0.456000,  0.367380
  0.458000,  0.130600
  0.460000, -0.109690
  0.462000, -0.338790
  0.464000, -0.557850
  0.466000, -0.768530
  0.468000, -0.972610
  0.470000, -1.163620
  0.472000, -1.349610
  0.474000, -1.522970
  0.476000, -1.687650
  0.478000, -1.841080
  0.480000, -1.982130
  0.482000, -2.119600
  0.484000, -2.238770
  0.486000, -2.344970
  0.488000, -2.441070
  0.490000, -2.522780
  0.492000, -2.593380
  0.494000, -2.654690
  0.496000, -2.713570
  0.498000, -2.767200
  0.500000, -2.816800
  0.502000, -2.865990
  0.504000, -2.908460
  0.506000, -2.944940
  0.508000, -2.977720
  0.510000, -3.006780
  0.512000, -3.028380
  0.514000, -3.036790
  0.516000, -3.035730
  0.518000, -3.019850
  0.520000, -2.987880
  0.522000, -2.954010
  0.524000, -2.905390
  0.526000, -2.864660
  0.528000, -2.834130
  0.530000, -2.809850
  0.532000, -2.803930
  0.534000, -2.811550
  0.536000, -2.833450
  0.538000, -2.863890
  0.540000, -2.891250
  0.542000, -2.921050
  0.544000, -2.928930
  0.546000, -2.919710
  0.548000, -2.884330
  0.550000, -2.825670
  0.552000, -2.747560
  0.554000, -2.665220
  0.556000, -2.583670
  0.558000, -2.509550
  0.560000, -2.455500
  0.562000, -2.421280
  0.564000, -2.404790
  0.566000, -2.406880
  0.568000, -2.425530
  0.570000, -2.450220
  0.572000, -2.465970
  0.574000, -2.465520
  0.576000, -2.454590
  0.578000, -2.414590
  0.580000, -2.360780
  0.582000, -2.307300
  0.584000, -2.240320
  0.586000, -2.164160
  0.588000, -2.087120
  0.590000, -2.002470
  0.592000, -1.925220
  0.594000, -1.850400
  0.596000, -1.778820
  0.598000, -1.709740
  0.600000, -1.640780
  0.602000, -1.581330
  0.604000, -1.511950
  0.606000, -1.448840
  0.608000, -1.381420
  0.610000, -1.317890
  0.612000, -1.249970
  0.614000, -1.183470
  0.616000, -1.112770
  0.618000, -1.037850
  0.620000, -0.963460
  0.622000, -0.892140
  0.624000, -0.821820
  0.626000, -0.756270
  0.628000, -0.692270
  0.630000, -0.631410
  0.632000, -0.567020
  0.634000, -0.500270
  0.636000, -0.435060
  0.638000, -0.376130
  0.640000, -0.315920
  0.642000, -0.259220
  0.644000, -0.206040
  0.646000, -0.151930
  0.648000, -0.109160
  0.650000, -0.077560
  0.652000, -0.047010
  0.654000, -0.026140
  0.656000, -0.010390
  0.658000,  0.015110
  0.660000,  0.031780
  0.662000,  0.046210
  0.664000,  0.060890
  0.666000,  0.079420
  0.668000,  0.092510
  0.670000,  0.111410
  0.672000,  0.131620
  0.674000,  0.140620
  0.676000,  0.157410
  0.678000,  0.171180
  0.680000,  0.185430
  0.682000,  0.201670
  0.684000,  0.216540
  0.686000,  0.238200
  0.688000,  0.259750
  0.690000,  0.279580
  0.692000,  0.294820
  0.694000,  0.310360
  0.696000,  0.325650
  0.698000,  0.335670
  0.700000,  0.340150
  0.702000,  0.346340
  0.704000,  0.341240
  0.706000,  0.330560
  0.708000,  0.311910
  0.710000,  0.291790
  0.712000,  0.267400
  0.714000,  0.241500
  0.716000,  0.214490
  0.718000,  0.188060
  0.720000,  0.161220
  0.722000,  0.132780
  0.724000,  0.105820
  0.726000,  0.067830
  0.728000,  0.034280
  0.730000, -0.000120
  0.732000, -0.029540
  0.734000, -0.066930
  0.736000, -0.096900
  0.738000, -0.119810
  0.740000, -0.135690
  0.742000, -0.147050
  0.744000, -0.154630
  0.746000, -0.150690
  0.748000, -0.138900
  0.750000, -0.129330
  0.752000, -0.111760
  0.754000, -0.098350
  0.756000, -0.084020
  0.758000, -0.079500
  0.760000, -0.074810
  0.762000, -0.073060
  0.764000, -0.082570
  0.766000, -0.089480
  0.768000, -0.099190
  0.770000, -0.109150
  0.772000, -0.113970
  0.774000, -0.113230
  0.776000, -0.107190
  0.778000, -0.098610
  0.780000, -0.097160
  0.782000, -0.085240
  0.784000, -0.071240
  0.786000, -0.058050
  0.788000, -0.046580
  0.790000, -0.039160
  0.792000, -0.032900
  0.794000, -0.030090
  0.796000, -0.020550
  0.798000, -0.019250
  0.800000, -0.010080
  0.802000, -0.006530
  0.804000, -0.002550
  0.806000,  0.004550
  0.808000,  0.007160
  0.810000,  0.011300
  0.812000,  0.015390
  0.814000,  0.011850
  0.816000,  0.006110
  0.818000, -0.002780
  0.820000, -0.016230
  0.822000, -0.019850
  0.824000, -0.029920
  0.826000, -0.030230
  0.828000, -0.025550
  0.830000, -0.013620
  0.832000,  0.001670
  0.834000,  0.016310
  0.836000,  0.037370
  0.838000,  0.062500
  0.840000,  0.079990
  0.842000,  0.095690
  0.844000,  0.108230
  0.846000,  0.113660
  0.848000,  0.114570
  0.850000,  0.101230
  0.852000,  0.078310
  0.854000,  0.058490
  0.856000,  0.037520
  0.858000,  0.018220
  0.860000, -0.002280
  0.862000, -0.013780
  0.864000, -0.009310
  0.866000, -0.000250
  0.868000,  0.021380
  0.870000,  0.046900
  0.872000,  0.079390
  0.874000,  0.114180
  0.876000,  0.150430
  0.878000,  0.177290
  0.880000,  0.199550
  0.882000,  0.215310
  0.884000,  0.222690
  0.886000,  0.221110
  0.888000,  0.216870
  0.890000,  0.202690
  0.892000,  0.189380
  0.894000,  0.171310
  0.896000,  0.157270
  0.898000,  0.143760
  0.900000,  0.131130
  0.902000,  0.110770
  0.904000,  0.094660
  0.906000,  0.081030
  0.908000,  0.059300
  0.910000,  0.036930
  0.912000,  0.018760
  0.914000, -0.003790
  0.916000, -0.024890
  0.918000, -0.043160
  0.920000, -0.064190
  0.922000, -0.076430
  0.924000, -0.085680
  0.926000, -0.085200
  0.928000, -0.080210
  0.930000, -0.066660
  0.932000, -0.050980
  0.934000, -0.033930
  0.936000, -0.016860
  0.938000, -0.001360
  0.940000,  0.011810
  0.942000,  0.024630
  0.944000,  0.033000
  0.946000,  0.038490
  0.948000,  0.040340
  0.950000,  0.038070
  0.952000,  0.026280
  0.954000,  0.018620
  0.956000, -0.000230
  0.958000, -0.024860
  0.960000, -0.039220
  0.962000, -0.059760
  0.964000, -0.078850
  0.966000, -0.099420
  0.968000, -0.109250
  0.970000, -0.117550
  0.972000, -0.113460
  0.974000, -0.106420
  0.976000, -0.090640
  0.978000, -0.068090
  0.980000, -0.041770
  0.982000, -0.014170
  0.984000,  0.012810
  0.986000,  0.043760
  0.988000,  0.073550
  0.990000,  0.101270
  0.992000,  0.126030
  0.994000,  0.140130
  0.996000,  0.151000
  0.998000,  0.158900
  1.000000,  0.156890
