# z (nm)   (kJ/mol)
  0.058000,254.947650
  0.060000,251.573100
  0.062000,248.686830
  0.064000,246.417860
  0.066000,244.068390
  0.068000,241.913390
  0.070000,239.694590
  0.072000,237.482800
  0.074000,235.213940
  0.076000,232.853320
  0.078000,230.394500
  0.080000,227.815490
  0.082000,225.082560
  0.084000,222.163180
  0.086000,219.052210
  0.088000,215.725900
  0.090000,212.188250
  0.092000,208.434620
  0.094000,204.468960
  0.096000,200.301750
  0.098000,195.954140
  0.100000,191.450580
  0.102000,186.820370
  0.104000,182.093870
  0.106000,177.318490
  0.108000,172.530640
  0.110000,167.772160
  0.112000,163.075820
  0.114000,158.471800
  0.116000,153.967470
  0.118000,149.549390
  0.120000,145.207190
  0.122000,140.911080
  0.124000,136.637210
  0.126000,132.386650
  0.128000,128.175100
  0.130000,124.034410
  0.132000,119.983680
  0.134000,116.023720
  0.136000,112.123400
  0.138000,108.239090
  0.140000,104.336420
  0.142000,100.413740
  0.144000, 96.484530
  0.146000, 92.564070
  0.148000, 88.661740
  0.150000, 84.777250
  0.152000, 80.921190
  0.154000, 77.119660
  0.156000, 73.422230
  0.158000, 69.847360
  0.160000, 66.373060
  0.162000, 62.944370
  0.164000, 59.509050
  0.166000, 56.054820
  0.168000, 52.598820
  0.170000, 49.189750
  0.172000, 45.871570
  0.174000, 42.639770
  0.176000, 39.499880
  0.178000, 36.441740
  0.180000, 33.444470
  0.182000, 30.513960
  0.184000, 27.655270
  0.186000, 24.886720
  0.188000, 22.197040
  0.190000, 19.572400
  0.192000, 16.990060
  0.194000, 14.424000
  0.196000, 11.873820
  0.198000,  9.354370
  0.200000,  6.897160
  0.202000,  4.526710
  0.204000,  2.258580
  0.206000,  0.082980
  0.208000, -2.023840
  0.210000, -4.084640
  0.212000, -6.105850
  0.214000, -8.088880
  0.216000,-10.024600
  0.218000,-11.906450
  0.220000,-13.737060
  0.222000,-15.492650
  0.224000,-17.175500
  0.226000,-18.794490
  0.228000,-20.344230
  0.230000,-21.832000
  0.232000,-23.281190
  0.234000,-24.688210
  0.236000,-26.059200
  0.238000,-27.396000
  0.240000,-28.696890
  0.242000,-29.940680
  0.244000,-31.128210
  0.246000,-32.254650
  0.248000,-33.307590
  0.250000,-34.288580
  0.252000,-35.215350
  0.254000,-36.098160
  0.256000,-36.950680
  0.258000,-37.784800
  0.260000,-38.596840
  0.262000,-39.379860
  0.264000,-40.134790
  0.266000,-40.820440
  0.268000,-41.440500
  0.270000,-42.000830
  0.272000,-42.496890
  0.274000,-42.950090
  0.276000,-43.358640
  0.278000,-43.733440
  0.280000,-44.082640
  0.282000,-44.403250
  0.284000,-44.710730
  0.286000,-44.989090
  0.288000,-45.229890
  0.290000,-45.429410
  0.292000,-45.567660
  0.294000,-45.626070
  0.296000,-45.616830
  0.298000,-45.559860
  0.300000,-45.473710
  0.302000,-45.391640
  0.304000,-45.337160
  0.306000,-45.292920
  0.308000,-45.221250
  0.310000,-45.075600
  0.312000,-44.844590
  0.314000,-44.524760
  0.316000,-44.185830
  0.318000,-43.856630
  0.320000,-43.571810
  0.322000,-43.344530
  0.324000,-43.146830
  0.326000,-42.943850
  0.328000,-42.709720
  0.330000,-42.420710
  0.332000,-42.084580
  0.334000,-41.723930
  0.336000,-41.345400
  0.338000,-40.950270
  0.340000,-40.556690
  0.342000,-40.182880
  0.344000,-39.836830
  0.346000,-39.510660
  0.348000,-39.193070
  0.350000,-38.850740
  0.352000,-38.444680
  0.354000,-37.951530
  0.356000,-37.381490
  0.358000,-36.760140
  0.360000,-36.120380
  0.362000,-35.473920
  0.364000,-34.839380
  0.366000,-34.201450
  0.368000,-33.540950
  0.370000,-32.838840
  0.372000,-32.079090
  0.374000,-31.254870
  0.376000,-30.378270
  0.378000,-29.452720
  0.380000,-28.519810
  0.382000,-27.583920
  0.384000,-26.648080
  0.386000,-25.720590
  0.388000,-24.799440
  0.390000,-23.881120
  0.392000,-22.975340
  0.394000,-22.087980
  0.396000,-21.217940
  0.398000,-20.386320
  0.400000,-19.592170
  0.402000,-18.853360
  0.404000,-18.162460
  0.406000,-17.524080
  0.408000,-16.931600
  0.410000,-16.375120
  0.412000,-15.845370
  0.414000,-15.355480
  0.416000,-14.892990
  0.418000,-14.471940
  0.420000,-14.089570
  0.422000,-13.751410
  0.424000,-13.450750
  0.426000,-13.177470
  0.428000,-12.936370
  0.430000,-12.705200
  0.432000,-12.475720
  0.434000,-12.244080
  0.436000,-12.008980
  0.438000,-11.756770
  0.440000,-11.509560
  0.442000,-11.261600
  0.444000,-11.019160
  0.446000,-10.798280
  0.448000,-10.573900
  0.450000,-10.349860
  0.452000,-10.110060
  0.454000, -9.847580
  0.456000, -9.551710
  0.458000, -9.240630
  0.460000, -8.902410
  0.462000, -8.548010
  0.464000, -8.179540
  0.466000, -7.813600
  0.468000, -7.454340
  0.470000, -7.104050
  0.472000, -6.769850
  0.474000, -6.444270
  0.476000, -6.130510
  0.478000, -5.824840
  0.480000, -5.521400
  0.482000, -5.237050
  0.484000, -4.958930
  0.486000, -4.704910
  0.488000, -4.468720
  0.490000, -4.252890
  0.492000, -4.038150
  0.494000, -3.820130
  0.496000, -3.586090
  0.498000, -3.338250
  0.500000, -3.070640
  0.502000, -2.788950
  0.504000, -2.500190
  0.506000, -2.230920
  0.508000, -1.987090
  0.510000, -1.772320
  0.512000, -1.587330
  0.514000, -1.409480
  0.516000, -1.222340
  0.518000, -1.023660
  0.520000, -0.800070
  0.522000, -0.563610
  0.524000, -0.336340
  0.526000, -0.129790
  0.528000,  0.028650
  0.530000,  0.136340
  0.532000,  0.189350
  0.534000,  0.188380
  0.536000,  0.152060
  0.538000,  0.080760
  0.540000, -0.006490
  0.542000, -0.110960
  0.544000, -0.214450
  0.546000, -0.304440
  0.548000, -0.389870
  0.550000, -0.464560
  0.552000, -0.538000
  0.554000, -0.617850
  0.556000, -0.699960
  0.558000, -0.805520
  0.560000, -0.928450
  0.562000, -1.069740
  0.564000, -1.230180
  0.566000, -1.386970
  0.568000, -1.527590
  0.570000, -1.641110
  0.572000, -1.730380
  0.574000, -1.798540
  0.576000, -1.845130
  0.578000, -1.880720
  0.580000, -1.917010
  0.582000, -1.963040
  0.584000, -2.010120
  0.586000, -2.058830
  0.588000, -2.109060
  0.590000, -2.150330
  0.592000, -2.196750
  0.594000, -2.246170
  0.596000, -2.301180
  0.598000, -2.368680
  0.600000, -2.433110
  0.602000, -2.503190
  0.604000, -2.576790
  0.606000, -2.646090
  0.608000, -2.696550
  0.610000, -2.730500
  0.612000, -2.747560
  0.614000, -2.743820
  0.616000, -2.728390
  0.618000, -2.703530
  0.620000, -2.679260
  0.622000, -2.675690
  0.624000, -2.690420
  0.626000, -2.718500
  0.628000, -2.762710
  0.630000, -2.815620
  0.632000, -2.864300
  0.634000, -2.898820
  0.636000, -2.907480
  0.638000, -2.885530
  0.640000, -2.834160
  0.642000, -2.768380
  0.644000, -2.682750
  0.646000, -2.595210
  0.648000, -2.511620
  0.650000, -2.432930
  0.652000, -2.367220
  0.654000, -2.313590
  0.656000, -2.272890
  0.658000, -2.232300
  0.660000, -2.197200
  0.662000, -2.156370
  0.664000, -2.105530
  0.666000, -2.043040
  0.668000, -1.973670
  0.670000, -1.903700
  0.672000, -1.834270
  0.674000, -1.775780
  0.676000, -1.722610
  0.678000, -1.667380
  0.680000, -1.616730
  0.682000, -1.564830
  0.684000, -1.509390
  0.686000, -1.456190
  0.688000, -1.394230
  0.690000, -1.330880
  0.692000, -1.266950
  0.694000, -1.206500
  0.696000, -1.149650
  0.698000, -1.086720
  0.700000, -1.027170
  0.702000, -0.971130
  0.704000, -0.906800
  0.706000, -0.839360
  0.708000, -0.773060
  0.710000, -0.709150
  0.712000, -0.650110
  0.714000, -0.603140
  0.716000, -0.553790
  0.718000, -0.505050
  0.720000, -0.436760
  0.722000, -0.353070
  0.724000, -0.252720
  0.726000, -0.140400
  0.728000, -0.039100
  0.730000,  0.050880
  0.732000,  0.115800
  0.734000,  0.155290
  0.736000,  0.159980
  0.738000,  0.143780
  0.740000,  0.118530
  0.742000,  0.102910
  0.744000,  0.117820
  0.746000,  0.162420
  0.748000,  0.232600
  0.750000,  0.313530
  0.752000,  0.391890
  0.754000,  0.457430
  0.756000,  0.494030
  0.758000,  0.508700
  0.760000,  0.513860
  0.762000,  0.516400
  0.764000,  0.524320
  0.766000,  0.537070
  0.768000,  0.559640
  0.770000,  0.587060
  0.772000,  0.624340
  0.774000,  0.658960
  0.776000,  0.705000
  0.778000,  0.745930
  0.780000,  0.784440
  0.782000,  0.821310
  0.784000,  0.846620
  0.786000,  0.859040
  0.788000,  0.868520
  0.790000,  0.873130
  0.792000,  0.881170
  0.794000,  0.894310
  0.796000,  0.900370
  0.798000,  0.902800
  0.800000,  0.891970
  0.802000,  0.865600
  0.804000,  0.830330
  0.806000,  0.789400
  0.808000,  0.752580
  0.810000,  0.721090
  0.812000,  0.702550
  0.814000,  0.694550
  0.816000,  0.688110
  0.818000,  0.683980
  0.820000,  0.681730
  0.822000,  0.675800
  0.824000,  0.660150
  0.826000,  0.644470
  0.828000,  0.619700
  0.830000,  0.584680
  0.832000,  0.544230
  0.834000,  0.499320
  0.836000,  0.457100
  0.838000,  0.414620
  0.840000,  0.369800
  0.842000,  0.337840
  0.844000,  0.320510
  0.846000,  0.302630
  0.848000,  0.298040
  0.850000,  0.292570
  0.852000,  0.290520
  0.854000,  0.283550
  0.856000,  0.264020
  0.858000,  0.234420
  0.860000,  0.193300
  0.862000,  0.152550
  0.864000,  0.109650
  0.866000,  0.062820
  0.868000,  0.025970
  0.870000,  0.003870
  0.872000, -0.011650
  0.874000, -0.026000
  0.876000, -0.023600
  0.878000, -0.012220
  0.880000,  0.007070
  0.882000,  0.034120
  0.884000,  0.053680
  0.886000,  0.076880
  0.888000,  0.089990
  0.890000,  0.093900
  0.892000,  0.090450
  0.894000,  0.078280
  0.896000,  0.064910
  0.898000,  0.044390
  0.900000,  0.018370
  0.902000, -0.007340
  0.904000, -0.031000
  0.906000, -0.053070
  0.908000, -0.073650
  0.910000, -0.090970
  0.912000, -0.099170
  0.914000, -0.100630
  0.916000, -0.089760
  0.918000, -0.080690
  0.920000, -0.061630
  0.922000, -0.042340
  0.924000, -0.027920
  0.926000, -0.018390
  0.928000, -0.015460
  0.930000, -0.021230
  0.932000, -0.027440
  0.934000, -0.034580
  0.936000, -0.038250
  0.938000, -0.035390
  0.940000, -0.028730
  0.942000, -0.019200
  0.944000, -0.000180
  0.946000,  0.020390
  0.948000,  0.039050
  0.950000,  0.062530
  0.952000,  0.084860
  0.954000,  0.106110
  0.956000,  0.116040
  0.958000,  0.123310
  0.960000,  0.109400
  0.962000,  0.097340
  0.964000,  0.074200
  0.966000,  0.033810
  0.968000, -0.007340
  0.970000, -0.050550
  0.972000, -0.091470
  0.974000, -0.127200
  0.976000, -0.147020
  0.978000, -0.141210
  0.980000, -0.124500
  0.982000, -0.094630
  0.984000, -0.048240
  0.986000,  0.008910
  0.988000,  0.064350
  0.990000,  0.112010
  0.992000,  0.148110
  0.994000,  0.166630
  0.996000,  0.171030
  0.998000,  0.156820
  1.000000,  0.134290
