# z (nm)   (kJ/mol)
  0.096000,269.070170
  0.098000,266.399350
  0.100000,264.172210
  0.102000,261.878830
  0.104000,259.514510
  0.106000,257.262600
  0.108000,254.972990
  0.110000,252.628010
  0.112000,250.215330
  0.114000,247.740710
  0.116000,245.155320
  0.118000,242.446030
  0.120000,239.567590
  0.122000,236.522920
  0.124000,233.293760
  0.126000,229.868840
  0.128000,226.257610
  0.130000,222.465730
  0.132000,218.507990
  0.134000,214.403750
  0.136000,210.161670
  0.138000,205.787090
  0.140000,201.283400
  0.142000,196.650850
  0.144000,191.899300
  0.146000,187.042710
  0.148000,182.120670
  0.150000,177.184140
  0.152000,172.293590
  0.154000,167.514940
  0.156000,162.884320
  0.158000,158.428060
  0.160000,154.143700
  0.162000,150.012700
  0.164000,146.010880
  0.166000,142.126580
  0.168000,138.337600
  0.170000,134.637310
  0.172000,130.994730
  0.174000,127.400100
  0.176000,123.817560
  0.178000,120.227510
  0.180000,116.615220
  0.182000,112.996990
  0.184000,109.410490
  0.186000,105.910810
  0.188000,102.536240
  0.190000, 99.315200
  0.192000, 96.234150
  0.194000, 93.247270
  0.196000, 90.298630
  0.198000, 87.326800
  0.200000, 84.308380
  0.202000, 81.248190
  0.204000, 78.191370
  0.206000, 75.182780
  0.208000, 72.259100
  0.210000, 69.452080
  0.212000, 66.757530
  0.214000, 64.160750
  0.216000, 61.619660
  0.218000, 59.094320
  0.220000, 56.585980
  0.222000, 54.093130
  0.224000, 51.661750
  0.226000, 49.330850
  0.228000, 47.105220
  0.230000, 44.973030
  0.232000, 42.906720
  0.234000, 40.875190
  0.236000, 38.860250
  0.238000, 36.864540
  0.240000, 34.905310
  0.242000, 32.998770
  0.244000, 31.157420
  0.246000, 29.411850
  0.248000, 27.751390
  0.250000, 26.180550
  0.252000, 24.667950
  0.254000, 23.213560
  0.256000, 21.790540
  0.258000, 20.405590
  0.260000, 19.059000
  0.262000, 17.769950
  0.264000, 16.541890
  0.266000, 15.378050
  0.268000, 14.276980
  0.270000, 13.229970
  0.272000, 12.232790
  0.274000, 11.286430
  0.276000, 10.374430
  0.278000,  9.509970
  0.280000,  8.691250
  0.282000,  7.925830
  0.284000,  7.234770
  0.286000,  6.617640
  0.288000,  6.078690
  0.290000,  5.603070
  0.292000,  5.176960
  0.294000,  4.778560
  0.296000,  4.399540
  0.298000,  4.025170
  0.300000,  3.670060
  0.302000,  3.315780
  0.304000,  3.003390
  0.306000,  2.735010
  0.308000,  2.521710
  0.310000,  2.362530
  0.312000,  2.264760
  0.314000,  2.193890
  0.316000,  2.148390
  0.318000,  2.099510
  0.320000,  2.042360
  0.322000,  1.965090
  0.324000,  1.868170
  0.326000,  1.765650
  0.328000,  1.665000
  0.330000,  1.565840
  0.332000,  1.473140
  0.334000,  1.399740
  0.336000,  1.339380
  0.338000,  1.286630
  0.340000,  1.231190
  0.342000,  1.170380
  0.344000,  1.098140
  0.346000,  1.006310
  0.348000,  0.893350
  0.350000,  0.742730
  0.352000,  0.563450
  0.354000,  0.369100
  0.356000,  0.163120
  0.358000, -0.042470
  0.360000, -0.249430
  0.362000, -0.463750
  0.364000, -0.688790
  0.366000, -0.919820
  0.368000, -1.159030
  0.370000, -1.407020
  0.372000, -1.658700
  0.374000, -1.915710
  0.376000, -2.176660
  0.378000, -2.426280
  0.380000, -2.673190
  0.382000, -2.915390
  0.384000, -3.153090
  0.386000, -3.385620
  0.388000, -3.631320
  0.390000, -3.869790
  0.392000, -4.111780
  0.394000, -4.350060
  0.396000, -4.571060
  0.398000, -4.775230
  0.400000, -4.953800
  0.402000, -5.112400
  0.404000, -5.243630
  0.406000, -5.349270
  0.408000, -5.432800
  0.410000, -5.500090
  0.412000, -5.558400
  0.414000, -5.605420
  0.416000, -5.639200
  0.418000, -5.680140
  0.420000, -5.705420
  0.422000, -5.717090
  0.424000, -5.726370
  0.426000, -5.725850
  0.428000, -5.714970
  0.430000, -5.687380
  0.432000, -5.642990
  0.434000, -5.589500
  0.436000, -5.528820
  0.438000, -5.460050
  0.440000, -5.392920
  0.442000, -5.321790
  0.444000, -5.254690
  0.446000, -5.185550
  0.448000, -5.112350
  0.450000, -5.034820
  0.452000, -4.950780
  0.454000, -4.851170
  0.456000, -4.764080
  0.458000, -4.661080
  0.460000, -4.550660
  0.462000, -4.434870
  0.464000, -4.303560
  0.466000, -4.161340
  0.468000, -3.999630
  0.470000, -3.831330
  0.472000, -3.648060
  0.474000, -3.466750
  0.476000, -3.292520
  0.478000, -3.134370
  0.480000, -2.994350
  0.482000, -2.875870
  0.484000, -2.775600
  0.486000, -2.693720
  0.488000, -2.620840
  0.490000, -2.547700
  0.492000, -2.473660
  0.494000, -2.391790
  0.496000, -2.299700
  0.498000, -2.197620
  0.500000, -2.093740
  0.502000, -1.994830
  0.504000, -1.913750
  0.506000, -1.860190
  0.508000, -1.834980
  0.510000, -1.834420
  0.512000, -1.860850
  0.514000, -1.922330
  0.516000, -1.997350
  0.518000, -2.086360
  0.520000, -2.174710
  0.522000, -2.266470
  0.524000, -2.345380
  0.526000, -2.407040
  0.528000, -2.463900
  0.530000, -2.519270
  0.532000, -2.568530
  0.534000, -2.607570
  0.536000, -2.655270
  0.538000, -2.703450
  0.540000, -2.757450
  0.542000, -2.808460
  0.544000, -2.857740
  0.546000, -2.913160
  0.548000, -2.963990
  0.550000, -3.001150
  0.552000, -3.024090
  0.554000, -3.043100
  0.556000, -3.056340
  0.558000, -3.082340
  0.560000, -3.111110
  0.562000, -3.150870
  0.564000, -3.201520
  0.566000, -3.247810
  0.568000, -3.287840
  0.570000, -3.324290
  0.572000, -3.348100
  0.574000, -3.365190
  0.576000, -3.383830
  0.578000, -3.396490
  0.580000, -3.416630
  0.582000, -3.442830
  0.584000, -3.470300
  0.586000, -3.494990
  0.588000, -3.504740
  0.590000, -3.510520
  0.592000, -3.499300
  0.594000, -3.473150
  0.596000, -3.435540
  0.598000, -3.395950
  0.600000, -3.370250
  0.602000, -3.356460
  0.604000, -3.356540
  0.606000, -3.367570
  0.608000, -3.389730
  0.610000, -3.401950
  0.612000, -3.403670
  0.614000, -3.388110
  0.616000, -3.355520
  0.618000, -3.298940
  0.620000, -3.235130
  0.622000, -3.160580
  0.624000, -3.089710
  0.626000, -3.028450
  0.628000, -2.978770
  0.630000, -2.946610
  0.632000, -2.917580
  0.634000, -2.888190
  0.636000, -2.855060
  0.638000, -2.821920
  0.640000, -2.770160
  0.642000, -2.721330
  0.644000, -2.660740
  0.646000, -2.595740
  0.648000, -2.526840
  0.650000, -2.461670
  0.652000, -2.410010
  0.654000, -2.371250
  0.656000, -2.343910
  0.658000, -2.336470
  0.660000, -2.332460
  0.662000, -2.326070
  0.664000, -2.313230
  0.666000, -2.289800
  0.668000, -2.246080
  0.670000, -2.181760
  0.672000, -2.116480
  0.674000, -2.040760
  0.676000, -1.970640
  0.678000, -1.894490
  0.680000, -1.826360
  0.682000, -1.764600
  0.684000, -1.717580
  0.686000, -1.684210
  0.688000, -1.650140
  0.690000, -1.628370
  0.692000, -1.605110
  0.694000, -1.579940
  0.696000, -1.538270
  0.698000, -1.500350
  0.700000, -1.458940
  0.702000, -1.416260
  0.704000, -1.364670
  0.706000, -1.314090
  0.708000, -1.270590
  0.710000, -1.220240
  0.712000, -1.168880
  0.714000, -1.110960
  0.716000, -1.052620
  0.718000, -0.990110
  0.720000, -0.925250
  0.722000, -0.882770
  0.724000, -0.844550
  0.726000, -0.813830
  0.728000, -0.785820
  0.730000, -0.763870
  0.732000, -0.740970
  0.734000, -0.714820
  0.736000, -0.686000
  0.738000, -0.653740
  0.740000, -0.616040
  0.742000, -0.581120
  0.744000, -0.543120
  0.746000, -0.511980
  0.748000, -0.468160
  0.750000, -0.428580
  0.752000, -0.387240
  0.754000, -0.342740
  0.756000, -0.291960
  0.758000, -0.241770
  0.760000, -0.194130
  0.762000, -0.149700
  0.764000, -0.109320
  0.766000, -0.079630
  0.768000, -0.050240
  0.770000, -0.027420
  0.772000, -0.003500
  0.774000,  0.016670
  0.776000,  0.041710
  0.778000,  0.077780
  0.780000,  0.115910
  0.782000,  0.163970
  0.784000,  0.218470
  0.786000,  0.284560
  0.788000,  0.341040
  0.790000,  0.409670
  0.792000,  0.466630
  0.794000,  0.518400
  0.796000,  0.560590
  0.798000,  0.589770
  0.800000,  0.614930
  0.802000,  0.625390
  0.804000,  0.629890
  0.806000,  0.627010
  0.808000,  0.624220
  0.810000,  0.616940
  0.812000,  0.614510
  0.814000,  0.607750
  0.816000,  0.607450
  0.818000,  0.609280
  0.820000,  0.606480
  0.822000,  0.600840
  0.824000,  0.599100
  0.826000,  0.589530
  0.828000,  0.578790
  0.830000,  0.574290
  0.832000,  0.558160
  0.834000,  0.547930
  0.836000,  0.538750
  0.838000,  0.520000
  0.840000,  0.502510
  0.842000,  0.486320
  0.844000,  0.472590
  0.846000,  0.458990
  0.848000,  0.456800
  0.850000,  0.457880
  0.852000,  0.463170
  0.854000,  0.473860
  0.856000,  0.484490
  0.858000,  0.502030
  0.860000,  0.519790
  0.862000,  0.533750
  0.864000,  0.531060
  0.866000,  0.523230
  0.868000,  0.510960
  0.870000,  0.487960
  0.872000,  0.462790
  0.874000,  0.435740
  0.876000,  0.412880
  0.878000,  0.385020
  0.880000,  0.360410
  0.882000,  0.332510
  0.884000,  0.308570
  0.886000,  0.290710
  0.888000,  0.275170
  0.890000,  0.263500
  0.892000,  0.252990
  0.894000,  0.246020
  0.896000,  0.235230
  0.898000,  0.222720
  0.900000,  0.207670
  0.902000,  0.192130
  0.904000,  0.167910
  0.906000,  0.138250
  0.908000,  0.105600
  0.910000,  0.073890
  0.912000,  0.045070
  0.914000,  0.026990
  0.916000,  0.019900
  0.918000,  0.014780
  0.920000,  0.025990
  0.922000,  0.035960
  0.924000,  0.050860
  0.926000,  0.058960
  0.928000,  0.072960
  0.930000,  0.067670
  0.932000,  0.057830
  0.934000,  0.045360
  0.936000,  0.022200
  0.938000, -0.004350
  0.940000, -0.031700
  0.942000, -0.048620
  0.944000, -0.063510
  0.946000, -0.080160
  0.948000, -0.083310
  0.950000, -0.086060
  0.952000, -0.084620
  0.954000, -0.076470
  0.956000, -0.067270
  0.958000, -0.054350
  0.960000, -0.042030
  0.962000, -0.030510
  0.964000, -0.021880
  0.966000, -0.017420
  0.968000, -0.016480
  0.970000, -0.011650
  0.972000, -0.017970
  0.974000, -0.020350
  0.976000, -0.030750
  0.978000, -0.033280
  0.980000, -0.045360
  0.982000, -0.056470
  0.984000, -0.063920
  0.986000, -0.072870
  0.988000, -0.071350
  0.990000, -0.060880
  0.992000, -0.037850
  0.994000, -0.014650
  0.996000,  0.008650
  0.998000,  0.041280
  1.000000,  0.073830
