# z (nm)   (kJ/mol)
  0.118000,275.360690
  0.120000,272.163960
  0.122000,269.568520
  0.124000,267.167330
  0.126000,264.827210
  0.128000,262.450700
  0.130000,260.042220
  0.132000,257.595320
  0.134000,255.075210
  0.136000,252.449620
  0.138000,249.699630
  0.140000,246.808760
  0.142000,243.753360
  0.144000,240.524590
  0.146000,237.112380
  0.148000,233.531240
  0.150000,229.791090
  0.152000,225.910630
  0.154000,221.918470
  0.156000,217.833990
  0.158000,213.676030
  0.160000,209.464960
  0.162000,205.219890
  0.164000,200.950640
  0.166000,196.675000
  0.168000,192.404340
  0.170000,188.156110
  0.172000,183.942500
  0.174000,179.769890
  0.176000,175.663330
  0.178000,171.618990
  0.180000,167.654700
  0.182000,163.767890
  0.184000,159.961260
  0.186000,156.233970
  0.188000,152.581980
  0.190000,149.004260
  0.192000,145.491740
  0.194000,142.055440
  0.196000,138.707860
  0.198000,135.463760
  0.200000,132.324990
  0.202000,129.284420
  0.204000,126.316230
  0.206000,123.395310
  0.208000,120.507850
  0.210000,117.631330
  0.212000,114.756770
  0.214000,111.878360
  0.216000,108.991890
  0.218000,106.099090
  0.220000,103.204670
  0.222000,100.304300
  0.224000, 97.408840
  0.226000, 94.554180
  0.228000, 91.763760
  0.230000, 89.082560
  0.232000, 86.552090
  0.234000, 84.186800
  0.236000, 81.980190
  0.238000, 79.885240
  0.240000, 77.863550
  0.242000, 75.847530
  0.244000, 73.797630
  0.246000, 71.693070
  0.248000, 69.535440
  0.250000, 67.338560
  0.252000, 65.144000
  0.254000, 62.982910
  0.256000, 60.901520
  0.258000, 58.913130
  0.260000, 57.036500
  0.262000, 55.258080
  0.264000, 53.571100
  0.266000, 51.939830
  0.268000, 50.345260
  0.270000, 48.764070
  0.272000, 47.182150
  0.274000, 45.602970
  0.276000, 44.025640
  0.278000, 42.472510
  0.280000, 40.957240
  0.282000, 39.488470
  0.284000, 38.076550
  0.286000, 36.702040
  0.288000, 35.368480
  0.290000, 34.060470
  0.292000, 32.779600
  0.294000, 31.517130
  0.296000, 30.288380
  0.298000, 29.100450
  0.300000, 27.959570
  0.302000, 26.871180
  0.304000, 25.834480
  0.306000, 24.842280
  0.308000, 23.873440
  0.310000, 22.922090
  0.312000, 21.980220
  0.314000, 21.041740
  0.316000, 20.098760
  0.318000, 19.176080
  0.320000, 18.283870
  0.322000, 17.441600
  0.324000, 16.660310
  0.326000, 15.939380
  0.328000, 15.262680
  0.330000, 14.628380
  0.332000, 14.012290
  0.334000, 13.386450
  0.336000, 12.746030
  0.338000, 12.095130
  0.340000, 11.431260
  0.342000, 10.779020
  0.344000, 10.136500
  0.346000,  9.526900
  0.348000,  8.960750
  0.350000,  8.439050
  0.352000,  7.964430
  0.354000,  7.524100
  0.356000,  7.100350
  0.358000,  6.688250
  0.360000,  6.280150
  0.362000,  5.862690
  0.364000,  5.445730
  0.366000,  5.028030
  0.368000,  4.617060
  0.370000,  4.210520
  0.372000,  3.831760
  0.374000,  3.467270
  0.376000,  3.118380
  0.378000,  2.782710
  0.380000,  2.461700
  0.382000,  2.148810
  0.384000,  1.848610
  0.386000,  1.566520
  0.388000,  1.301330
  0.390000,  1.061480
  0.392000,  0.826470
  0.394000,  0.612020
  0.396000,  0.405500
  0.398000,  0.203210
  0.400000,  0.004590
  0.402000, -0.192070
  0.404000, -0.387420
  0.406000, -0.569390
  0.408000, -0.743550
  0.410000, -0.905430
  0.412000, -1.050360
  0.414000, -1.176220
  0.416000, -1.282840
  0.418000, -1.382650
  0.420000, -1.472870
  0.422000, -1.556610
  0.424000, -1.637960
  0.426000, -1.721380
  0.428000, -1.810330
  0.430000, -1.906160
  0.432000, -1.990730
  0.434000, -2.068260
  0.436000, -2.126980
  0.438000, -2.173550
  0.440000, -2.200300
  0.442000, -2.205840
  0.444000, -2.210880
  0.446000, -2.204120
  0.448000, -2.196320
  0.450000, -2.193550
  0.452000, -2.210380
  0.454000, -2.229100
  0.456000, -2.254630
  0.458000, -2.276630
  0.460000, -2.293210
  0.462000, -2.304720
  0.464000, -2.299880
  0.466000, -2.283350
  0.468000, -2.259990
  0.470000, -2.232190
  0.472000, -2.202690
  0.474000, -2.177430
  0.476000, -2.153910
  0.478000, -2.133150
  0.480000, -2.120450
  0.482000, -2.107490
  0.484000, -2.102830
  0.486000, -2.097780
  0.488000, -2.097850
  0.490000, -2.099040
  0.492000, -2.101020
  0.494000, -2.112030
  0.496000, -2.117640
  0.498000, -2.113110
  0.500000, -2.106530
  0.502000, -2.082240
  0.504000, -2.047650
  0.506000, -1.996300
  0.508000, -1.934380
  0.510000, -1.866150
  0.512000, -1.798220
  0.514000, -1.740350
  0.516000, -1.689340
  0.518000, -1.638000
  0.520000, -1.603240
  0.522000, -1.569780
  0.524000, -1.550120
  0.526000, -1.526380
  0.528000, -1.516830
  0.530000, -1.500930
  0.532000, -1.491680
  0.534000, -1.469870
  0.536000, -1.454710
  0.538000, -1.436360
  0.540000, -1.424920
  0.542000, -1.415210
  0.544000, -1.409710
  0.546000, -1.404200
  0.548000, -1.413830
  0.550000, -1.425820
  0.552000, -1.456530
  0.554000, -1.485700
  0.556000, -1.515440
  0.558000, -1.553080
  0.560000, -1.584250
  0.562000, -1.620370
  0.564000, -1.661160
  0.566000, -1.696250
  0.568000, -1.744760
  0.570000, -1.792940
  0.572000, -1.852340
  0.574000, -1.913620
  0.576000, -1.977800
  0.578000, -2.043730
  0.580000, -2.112500
  0.582000, -2.178040
  0.584000, -2.240340
  0.586000, -2.293030
  0.588000, -2.353790
  0.590000, -2.401560
  0.592000, -2.442120
  0.594000, -2.485390
  0.596000, -2.518060
  0.598000, -2.547890
  0.600000, -2.573780
  0.602000, -2.592110
  0.604000, -2.609300
  0.606000, -2.626670
  0.608000, -2.643650
  0.610000, -2.663320
  0.612000, -2.684550
  0.614000, -2.709440
  0.616000, -2.729260
  0.618000, -2.750740
  0.620000, -2.773820
  0.622000, -2.783850
  0.624000, -2.794500
  0.626000, -2.792160
  0.628000, -2.781010
  0.630000, -2.766550
  0.632000, -2.742880
  0.634000, -2.719640
  0.636000, -2.696660
  0.638000, -2.667550
  0.640000, -2.641980
  0.642000, -2.616190
  0.644000, -2.587140
  0.646000, -2.575090
  0.648000, -2.556990
  0.650000, -2.535760
  0.652000, -2.511460
  0.654000, -2.496770
  0.656000, -2.478240
  0.658000, -2.452930
  0.660000, -2.427220
  0.662000, -2.402110
  0.664000, -2.382690
  0.666000, -2.357200
  0.668000, -2.331290
  0.670000, -2.307510
  0.672000, -2.284700
  0.674000, -2.260450
  0.676000, -2.244420
  0.678000, -2.223450
  0.680000, -2.203900
  0.682000, -2.186850
  0.684000, -2.171420
  0.686000, -2.144160
  0.688000, -2.115070
  0.690000, -2.082380
  0.692000, -2.047880
  0.694000, -2.000310
  0.696000, -1.950760
  0.698000, -1.887490
  0.700000, -1.823700
  0.702000, -1.760250
  0.704000, -1.691090
  0.706000, -1.626460
  0.708000, -1.563680
  0.710000, -1.505400
  0.712000, -1.459550
  0.714000, -1.420340
  0.716000, -1.387920
  0.718000, -1.359830
  0.720000, -1.335840
  0.722000, -1.313520
  0.724000, -1.282890
  0.726000, -1.254510
  0.728000, -1.218660
  0.730000, -1.180870
  0.732000, -1.133290
  0.734000, -1.081590
  0.736000, -1.018500
  0.738000, -0.955630
  0.740000, -0.888690
  0.742000, -0.819910
  0.744000, -0.747100
  0.746000, -0.679880
  0.748000, -0.616720
  0.750000, -0.554480
  0.752000, -0.498250
  0.754000, -0.446830
  0.756000, -0.401100
  0.758000, -0.351130
  0.760000, -0.312720
  0.762000, -0.278310
  0.764000, -0.239770
  0.766000, -0.201080
  0.768000, -0.165190
  0.770000, -0.126560
  0.772000, -0.086420
  0.774000, -0.043030
  0.776000,  0.003450
  0.778000,  0.053780
  0.780000,  0.112540
  0.782000,  0.167150
  0.784000,  0.220150
  0.786000,  0.274300
  0.788000,  0.322430
  0.790000,  0.369210
  0.792000,  0.418120
  0.794000,  0.469560
  0.796000,  0.512810
  0.798000,  0.557480
  0.800000,  0.599750
  0.802000,  0.643640
  0.804000,  0.685320
  0.806000,  0.724390
  0.808000,  0.760640
  0.810000,  0.792640
  0.812000,  0.823080
  0.814000,  0.852130
  0.816000,  0.867410
  0.818000,  0.883160
  0.820000,  0.891200
  0.822000,  0.896430
  0.824000,  0.893310
  0.826000,  0.887210
  0.828000,  0.874120
  0.830000,  0.866130
  0.832000,  0.848630
  0.834000,  0.834300
  0.836000,  0.822280
  0.838000,  0.806510
  0.840000,  0.793500
  0.842000,  0.782690
  0.844000,  0.774390
  0.846000,  0.772370
  0.848000,  0.773640
  0.850000,  0.779400
  0.852000,  0.789080
  0.854000,  0.797840
  0.856000,  0.802820
  0.858000,  0.809950
  0.860000,  0.803770
  0.862000,  0.789800
  0.864000,  0.760480
  0.866000,  0.718300
  0.868000,  0.666430
  0.870000,  0.611160
  0.872000,  0.546550
  0.874000,  0.485290
  0.876000,  0.431360
  0.878000,  0.384720
  0.880000,  0.347100
  0.882000,  0.324570
  0.884000,  0.307020
  0.886000,  0.301160
  0.888000,  0.300320
  0.890000,  0.300940
  0.892000,  0.296380
  0.894000,  0.291680
  0.896000,  0.288620
  0.898000,  0.276600
  0.900000,  0.264380
  0.902000,  0.257000
  0.904000,  0.245480
  0.906000,  0.239240
  0.908000,  0.234370
  0.910000,  0.223430
  0.912000,  0.214570
  0.914000,  0.202690
  0.916000,  0.188250
  0.918000,  0.169220
  0.920000,  0.148300
  0.922000,  0.119490
  0.924000,  0.090260
  0.926000,  0.059050
  0.928000,  0.037780
  0.930000,  0.011130
  0.932000, -0.005460
  0.934000, -0.017410
  0.936000, -0.021290
  0.938000, -0.014610
  0.940000, -0.014070
  0.942000, -0.015560
  0.944000, -0.016410
  0.946000, -0.019480
  0.948000, -0.025200
  0.950000, -0.037700
  0.952000, -0.053950
  0.954000, -0.063320
  0.956000, -0.084830
  0.958000, -0.095380
  0.960000, -0.103030
  0.962000, -0.103660
  0.964000, -0.101440
  0.966000, -0.095590
  0.968000, -0.089920
  0.970000, -0.086670
  0.972000, -0.081780
  0.974000, -0.083000
  0.976000, -0.079280
  0.978000, -0.080290
  0.980000, -0.079170
  0.982000, -0.080470
  0.984000, -0.086200
  0.986000, -0.088440
  0.988000, -0.091010
  0.990000, -0.092720
  0.992000, -0.095310
  0.994000, -0.101000
  0.996000, -0.102860
  0.998000, -0.112980
  1.000000, -0.120730
