# z (nm)   (kJ/mol)
  0.128000,279.020270
  0.130000,276.050520
  0.132000,273.827130
  0.134000,271.296690
  0.136000,268.765110
  0.138000,266.359020
  0.140000,263.963230
  0.142000,261.568180
  0.144000,259.150040
  0.146000,256.679440
  0.148000,254.139770
  0.150000,251.499640
  0.152000,248.743490
  0.154000,245.837840
  0.156000,242.765070
  0.158000,239.508760
  0.160000,236.051770
  0.162000,232.382290
  0.164000,228.498570
  0.166000,224.404410
  0.168000,220.133430
  0.170000,215.715120
  0.172000,211.188770
  0.174000,206.605240
  0.176000,202.007040
  0.178000,197.440750
  0.180000,192.934870
  0.182000,188.503460
  0.184000,184.155230
  0.186000,179.897890
  0.188000,175.726220
  0.190000,171.645910
  0.192000,167.667170
  0.194000,163.791460
  0.196000,160.007850
  0.198000,156.311410
  0.200000,152.681220
  0.202000,149.093730
  0.204000,145.543420
  0.206000,142.020930
  0.208000,138.546880
  0.210000,135.137520
  0.212000,131.813260
  0.214000,128.595290
  0.216000,125.487500
  0.218000,122.484550
  0.220000,119.572370
  0.222000,116.714400
  0.224000,113.881610
  0.226000,111.020190
  0.228000,108.104720
  0.230000,105.120770
  0.232000,102.095810
  0.234000, 99.073630
  0.236000, 96.115290
  0.238000, 93.269130
  0.240000, 90.568120
  0.242000, 88.005270
  0.244000, 85.552120
  0.246000, 83.181370
  0.248000, 80.834450
  0.250000, 78.481810
  0.252000, 76.111500
  0.254000, 73.711040
  0.256000, 71.307640
  0.258000, 68.925920
  0.260000, 66.610640
  0.262000, 64.390510
  0.264000, 62.287540
  0.266000, 60.293300
  0.268000, 58.409220
  0.270000, 56.590180
  0.272000, 54.815810
  0.274000, 53.060130
  0.276000, 51.291840
  0.278000, 49.492670
  0.280000, 47.680700
  0.282000, 45.897920
  0.284000, 44.195430
  0.286000, 42.604780
  0.288000, 41.125750
  0.290000, 39.715520
  0.292000, 38.326030
  0.294000, 36.915890
  0.296000, 35.488080
  0.298000, 34.074030
  0.300000, 32.693930
  0.302000, 31.386520
  0.304000, 30.170590
  0.306000, 29.041060
  0.308000, 27.983290
  0.310000, 26.976900
  0.312000, 25.987750
  0.314000, 25.010990
  0.316000, 24.043370
  0.318000, 23.086670
  0.320000, 22.156520
  0.322000, 21.265720
  0.324000, 20.425160
  0.326000, 19.639270
  0.328000, 18.910290
  0.330000, 18.221100
  0.332000, 17.568450
  0.334000, 16.941670
  0.336000, 16.337260
  0.338000, 15.753690
  0.340000, 15.184230
  0.342000, 14.636090
  0.344000, 14.117490
  0.346000, 13.626410
  0.348000, 13.165000
  0.350000, 12.735320
  0.352000, 12.334860
  0.354000, 11.959660
  0.356000, 11.598200
  0.358000, 11.232240
  0.360000, 10.876910
  0.362000, 10.510200
  0.364000, 10.139710
  0.366000,  9.755720
  0.368000,  9.383640
  0.370000,  9.022330
  0.372000,  8.679720
  0.374000,  8.374230
  0.376000,  8.101170
  0.378000,  7.848700
  0.380000,  7.627740
  0.382000,  7.425160
  0.384000,  7.238390
  0.386000,  7.052440
  0.388000,  6.863890
  0.390000,  6.669250
  0.392000,  6.472670
  0.394000,  6.265480
  0.396000,  6.066560
  0.398000,  5.880080
  0.400000,  5.711300
  0.402000,  5.558380
  0.404000,  5.417130
  0.406000,  5.295180
  0.408000,  5.193440
  0.410000,  5.099890
  0.412000,  5.017850
  0.414000,  4.936640
  0.416000,  4.853240
  0.418000,  4.770190
  0.420000,  4.686030
  0.422000,  4.593250
  0.424000,  4.500670
  0.426000,  4.398460
  0.428000,  4.292720
  0.430000,  4.181710
  0.432000,  4.064190
  0.434000,  3.943790
  0.436000,  3.827860
  0.438000,  3.712190
  0.440000,  3.615040
  0.442000,  3.522850
  0.444000,  3.433710
  0.446000,  3.355780
  0.448000,  3.281280
  0.450000,  3.206410
  0.452000,  3.124510
  0.454000,  3.036600
  0.456000,  2.946660
  0.458000,  2.849210
  0.460000,  2.765320
  0.462000,  2.687110
  0.464000,  2.621550
  0.466000,  2.573080
  0.468000,  2.530420
  0.470000,  2.497690
  0.472000,  2.462280
  0.474000,  2.425620
  0.476000,  2.382010
  0.478000,  2.330950
  0.480000,  2.274000
  0.482000,  2.218560
  0.484000,  2.161500
  0.486000,  2.103100
  0.488000,  2.057320
  0.490000,  2.004370
  0.492000,  1.955810
  0.494000,  1.901550
  0.496000,  1.854140
  0.498000,  1.803870
  0.500000,  1.747850
  0.502000,  1.696340
  0.504000,  1.640850
  0.506000,  1.583950
  0.508000,  1.537910
  0.510000,  1.486860
  0.512000,  1.436730
  0.514000,  1.383590
  0.516000,  1.331280
  0.518000,  1.269890
  0.520000,  1.206630
  0.522000,  1.137830
  0.524000,  1.065300
  0.526000,  0.982400
  0.528000,  0.892490
  0.530000,  0.795520
  0.532000,  0.699360
  0.534000,  0.596370
  0.536000,  0.500310
  0.538000,  0.407870
  0.540000,  0.313350
  0.542000,  0.233190
  0.544000,  0.165780
  0.546000,  0.102350
  0.548000,  0.048460
  0.550000, -0.006190
  0.552000, -0.065320
  0.554000, -0.126430
  0.556000, -0.194650
  0.558000, -0.274420
  0.560000, -0.361280
  0.562000, -0.458480
  0.564000, -0.550810
  0.566000, -0.653000
  0.568000, -0.749310
  0.570000, -0.849350
  0.572000, -0.951550
  0.574000, -1.048990
  0.576000, -1.143790
  0.578000, -1.231320
  0.580000, -1.306670
  0.582000, -1.369400
  0.584000, -1.420410
  0.586000, -1.451970
  0.588000, -1.474670
  0.590000, -1.479580
  0.592000, -1.479560
  0.594000, -1.487590
  0.596000, -1.494730
  0.598000, -1.519720
  0.600000, -1.559990
  0.602000, -1.623750
  0.604000, -1.695950
  0.606000, -1.772230
  0.608000, -1.853780
  0.610000, -1.933120
  0.612000, -1.997080
  0.614000, -2.047520
  0.616000, -2.081160
  0.618000, -2.099620
  0.620000, -2.099150
  0.622000, -2.082480
  0.624000, -2.060600
  0.626000, -2.036600
  0.628000, -2.003050
  0.630000, -1.963190
  0.632000, -1.927360
  0.634000, -1.902750
  0.636000, -1.887280
  0.638000, -1.877400
  0.640000, -1.880890
  0.642000, -1.892280
  0.644000, -1.910650
  0.646000, -1.928590
  0.648000, -1.942940
  0.650000, -1.949900
  0.652000, -1.944550
  0.654000, -1.936190
  0.656000, -1.918990
  0.658000, -1.898470
  0.660000, -1.866280
  0.662000, -1.836680
  0.664000, -1.796000
  0.666000, -1.756650
  0.668000, -1.721710
  0.670000, -1.686640
  0.672000, -1.650760
  0.674000, -1.614340
  0.676000, -1.582100
  0.678000, -1.544260
  0.680000, -1.503100
  0.682000, -1.462250
  0.684000, -1.418070
  0.686000, -1.367970
  0.688000, -1.312950
  0.690000, -1.259670
  0.692000, -1.209130
  0.694000, -1.160450
  0.696000, -1.105590
  0.698000, -1.059130
  0.700000, -1.006540
  0.702000, -0.958210
  0.704000, -0.913940
  0.706000, -0.864250
  0.708000, -0.814170
  0.710000, -0.763000
  0.712000, -0.709260
  0.714000, -0.651850
  0.716000, -0.589740
  0.718000, -0.520700
  0.720000, -0.452180
  0.722000, -0.382220
  0.724000, -0.315850
  0.726000, -0.248650
  0.728000, -0.175140
  0.730000, -0.108200
  0.732000, -0.040610
  0.734000,  0.029520
  0.736000,  0.094310
  0.738000,  0.156280
  0.740000,  0.222540
  0.742000,  0.284950
  0.744000,  0.357650
  0.746000,  0.422620
  0.748000,  0.487010
  0.750000,  0.553790
  0.752000,  0.615940
  0.754000,  0.677520
  0.756000,  0.739780
  0.758000,  0.799920
  0.760000,  0.855180
  0.762000,  0.910670
  0.764000,  0.958720
  0.766000,  0.991700
  0.768000,  1.023260
  0.770000,  1.050110
  0.772000,  1.070390
  0.774000,  1.092130
  0.776000,  1.119170
  0.778000,  1.145400
  0.780000,  1.177970
  0.782000,  1.214280
  0.784000,  1.258270
  0.786000,  1.298390
  0.788000,  1.341850
  0.790000,  1.377380
  0.792000,  1.409130
  0.794000,  1.435080
  0.796000,  1.447150
  0.798000,  1.454940
  0.800000,  1.458290
  0.802000,  1.459780
  0.804000,  1.462280
  0.806000,  1.462780
  0.808000,  1.460620
  0.810000,  1.457600
  0.812000,  1.457660
  0.814000,  1.456500
  0.816000,  1.456120
  0.818000,  1.457590
  0.820000,  1.463610
  0.822000,  1.468070
  0.824000,  1.464610
  0.826000,  1.460680
  0.828000,  1.451470
  0.830000,  1.441780
  0.832000,  1.424120
  0.834000,  1.406610
  0.836000,  1.390660
  0.838000,  1.377000
  0.840000,  1.365430
  0.842000,  1.354060
  0.844000,  1.346810
  0.846000,  1.341130
  0.848000,  1.337650
  0.850000,  1.330370
  0.852000,  1.318510
  0.854000,  1.291190
  0.856000,  1.259490
  0.858000,  1.222150
  0.860000,  1.189100
  0.862000,  1.140350
  0.864000,  1.098270
  0.866000,  1.053740
  0.868000,  1.009000
  0.870000,  0.966670
  0.872000,  0.933890
  0.874000,  0.903140
  0.876000,  0.878930
  0.878000,  0.852600
  0.880000,  0.839010
  0.882000,  0.815330
  0.884000,  0.795190
  0.886000,  0.765880
  0.888000,  0.736340
  0.890000,  0.709180
  0.892000,  0.677150
  0.894000,  0.645090
  0.896000,  0.616170
  0.898000,  0.580320
  0.900000,  0.546750
  0.902000,  0.507580
  0.904000,  0.474810
  0.906000,  0.441260
  0.908000,  0.412090
  0.910000,  0.377890
  0.912000,  0.343280
  0.914000,  0.312430
  0.916000,  0.284050
  0.918000,  0.250240
  0.920000,  0.222900
  0.922000,  0.199070
  0.924000,  0.180490
  0.926000,  0.156940
  0.928000,  0.130060
  0.930000,  0.107290
  0.932000,  0.086120
  0.934000,  0.061540
  0.936000,  0.034280
  0.938000,  0.010000
  0.940000, -0.011030
  0.942000, -0.033700
  0.944000, -0.052660
  0.946000, -0.066580
  0.948000, -0.078210
  0.950000, -0.087880
  0.952000, -0.094480
  0.954000, -0.097730
  0.956000, -0.100200
  0.958000, -0.104840
  0.960000, -0.112380
  0.962000, -0.116940
  0.964000, -0.132060
  0.966000, -0.146870
  0.968000, -0.158010
  0.970000, -0.170320
  0.972000, -0.181000
  0.974000, -0.192200
  0.976000, -0.200690
  0.978000, -0.201020
  0.980000, -0.207880
  0.982000, -0.211050
  0.984000, -0.212880
  0.986000, -0.209220
  0.988000, -0.202710
  0.990000, -0.205010
  0.992000, -0.204140
  0.994000, -0.201140
  0.996000, -0.204700
  0.998000, -0.201330
  1.000000, -0.193490
