# z (nm)   (kJ/mol)
  0.144000,270.005630
  0.146000,267.777140
  0.148000,265.224140
  0.150000,262.580860
  0.152000,259.930630
  0.154000,257.594520
  0.156000,255.123270
  0.158000,252.688920
  0.160000,250.165160
  0.162000,247.630390
  0.164000,244.983660
  0.166000,242.253550
  0.168000,239.415510
  0.170000,236.446600
  0.172000,233.330710
  0.174000,230.054070
  0.176000,226.596590
  0.178000,222.939790
  0.180000,219.057230
  0.182000,214.945970
  0.184000,210.591450
  0.186000,205.992350
  0.188000,201.162650
  0.190000,196.142010
  0.192000,190.989930
  0.194000,185.808300
  0.196000,180.702730
  0.198000,175.772040
  0.200000,171.076110
  0.202000,166.624300
  0.204000,162.385060
  0.206000,158.311900
  0.208000,154.369500
  0.210000,150.527650
  0.212000,146.785880
  0.214000,143.119790
  0.216000,139.532820
  0.218000,136.018730
  0.220000,132.575030
  0.222000,129.207680
  0.224000,125.907810
  0.226000,122.672030
  0.228000,119.487980
  0.230000,116.331940
  0.232000,113.190290
  0.234000,110.055710
  0.236000,106.950510
  0.238000,103.899900
  0.240000,100.928930
  0.242000, 98.055920
  0.244000, 95.291690
  0.246000, 92.616770
  0.248000, 90.004150
  0.250000, 87.431340
  0.252000, 84.904570
  0.254000, 82.439780
  0.256000, 80.050080
  0.258000, 77.760170
  0.260000, 75.556970
  0.262000, 73.419680
  0.264000, 71.300840
  0.266000, 69.170050
  0.268000, 67.017750
  0.270000, 64.879280
  0.272000, 62.801810
  0.274000, 60.815150
  0.276000, 58.902340
  0.278000, 57.065180
  0.280000, 55.263740
  0.282000, 53.486160
  0.284000, 51.724130
  0.286000, 49.979700
  0.288000, 48.264170
  0.290000, 46.604650
  0.292000, 44.988620
  0.294000, 43.436130
  0.296000, 41.954300
  0.298000, 40.536250
  0.300000, 39.183080
  0.302000, 37.871830
  0.304000, 36.597440
  0.306000, 35.337700
  0.308000, 34.097290
  0.310000, 32.865420
  0.312000, 31.654100
  0.314000, 30.480990
  0.316000, 29.348450
  0.318000, 28.272530
  0.320000, 27.247540
  0.322000, 26.276850
  0.324000, 25.355290
  0.326000, 24.460780
  0.328000, 23.596310
  0.330000, 22.741570
  0.332000, 21.889990
  0.334000, 21.040710
  0.336000, 20.189230
  0.338000, 19.330910
  0.340000, 18.474020
  0.342000, 17.630220
  0.344000, 16.810800
  0.346000, 16.030700
  0.348000, 15.293620
  0.350000, 14.606110
  0.352000, 13.962890
  0.354000, 13.350060
  0.356000, 12.751630
  0.358000, 12.150100
  0.360000, 11.528100
  0.362000, 10.879020
  0.364000, 10.219030
  0.366000,  9.551720
  0.368000,  8.899340
  0.370000,  8.286250
  0.372000,  7.715760
  0.374000,  7.183400
  0.376000,  6.695260
  0.378000,  6.245920
  0.380000,  5.817370
  0.382000,  5.413030
  0.384000,  5.020780
  0.386000,  4.642790
  0.388000,  4.279600
  0.390000,  3.923810
  0.392000,  3.580950
  0.394000,  3.244630
  0.396000,  2.908690
  0.398000,  2.564260
  0.400000,  2.223890
  0.402000,  1.905820
  0.404000,  1.604510
  0.406000,  1.338950
  0.408000,  1.122280
  0.410000,  0.957380
  0.412000,  0.838710
  0.414000,  0.749970
  0.416000,  0.670110
  0.418000,  0.572010
  0.420000,  0.445790
  0.422000,  0.279270
  0.424000,  0.079190
  0.426000, -0.133230
  0.428000, -0.344730
  0.430000, -0.529120
  0.432000, -0.677010
  0.434000, -0.777420
  0.436000, -0.833620
  0.438000, -0.852170
  0.440000, -0.861840
  0.442000, -0.881560
  0.444000, -0.929200
  0.446000, -0.986500
  0.448000, -1.058040
  0.450000, -1.136420
  0.452000, -1.223740
  0.454000, -1.315970
  0.456000, -1.419060
  0.458000, -1.528350
  0.460000, -1.627780
  0.462000, -1.707520
  0.464000, -1.776780
  0.466000, -1.822300
  0.468000, -1.847490
  0.470000, -1.863790
  0.472000, -1.890900
  0.474000, -1.928760
  0.476000, -1.987340
  0.478000, -2.069190
  0.480000, -2.162320
  0.482000, -2.254070
  0.484000, -2.339190
  0.486000, -2.408060
  0.488000, -2.446590
  0.490000, -2.481460
  0.492000, -2.503330
  0.494000, -2.532730
  0.496000, -2.575650
  0.498000, -2.629790
  0.500000, -2.695580
  0.502000, -2.767100
  0.504000, -2.840170
  0.506000, -2.914650
  0.508000, -2.980600
  0.510000, -3.042650
  0.512000, -3.090160
  0.514000, -3.129640
  0.516000, -3.156220
  0.518000, -3.174980
  0.520000, -3.179620
  0.522000, -3.190260
  0.524000, -3.209680
  0.526000, -3.243020
  0.528000, -3.294330
  0.530000, -3.362490
  0.532000, -3.433010
  0.534000, -3.507170
  0.536000, -3.568790
  0.538000, -3.619390
  0.540000, -3.659440
  0.542000, -3.690040
  0.544000, -3.710640
  0.546000, -3.732490
  0.548000, -3.754100
  0.550000, -3.788970
  0.552000, -3.825690
  0.554000, -3.863360
  0.556000, -3.909700
  0.558000, -3.954030
  0.560000, -3.996750
  0.562000, -4.029050
  0.564000, -4.060710
  0.566000, -4.091510
  0.568000, -4.116070
  0.570000, -4.145570
  0.572000, -4.177120
  0.574000, -4.205970
  0.576000, -4.228400
  0.578000, -4.259090
  0.580000, -4.279330
  0.582000, -4.287900
  0.584000, -4.283510
  0.586000, -4.264380
  0.588000, -4.228480
  0.590000, -4.192100
  0.592000, -4.149290
  0.594000, -4.106440
  0.596000, -4.065100
  0.598000, -4.025340
  0.600000, -3.984730
  0.602000, -3.950370
  0.604000, -3.920840
  0.606000, -3.883060
  0.608000, -3.836100
  0.610000, -3.786470
  0.612000, -3.723310
  0.614000, -3.665770
  0.616000, -3.602850
  0.618000, -3.542810
  0.620000, -3.493740
  0.622000, -3.457000
  0.624000, -3.433560
  0.626000, -3.414950
  0.628000, -3.392810
  0.630000, -3.364540
  0.632000, -3.323540
  0.634000, -3.264100
  0.636000, -3.191870
  0.638000, -3.113200
  0.640000, -3.026280
  0.642000, -2.943770
  0.644000, -2.868220
  0.646000, -2.810080
  0.648000, -2.758930
  0.650000, -2.720340
  0.652000, -2.688700
  0.654000, -2.658400
  0.656000, -2.619960
  0.658000, -2.579980
  0.660000, -2.529250
  0.662000, -2.464420
  0.664000, -2.384640
  0.666000, -2.303620
  0.668000, -2.213300
  0.670000, -2.130900
  0.672000, -2.055740
  0.674000, -1.986820
  0.676000, -1.923650
  0.678000, -1.865230
  0.680000, -1.800420
  0.682000, -1.748690
  0.684000, -1.695800
  0.686000, -1.649170
  0.688000, -1.600310
  0.690000, -1.551740
  0.692000, -1.497700
  0.694000, -1.442240
  0.696000, -1.383430
  0.698000, -1.321040
  0.700000, -1.266590
  0.702000, -1.202450
  0.704000, -1.133540
  0.706000, -1.062760
  0.708000, -0.997680
  0.710000, -0.932450
  0.712000, -0.868640
  0.714000, -0.821190
  0.716000, -0.779230
  0.718000, -0.749280
  0.720000, -0.725490
  0.722000, -0.702910
  0.724000, -0.681950
  0.726000, -0.662010
  0.728000, -0.635080
  0.730000, -0.599700
  0.732000, -0.563260
  0.734000, -0.524560
  0.736000, -0.489620
  0.738000, -0.460440
  0.740000, -0.432360
  0.742000, -0.408150
  0.744000, -0.390230
  0.746000, -0.384520
  0.748000, -0.372270
  0.750000, -0.365510
  0.752000, -0.349750
  0.754000, -0.333340
  0.756000, -0.302510
  0.758000, -0.269360
  0.760000, -0.230400
  0.762000, -0.178230
  0.764000, -0.133480
  0.766000, -0.092480
  0.768000, -0.059120
  0.770000, -0.034010
  0.772000, -0.019750
  0.774000, -0.013210
  0.776000, -0.023190
  0.778000, -0.032120
  0.780000, -0.059040
  0.782000, -0.084870
  0.784000, -0.108440
  0.786000, -0.119520
  0.788000, -0.126050
  0.790000, -0.126690
  0.792000, -0.118760
  0.794000, -0.101680
  0.796000, -0.074440
  0.798000, -0.044810
  0.800000, -0.013640
  0.802000,  0.016480
  0.804000,  0.047960
  0.806000,  0.071280
  0.808000,  0.094580
  0.810000,  0.102980
  0.812000,  0.103680
  0.814000,  0.102990
  0.816000,  0.093100
  0.818000,  0.079050
  0.820000,  0.063810
  0.822000,  0.052090
  0.824000,  0.039500
  0.826000,  0.031030
  0.828000,  0.028470
  0.830000,  0.020750
  0.832000,  0.016640
  0.834000,  0.020840
  0.836000,  0.023010
  0.838000,  0.026990
  0.840000,  0.030440
  0.842000,  0.039830
  0.844000,  0.050340
  0.846000,  0.057630
  0.848000,  0.062740
  0.850000,  0.066730
  0.852000,  0.056130
  0.854000,  0.043860
  0.856000,  0.027840
  0.858000,  0.007230
  0.860000, -0.019180
  0.862000, -0.040040
  0.864000, -0.057970
  0.866000, -0.074820
  0.868000, -0.084860
  0.870000, -0.092540
  0.872000, -0.098190
  0.874000, -0.099870
  0.876000, -0.107000
  0.878000, -0.113450
  0.880000, -0.116710
  0.882000, -0.113540
  0.884000, -0.107840
  0.886000, -0.099110
  0.888000, -0.088150
  0.890000, -0.069400
  0.892000, -0.047590
  0.894000, -0.018040
  0.896000, -0.001790
  0.898000,  0.008050
  0.900000,  0.005720
  0.902000, -0.004780
  0.904000, -0.018360
  0.906000, -0.040210
  0.908000, -0.067920
  0.910000, -0.097980
  0.912000, -0.114800
  0.914000, -0.125220
  0.916000, -0.124500
  0.918000, -0.119610
  0.920000, -0.107700
  0.922000, -0.088880
  0.924000, -0.066300
  0.926000, -0.053190
  0.928000, -0.041190
  0.930000, -0.034130
  0.932000, -0.031690
  0.934000, -0.036920
  0.936000, -0.041000
  0.938000, -0.045020
  0.940000, -0.052940
  0.942000, -0.048820
  0.944000, -0.051170
  0.946000, -0.052920
  0.948000, -0.046180
  0.950000, -0.038060
  0.952000, -0.032030
  0.954000, -0.027070
  0.956000, -0.018990
  0.958000, -0.008180
  0.960000, -0.000500
  0.962000,  0.009750
  0.964000,  0.026260
  0.966000,  0.046860
  0.968000,  0.070050
  0.970000,  0.100810
  0.972000,  0.132340
  0.974000,  0.155520
  0.976000,  0.174600
  0.978000,  0.184000
  0.980000,  0.179430
  0.982000,  0.170100
  0.984000,  0.147300
  0.986000,  0.121330
  0.988000,  0.089720
  0.990000,  0.062190
  0.992000,  0.032860
  0.994000,  0.003680
  0.996000, -0.020460
  0.998000, -0.028190
  1.000000, -0.021860
