# z (nm)   (kJ/mol)
  0.104000,275.536110
  0.106000,271.481250
  0.108000,268.502540
  0.110000,265.916260
  0.112000,263.161270
  0.114000,260.568770
  0.116000,257.933600
  0.118000,255.202660
  0.120000,252.362700
  0.122000,249.392050
  0.124000,246.268350
  0.126000,242.978110
  0.128000,239.499000
  0.130000,235.837420
  0.132000,231.994390
  0.134000,227.976940
  0.136000,223.816790
  0.138000,219.541630
  0.140000,215.182670
  0.142000,210.776440
  0.144000,206.351600
  0.146000,201.932560
  0.148000,197.531920
  0.150000,193.154720
  0.152000,188.813860
  0.154000,184.504940
  0.156000,180.237410
  0.158000,176.013880
  0.160000,171.837760
  0.162000,167.706360
  0.164000,163.608910
  0.166000,159.536760
  0.168000,155.484090
  0.170000,151.455570
  0.172000,147.469400
  0.174000,143.555660
  0.176000,139.742320
  0.178000,136.054460
  0.180000,132.496380
  0.182000,129.067510
  0.184000,125.735880
  0.186000,122.460510
  0.188000,119.218080
  0.190000,115.987710
  0.192000,112.769100
  0.194000,109.582750
  0.196000,106.439710
  0.198000,103.370250
  0.200000,100.385680
  0.202000, 97.485710
  0.204000, 94.661720
  0.206000, 91.868380
  0.208000, 89.080330
  0.210000, 86.278740
  0.212000, 83.462840
  0.214000, 80.683830
  0.216000, 77.995820
  0.218000, 75.438040
  0.220000, 73.025190
  0.222000, 70.731000
  0.224000, 68.500330
  0.226000, 66.291550
  0.228000, 64.081470
  0.230000, 61.865660
  0.232000, 59.659680
  0.234000, 57.499640
  0.236000, 55.384380
  0.238000, 53.319390
  0.240000, 51.310120
  0.242000, 49.331140
  0.244000, 47.385070
  0.246000, 45.461770
  0.248000, 43.579020
  0.250000, 41.738730
  0.252000, 39.963840
  0.254000, 38.256220
  0.256000, 36.630430
  0.258000, 35.066680
  0.260000, 33.559390
  0.262000, 32.086050
  0.264000, 30.626500
  0.266000, 29.164320
  0.268000, 27.699940
  0.270000, 26.236310
  0.272000, 24.772190
  0.274000, 23.362350
  0.276000, 22.021970
  0.278000, 20.763260
  0.280000, 19.604530
  0.282000, 18.520660
  0.284000, 17.491270
  0.286000, 16.496530
  0.288000, 15.499550
  0.290000, 14.511960
  0.292000, 13.541310
  0.294000, 12.579710
  0.296000, 11.645790
  0.298000, 10.744370
  0.300000,  9.881980
  0.302000,  9.038620
  0.304000,  8.239340
  0.306000,  7.479530
  0.308000,  6.771550
  0.310000,  6.124240
  0.312000,  5.537190
  0.314000,  5.000370
  0.316000,  4.493330
  0.318000,  4.007080
  0.320000,  3.517120
  0.322000,  3.017820
  0.324000,  2.517190
  0.326000,  2.007710
  0.328000,  1.511910
  0.330000,  1.054950
  0.332000,  0.644280
  0.334000,  0.302200
  0.336000,  0.017340
  0.338000, -0.216750
  0.340000, -0.409830
  0.342000, -0.577270
  0.344000, -0.752360
  0.346000, -0.937880
  0.348000, -1.134200
  0.350000, -1.352040
  0.352000, -1.577990
  0.354000, -1.803830
  0.356000, -2.029070
  0.358000, -2.230410
  0.360000, -2.413280
  0.362000, -2.570300
  0.364000, -2.693800
  0.366000, -2.798720
  0.368000, -2.889090
  0.370000, -2.964910
  0.372000, -3.033420
  0.374000, -3.097350
  0.376000, -3.161780
  0.378000, -3.228020
  0.380000, -3.289190
  0.382000, -3.336570
  0.384000, -3.374730
  0.386000, -3.395740
  0.388000, -3.398470
  0.390000, -3.385690
  0.392000, -3.367030
  0.394000, -3.336520
  0.396000, -3.301200
  0.398000, -3.253130
  0.400000, -3.197300
  0.402000, -3.144070
  0.404000, -3.090900
  0.406000, -3.035930
  0.408000, -2.972720
  0.410000, -2.911940
  0.412000, -2.838510
  0.414000, -2.766320
  0.416000, -2.693950
  0.418000, -2.618140
  0.420000, -2.540810
  0.422000, -2.459360
  0.424000, -2.380230
  0.426000, -2.304970
  0.428000, -2.227710
  0.430000, -2.165310
  0.432000, -2.107600
  0.434000, -2.049780
  0.436000, -1.998760
  0.438000, -1.944280
  0.440000, -1.885280
  0.442000, -1.830320
  0.444000, -1.763220
  0.446000, -1.698970
  0.448000, -1.639420
  0.450000, -1.593280
  0.452000, -1.565540
  0.454000, -1.560220
  0.456000, -1.559510
  0.458000, -1.555110
  0.460000, -1.540620
  0.462000, -1.501800
  0.464000, -1.444930
  0.466000, -1.376680
  0.468000, -1.312240
  0.470000, -1.260400
  0.472000, -1.232790
  0.474000, -1.227550
  0.476000, -1.244560
  0.478000, -1.267950
  0.480000, -1.288110
  0.482000, -1.292970
  0.484000, -1.283320
  0.486000, -1.247540
  0.488000, -1.198120
  0.490000, -1.149890
  0.492000, -1.106270
  0.494000, -1.080850
  0.496000, -1.081070
  0.498000, -1.092120
  0.500000, -1.130370
  0.502000, -1.173810
  0.504000, -1.201560
  0.506000, -1.241430
  0.508000, -1.244980
  0.510000, -1.239380
  0.512000, -1.217640
  0.514000, -1.184510
  0.516000, -1.159090
  0.518000, -1.144830
  0.520000, -1.154530
  0.522000, -1.184370
  0.524000, -1.236950
  0.526000, -1.300500
  0.528000, -1.357040
  0.530000, -1.397900
  0.532000, -1.416190
  0.534000, -1.415450
  0.536000, -1.405410
  0.538000, -1.405330
  0.540000, -1.425220
  0.542000, -1.463790
  0.544000, -1.514580
  0.546000, -1.575370
  0.548000, -1.631110
  0.550000, -1.686940
  0.552000, -1.733700
  0.554000, -1.777270
  0.556000, -1.815700
  0.558000, -1.852590
  0.560000, -1.883950
  0.562000, -1.919820
  0.564000, -1.952580
  0.566000, -1.988710
  0.568000, -2.032010
  0.570000, -2.074640
  0.572000, -2.113330
  0.574000, -2.150440
  0.576000, -2.181980
  0.578000, -2.205880
  0.580000, -2.221020
  0.582000, -2.230130
  0.584000, -2.234040
  0.586000, -2.230950
  0.588000, -2.227990
  0.590000, -2.226250
  0.592000, -2.232600
  0.594000, -2.241850
  0.596000, -2.259700
  0.598000, -2.286960
  0.600000, -2.316450
  0.602000, -2.349600
  0.604000, -2.384050
  0.606000, -2.408360
  0.608000, -2.425880
  0.610000, -2.421660
  0.612000, -2.410840
  0.614000, -2.380840
  0.616000, -2.335860
  0.618000, -2.277010
  0.620000, -2.211610
  0.622000, -2.141240
  0.624000, -2.080820
  0.626000, -2.027970
  0.628000, -1.999330
  0.630000, -1.986650
  0.632000, -1.988730
  0.634000, -2.006640
  0.636000, -2.027670
  0.638000, -2.050690
  0.640000, -2.069820
  0.642000, -2.069970
  0.644000, -2.061660
  0.646000, -2.039440
  0.648000, -2.006820
  0.650000, -1.960370
  0.652000, -1.908600
  0.654000, -1.854240
  0.656000, -1.798500
  0.658000, -1.736280
  0.660000, -1.675360
  0.662000, -1.623190
  0.664000, -1.570060
  0.666000, -1.532420
  0.668000, -1.503510
  0.670000, -1.471640
  0.672000, -1.446180
  0.674000, -1.420210
  0.676000, -1.391710
  0.678000, -1.360680
  0.680000, -1.326400
  0.682000, -1.280470
  0.684000, -1.235130
  0.686000, -1.183270
  0.688000, -1.127320
  0.690000, -1.077060
  0.692000, -1.027810
  0.694000, -0.990050
  0.696000, -0.950690
  0.698000, -0.918590
  0.700000, -0.896010
  0.702000, -0.871720
  0.704000, -0.845280
  0.706000, -0.815450
  0.708000, -0.786110
  0.710000, -0.751690
  0.712000, -0.707980
  0.714000, -0.665000
  0.716000, -0.612170
  0.718000, -0.562840
  0.720000, -0.513400
  0.722000, -0.465000
  0.724000, -0.417180
  0.726000, -0.372350
  0.728000, -0.329560
  0.730000, -0.291350
  0.732000, -0.254280
  0.734000, -0.213920
  0.736000, -0.179960
  0.738000, -0.143450
  0.740000, -0.109100
  0.742000, -0.072840
  0.744000, -0.043310
  0.746000, -0.018340
  0.748000,  0.007060
  0.750000,  0.030370
  0.752000,  0.057630
  0.754000,  0.086130
  0.756000,  0.116990
  0.758000,  0.156590
  0.760000,  0.204620
  0.762000,  0.257270
  0.764000,  0.317350
  0.766000,  0.376540
  0.768000,  0.433050
  0.770000,  0.485290
  0.772000,  0.531680
  0.774000,  0.564730
  0.776000,  0.585150
  0.778000,  0.593340
  0.780000,  0.600410
  0.782000,  0.596630
  0.784000,  0.598710
  0.786000,  0.603100
  0.788000,  0.622220
  0.790000,  0.645500
  0.792000,  0.676130
  0.794000,  0.701520
  0.796000,  0.727910
  0.798000,  0.758010
  0.800000,  0.785820
  0.802000,  0.814220
  0.804000,  0.834400
  0.806000,  0.858160
  0.808000,  0.877670
  0.810000,  0.885370
  0.812000,  0.897180
  0.814000,  0.901350
  0.816000,  0.897460
  0.818000,  0.884600
  0.820000,  0.865760
  0.822000,  0.845850
  0.824000,  0.829080
  0.826000,  0.805080
  0.828000,  0.784820
  0.830000,  0.773000
  0.832000,  0.764210
  0.834000,  0.769220
  0.836000,  0.781830
  0.838000,  0.796970
  0.840000,  0.818180
  0.842000,  0.844070
  0.844000,  0.870290
  0.846000,  0.897490
  0.848000,  0.908180
  0.850000,  0.905860
  0.852000,  0.887540
  0.854000,  0.857130
  0.856000,  0.807680
  0.858000,  0.751820
  0.860000,  0.684870
  0.862000,  0.616940
  0.864000,  0.551530
  0.866000,  0.490310
  0.868000,  0.442610
  0.870000,  0.414130
  0.872000,  0.401010
  0.874000,  0.404430
  0.876000,  0.418340
  0.878000,  0.440750
  0.880000,  0.458650
  0.882000,  0.469430
  0.884000,  0.464250
  0.886000,  0.437990
  0.888000,  0.395830
  0.890000,  0.350800
  0.892000,  0.298740
  0.894000,  0.263450
  0.896000,  0.236250
  0.898000,  0.221050
  0.900000,  0.214080
  0.902000,  0.212800
  0.904000,  0.200440
  0.906000,  0.182080
  0.908000,  0.165060
  0.910000,  0.149960
  0.912000,  0.133670
  0.914000,  0.116580
  0.916000,  0.102580
  0.918000,  0.090670
  0.920000,  0.084940
  0.922000,  0.071740
  0.924000,  0.066730
  0.926000,  0.059280
  0.928000,  0.055570
  0.930000,  0.051020
  0.932000,  0.044860
  0.934000,  0.046840
  0.936000,  0.048800
  0.938000,  0.052900
  0.940000,  0.059010
  0.942000,  0.068380
  0.944000,  0.071330
  0.946000,  0.069970
  0.948000,  0.063820
  0.950000,  0.053860
  0.952000,  0.037120
  0.954000,  0.014470
  0.956000, -0.014120
  0.958000, -0.049910
  0.960000, -0.085700
  0.962000, -0.121740
  0.964000, -0.148780
  0.966000, -0.167090
  0.968000, -0.181270
  0.970000, -0.190970
  0.972000, -0.191680
  0.974000, -0.182620
  0.976000, -0.169320
  0.978000, -0.150410
  0.980000, -0.126660
  0.982000, -0.101080
  0.984000, -0.079630
  0.986000, -0.061730
  0.988000, -0.047690
  0.990000, -0.040500
  0.992000, -0.038440
  0.994000, -0.041980
  0.996000, -0.050850
  0.998000, -0.060580
  1.000000, -0.071760
