# z (nm)   (kJ/mol)
  0.122000,270.019980
  0.124000,267.807870
  0.126000,265.632400
  0.128000,263.199600
  0.130000,260.885810
  0.132000,258.487420
  0.134000,256.136720
  0.136000,253.719980
  0.138000,251.292970
  0.140000,248.749170
  0.142000,246.099420
  0.144000,243.280770
  0.146000,240.281090
  0.148000,237.079480
  0.150000,233.655910
  0.152000,229.996940
  0.154000,226.102100
  0.156000,221.971470
  0.158000,217.612450
  0.160000,213.037060
  0.162000,208.274320
  0.164000,203.359940
  0.166000,198.336200
  0.168000,193.262210
  0.170000,188.187730
  0.172000,183.167360
  0.174000,178.245210
  0.176000,173.444930
  0.178000,168.774060
  0.180000,164.240960
  0.182000,159.863020
  0.184000,155.650200
  0.186000,151.615570
  0.188000,147.735840
  0.190000,143.965960
  0.192000,140.247090
  0.194000,136.541250
  0.196000,132.851630
  0.198000,129.235400
  0.200000,125.737360
  0.202000,122.348810
  0.204000,119.022900
  0.206000,115.710900
  0.208000,112.390060
  0.210000,109.067900
  0.212000,105.775540
  0.214000,102.551240
  0.216000, 99.408790
  0.218000, 96.347940
  0.220000, 93.336450
  0.222000, 90.332170
  0.224000, 87.294390
  0.226000, 84.209000
  0.228000, 81.105500
  0.230000, 78.055130
  0.232000, 75.147840
  0.234000, 72.449220
  0.236000, 69.969480
  0.238000, 67.672350
  0.240000, 65.515150
  0.242000, 63.413650
  0.244000, 61.313690
  0.246000, 59.170930
  0.248000, 56.978730
  0.250000, 54.755990
  0.252000, 52.532910
  0.254000, 50.351530
  0.256000, 48.256690
  0.258000, 46.266790
  0.260000, 44.396240
  0.262000, 42.620140
  0.264000, 40.902230
  0.266000, 39.237460
  0.268000, 37.611140
  0.270000, 36.019660
  0.272000, 34.462330
  0.274000, 32.935560
  0.276000, 31.436400
  0.278000, 29.939530
  0.280000, 28.443130
  0.282000, 26.955070
  0.284000, 25.533230
  0.286000, 24.212710
  0.288000, 23.050720
  0.290000, 22.021960
  0.292000, 21.097370
  0.294000, 20.230200
  0.296000, 19.359600
  0.298000, 18.478420
  0.300000, 17.574280
  0.302000, 16.669490
  0.304000, 15.762950
  0.306000, 14.890460
  0.308000, 14.075160
  0.310000, 13.327570
  0.312000, 12.659540
  0.314000, 12.077580
  0.316000, 11.556500
  0.318000, 11.084090
  0.320000, 10.634710
  0.322000, 10.186670
  0.324000,  9.717370
  0.326000,  9.227300
  0.328000,  8.735970
  0.330000,  8.248320
  0.332000,  7.797120
  0.334000,  7.397520
  0.336000,  7.058780
  0.338000,  6.781740
  0.340000,  6.559750
  0.342000,  6.388060
  0.344000,  6.246520
  0.346000,  6.122770
  0.348000,  5.993640
  0.350000,  5.854050
  0.352000,  5.692930
  0.354000,  5.518860
  0.356000,  5.344500
  0.358000,  5.178710
  0.360000,  5.041680
  0.362000,  4.938710
  0.364000,  4.880900
  0.366000,  4.857160
  0.368000,  4.860510
  0.370000,  4.886820
  0.372000,  4.912110
  0.374000,  4.931810
  0.376000,  4.941240
  0.378000,  4.930480
  0.380000,  4.896770
  0.382000,  4.854320
  0.384000,  4.795840
  0.386000,  4.728180
  0.388000,  4.667490
  0.390000,  4.602250
  0.392000,  4.548310
  0.394000,  4.513120
  0.396000,  4.485650
  0.398000,  4.464700
  0.400000,  4.440330
  0.402000,  4.417870
  0.404000,  4.392960
  0.406000,  4.365130
  0.408000,  4.330550
  0.410000,  4.294530
  0.412000,  4.250800
  0.414000,  4.195740
  0.416000,  4.122730
  0.418000,  4.026810
  0.420000,  3.909160
  0.422000,  3.798840
  0.424000,  3.710180
  0.426000,  3.658170
  0.428000,  3.643130
  0.430000,  3.657590
  0.432000,  3.677800
  0.434000,  3.684740
  0.436000,  3.685640
  0.438000,  3.671010
  0.440000,  3.647080
  0.442000,  3.619960
  0.444000,  3.600950
  0.446000,  3.595870
  0.448000,  3.595480
  0.450000,  3.591720
  0.452000,  3.596550
  0.454000,  3.597010
  0.456000,  3.597560
  0.458000,  3.602180
  0.460000,  3.605690
  0.462000,  3.605260
  0.464000,  3.606850
  0.466000,  3.606800
  0.468000,  3.590170
  0.470000,  3.566620
  0.472000,  3.534330
  0.474000,  3.484670
  0.476000,  3.431980
  0.478000,  3.370960
  0.480000,  3.307280
  0.482000,  3.232150
  0.484000,  3.156240
  0.486000,  3.078340
  0.488000,  2.982820
  0.490000,  2.878580
  0.492000,  2.758570
  0.494000,  2.623780
  0.496000,  2.488890
  0.498000,  2.344260
  0.500000,  2.193840
  0.502000,  2.045620
  0.504000,  1.899140
  0.506000,  1.749060
  0.508000,  1.597680
  0.510000,  1.445120
  0.512000,  1.287060
  0.514000,  1.127450
  0.516000,  0.961030
  0.518000,  0.789620
  0.520000,  0.607520
  0.522000,  0.412430
  0.524000,  0.211470
  0.526000,  0.013120
  0.528000, -0.177270
  0.530000, -0.356270
  0.532000, -0.521210
  0.534000, -0.671440
  0.536000, -0.814940
  0.538000, -0.956310
  0.540000, -1.099950
  0.542000, -1.245440
  0.544000, -1.388310
  0.546000, -1.513790
  0.548000, -1.620700
  0.550000, -1.706090
  0.552000, -1.779000
  0.554000, -1.853950
  0.556000, -1.950870
  0.558000, -2.077910
  0.560000, -2.220290
  0.562000, -2.367600
  0.564000, -2.500370
  0.566000, -2.614470
  0.568000, -2.691580
  0.570000, -2.738790
  0.572000, -2.755450
  0.574000, -2.754670
  0.576000, -2.741070
  0.578000, -2.733370
  0.580000, -2.730360
  0.582000, -2.736960
  0.584000, -2.755220
  0.586000, -2.782060
  0.588000, -2.826210
  0.590000, -2.868240
  0.592000, -2.909240
  0.594000, -2.950970
  0.596000, -2.977490
  0.598000, -3.003820
  0.600000, -3.013080
  0.602000, -3.002680
  0.604000, -2.986850
  0.606000, -2.968990
  0.608000, -2.946910
  0.610000, -2.931680
  0.612000, -2.936750
  0.614000, -2.966410
  0.616000, -3.021710
  0.618000, -3.105600
  0.620000, -3.212020
  0.622000, -3.328610
  0.624000, -3.437170
  0.626000, -3.531430
  0.628000, -3.583740
  0.630000, -3.601000
  0.632000, -3.588140
  0.634000, -3.548540
  0.636000, -3.488960
  0.638000, -3.440510
  0.640000, -3.431940
  0.642000, -3.448320
  0.644000, -3.507180
  0.646000, -3.595880
  0.648000, -3.701960
  0.650000, -3.796670
  0.652000, -3.865910
  0.654000, -3.898410
  0.656000, -3.887350
  0.658000, -3.847300
  0.660000, -3.790930
  0.662000, -3.742540
  0.664000, -3.702490
  0.666000, -3.675790
  0.668000, -3.671040
  0.670000, -3.668270
  0.672000, -3.674390
  0.674000, -3.674110
  0.676000, -3.662760
  0.678000, -3.638090
  0.680000, -3.602570
  0.682000, -3.567850
  0.684000, -3.512770
  0.686000, -3.464080
  0.688000, -3.407020
  0.690000, -3.353190
  0.692000, -3.294670
  0.694000, -3.239900
  0.696000, -3.192960
  0.698000, -3.142690
  0.700000, -3.099330
  0.702000, -3.059260
  0.704000, -3.023330
  0.706000, -2.985950
  0.708000, -2.947220
  0.710000, -2.902660
  0.712000, -2.851700
  0.714000, -2.799420
  0.716000, -2.746600
  0.718000, -2.689170
  0.720000, -2.628350
  0.722000, -2.574990
  0.724000, -2.520470
  0.726000, -2.472390
  0.728000, -2.422060
  0.730000, -2.373830
  0.732000, -2.331400
  0.734000, -2.284470
  0.736000, -2.238120
  0.738000, -2.187060
  0.740000, -2.128520
  0.742000, -2.071030
  0.744000, -2.002510
  0.746000, -1.939070
  0.748000, -1.871270
  0.750000, -1.797760
  0.752000, -1.720770
  0.754000, -1.635500
  0.756000, -1.543750
  0.758000, -1.454340
  0.760000, -1.358230
  0.762000, -1.264500
  0.764000, -1.182000
  0.766000, -1.110640
  0.768000, -1.053860
  0.770000, -1.011510
  0.772000, -0.968780
  0.774000, -0.937060
  0.776000, -0.909510
  0.778000, -0.873810
  0.780000, -0.825290
  0.782000, -0.752510
  0.784000, -0.665060
  0.786000, -0.553030
  0.788000, -0.437770
  0.790000, -0.322160
  0.792000, -0.220590
  0.794000, -0.146850
  0.796000, -0.105740
  0.798000, -0.089710
  0.800000, -0.085630
  0.802000, -0.072520
  0.804000, -0.042180
  0.806000,  0.008240
  0.808000,  0.090200
  0.810000,  0.186350
  0.812000,  0.275720
  0.814000,  0.332070
  0.816000,  0.364710
  0.818000,  0.361270
  0.820000,  0.352810
  0.822000,  0.343910
  0.824000,  0.347360
  0.826000,  0.359750
  0.828000,  0.370580
  0.830000,  0.384030
  0.832000,  0.394480
  0.834000,  0.406240
  0.836000,  0.416230
  0.838000,  0.438400
  0.840000,  0.473390
  0.842000,  0.512650
  0.844000,  0.551950
  0.846000,  0.594960
  0.848000,  0.625560
  0.850000,  0.635530
  0.852000,  0.629500
  0.854000,  0.614560
  0.856000,  0.589480
  0.858000,  0.567560
  0.860000,  0.543030
  0.862000,  0.533690
  0.864000,  0.537160
  0.866000,  0.551920
  0.868000,  0.578030
  0.870000,  0.605010
  0.872000,  0.629410
  0.874000,  0.656990
  0.876000,  0.677970
  0.878000,  0.687570
  0.880000,  0.693990
  0.882000,  0.684910
  0.884000,  0.673100
  0.886000,  0.648300
  0.888000,  0.613230
  0.890000,  0.577560
  0.892000,  0.542580
  0.894000,  0.507880
  0.896000,  0.476160
  0.898000,  0.445470
  0.900000,  0.421650
  0.902000,  0.402530
  0.904000,  0.384280
  0.906000,  0.365610
  0.908000,  0.351550
  0.910000,  0.325760
  0.912000,  0.304050
  0.914000,  0.277140
  0.916000,  0.246210
  0.918000,  0.213090
  0.920000,  0.182380
  0.922000,  0.161280
  0.924000,  0.149370
  0.926000,  0.151760
  0.928000,  0.160810
  0.930000,  0.172890
  0.932000,  0.197370
  0.934000,  0.215690
  0.936000,  0.227770
  0.938000,  0.227790
  0.940000,  0.212450
  0.942000,  0.179610
  0.944000,  0.132450
  0.946000,  0.070750
  0.948000,  0.006280
  0.950000, -0.056210
  0.952000, -0.105980
  0.954000, -0.144480
  0.956000, -0.168880
  0.958000, -0.173560
  0.960000, -0.173550
  0.962000, -0.166350
  0.964000, -0.162100
  0.966000, -0.157240
  0.968000, -0.154970
  0.970000, -0.153970
  0.972000, -0.157630
  0.974000, -0.160250
  0.976000, -0.163400
  0.978000, -0.168600
  0.980000, -0.175880
  0.982000, -0.178210
  0.984000, -0.191740
  0.986000, -0.213630
  0.988000, -0.243050
  0.990000, -0.274330
  0.992000, -0.303180
  0.994000, -0.333700
  0.996000, -0.362890
  0.998000, -0.383480
  1.000000, -0.391590
