# z (nm)   (kJ/mol)
  0.114000,261.958500
  0.116000,259.749740
  0.118000,256.705740
  0.120000,253.971330
  0.122000,251.669710
  0.124000,249.199190
  0.126000,246.758200
  0.128000,244.357180
  0.130000,241.918070
  0.132000,239.376560
  0.134000,236.769880
  0.136000,234.026670
  0.138000,231.150720
  0.140000,228.108190
  0.142000,224.884880
  0.144000,221.457640
  0.146000,217.808020
  0.148000,213.928870
  0.150000,209.824870
  0.152000,205.512890
  0.154000,201.024670
  0.156000,196.409950
  0.158000,191.726690
  0.160000,187.044700
  0.162000,182.421340
  0.164000,177.907850
  0.166000,173.529870
  0.168000,169.306390
  0.170000,165.227900
  0.172000,161.270740
  0.174000,157.384990
  0.176000,153.510380
  0.178000,149.597810
  0.180000,145.641220
  0.182000,141.684060
  0.184000,137.786430
  0.186000,134.012580
  0.188000,130.391020
  0.190000,126.932550
  0.192000,123.638250
  0.194000,120.504380
  0.196000,117.477300
  0.198000,114.462770
  0.200000,111.336230
  0.202000,108.004320
  0.204000,104.465700
  0.206000,100.847620
  0.208000, 97.360650
  0.210000, 94.173600
  0.212000, 91.334270
  0.214000, 88.706150
  0.216000, 86.118030
  0.218000, 83.431420
  0.220000, 80.615070
  0.222000, 77.729180
  0.224000, 74.854920
  0.226000, 72.068360
  0.228000, 69.422370
  0.230000, 66.922330
  0.232000, 64.587110
  0.234000, 62.373690
  0.236000, 60.231130
  0.238000, 58.104800
  0.240000, 55.941290
  0.242000, 53.724800
  0.244000, 51.487650
  0.246000, 49.306650
  0.248000, 47.268570
  0.250000, 45.411120
  0.252000, 43.702340
  0.254000, 42.052460
  0.256000, 40.379380
  0.258000, 38.643430
  0.260000, 36.881880
  0.262000, 35.147980
  0.264000, 33.508010
  0.266000, 31.989260
  0.268000, 30.588260
  0.270000, 29.292090
  0.272000, 28.055350
  0.274000, 26.843730
  0.276000, 25.630670
  0.278000, 24.395870
  0.280000, 23.154620
  0.282000, 21.928610
  0.284000, 20.736860
  0.286000, 19.622170
  0.288000, 18.583200
  0.290000, 17.611370
  0.292000, 16.688940
  0.294000, 15.767280
  0.296000, 14.822640
  0.298000, 13.834210
  0.300000, 12.803280
  0.302000, 11.736110
  0.304000, 10.657720
  0.306000,  9.591000
  0.308000,  8.556350
  0.310000,  7.570990
  0.312000,  6.635000
  0.314000,  5.737690
  0.316000,  4.876470
  0.318000,  4.024180
  0.320000,  3.169200
  0.322000,  2.290800
  0.324000,  1.398230
  0.326000,  0.502410
  0.328000, -0.367780
  0.330000, -1.210900
  0.332000, -2.020690
  0.334000, -2.833130
  0.336000, -3.667000
  0.338000, -4.545230
  0.340000, -5.485320
  0.342000, -6.487890
  0.344000, -7.536040
  0.346000, -8.609450
  0.348000, -9.676910
  0.350000,-10.705850
  0.352000,-11.689000
  0.354000,-12.648290
  0.356000,-13.575340
  0.358000,-14.501900
  0.360000,-15.422240
  0.362000,-16.340770
  0.364000,-17.236680
  0.366000,-18.073150
  0.368000,-18.834940
  0.370000,-19.513390
  0.372000,-20.112200
  0.374000,-20.651420
  0.376000,-21.141220
  0.378000,-21.592980
  0.380000,-22.003040
  0.382000,-22.362060
  0.384000,-22.669270
  0.386000,-22.934100
  0.388000,-23.137610
  0.390000,-23.292280
  0.392000,-23.399720
  0.394000,-23.455700
  0.396000,-23.470640
  0.398000,-23.432860
  0.400000,-23.338670
  0.402000,-23.183600
  0.404000,-22.966170
  0.406000,-22.679230
  0.408000,-22.336120
  0.410000,-21.937720
  0.412000,-21.481490
  0.414000,-20.981690
  0.416000,-20.430640
  0.418000,-19.847040
  0.420000,-19.219580
  0.422000,-18.539730
  0.424000,-17.819540
  0.426000,-17.045000
  0.428000,-16.209800
  0.430000,-15.329880
  0.432000,-14.409020
  0.434000,-13.462340
  0.436000,-12.511580
  0.438000,-11.569540
  0.440000,-10.652810
  0.442000, -9.762080
  0.444000, -8.909270
  0.446000, -8.100190
  0.448000, -7.329840
  0.450000, -6.597140
  0.452000, -5.906880
  0.454000, -5.268860
  0.456000, -4.695850
  0.458000, -4.202810
  0.460000, -3.780730
  0.462000, -3.418210
  0.464000, -3.075250
  0.466000, -2.731920
  0.468000, -2.378870
  0.470000, -2.027150
  0.472000, -1.689360
  0.474000, -1.388300
  0.476000, -1.144660
  0.478000, -0.965790
  0.480000, -0.846130
  0.482000, -0.777780
  0.484000, -0.723270
  0.486000, -0.655640
  0.488000, -0.556120
  0.490000, -0.426490
  0.492000, -0.273750
  0.494000, -0.121000
  0.496000,  0.007750
  0.498000,  0.097570
  0.500000,  0.135040
  0.502000,  0.130420
  0.504000,  0.087460
  0.506000,  0.029070
  0.508000, -0.018810
  0.510000, -0.047150
  0.512000, -0.037840
  0.514000,  0.001870
  0.516000,  0.053390
  0.518000,  0.104170
  0.520000,  0.152820
  0.522000,  0.186090
  0.524000,  0.208770
  0.526000,  0.207880
  0.528000,  0.181930
  0.530000,  0.133740
  0.532000,  0.068630
  0.534000, -0.009650
  0.536000, -0.073040
  0.538000, -0.114760
  0.540000, -0.149830
  0.542000, -0.179100
  0.544000, -0.213420
  0.546000, -0.260280
  0.548000, -0.326280
  0.550000, -0.408300
  0.552000, -0.494570
  0.554000, -0.592000
  0.556000, -0.693910
  0.558000, -0.790840
  0.560000, -0.887100
  0.562000, -0.978790
  0.564000, -1.074910
  0.566000, -1.176400
  0.568000, -1.278230
  0.570000, -1.388320
  0.572000, -1.505800
  0.574000, -1.623280
  0.576000, -1.747390
  0.578000, -1.864980
  0.580000, -1.978770
  0.582000, -2.084230
  0.584000, -2.174030
  0.586000, -2.269400
  0.588000, -2.375310
  0.590000, -2.498730
  0.592000, -2.628940
  0.594000, -2.773770
  0.596000, -2.908820
  0.598000, -3.031720
  0.600000, -3.131800
  0.602000, -3.200990
  0.604000, -3.258950
  0.606000, -3.309710
  0.608000, -3.344450
  0.610000, -3.375110
  0.612000, -3.406460
  0.614000, -3.449120
  0.616000, -3.503860
  0.618000, -3.578150
  0.620000, -3.674290
  0.622000, -3.777930
  0.624000, -3.879490
  0.626000, -3.970110
  0.628000, -4.041700
  0.630000, -4.078920
  0.632000, -4.085090
  0.634000, -4.069630
  0.636000, -4.042270
  0.638000, -4.021430
  0.640000, -4.004780
  0.642000, -4.005800
  0.644000, -4.005810
  0.646000, -4.013580
  0.648000, -4.015000
  0.650000, -4.008290
  0.652000, -3.991500
  0.654000, -3.960400
  0.656000, -3.910680
  0.658000, -3.862370
  0.660000, -3.806800
  0.662000, -3.738400
  0.664000, -3.667930
  0.666000, -3.590110
  0.668000, -3.522930
  0.670000, -3.461280
  0.672000, -3.402540
  0.674000, -3.359710
  0.676000, -3.316290
  0.678000, -3.275320
  0.680000, -3.234080
  0.682000, -3.187740
  0.684000, -3.134020
  0.686000, -3.083460
  0.688000, -3.032680
  0.690000, -2.980660
  0.692000, -2.932800
  0.694000, -2.888240
  0.696000, -2.852580
  0.698000, -2.814040
  0.700000, -2.773120
  0.702000, -2.739750
  0.704000, -2.702910
  0.706000, -2.667750
  0.708000, -2.637610
  0.710000, -2.604250
  0.712000, -2.570950
  0.714000, -2.534640
  0.716000, -2.493300
  0.718000, -2.460460
  0.720000, -2.428770
  0.722000, -2.399380
  0.724000, -2.371940
  0.726000, -2.350400
  0.728000, -2.326130
  0.730000, -2.306400
  0.732000, -2.289680
  0.734000, -2.268870
  0.736000, -2.244630
  0.738000, -2.220550
  0.740000, -2.189160
  0.742000, -2.158040
  0.744000, -2.124030
  0.746000, -2.099020
  0.748000, -2.068490
  0.750000, -2.045180
  0.752000, -2.008650
  0.754000, -1.960360
  0.756000, -1.908230
  0.758000, -1.845640
  0.760000, -1.782760
  0.762000, -1.728190
  0.764000, -1.679690
  0.766000, -1.636660
  0.768000, -1.607220
  0.770000, -1.578980
  0.772000, -1.563950
  0.774000, -1.557380
  0.776000, -1.547840
  0.778000, -1.534390
  0.780000, -1.517550
  0.782000, -1.496520
  0.784000, -1.472800
  0.786000, -1.440740
  0.788000, -1.402290
  0.790000, -1.364790
  0.792000, -1.325280
  0.794000, -1.282530
  0.796000, -1.242230
  0.798000, -1.214330
  0.800000, -1.188810
  0.802000, -1.167310
  0.804000, -1.152820
  0.806000, -1.139530
  0.808000, -1.125910
  0.810000, -1.107070
  0.812000, -1.080400
  0.814000, -1.045770
  0.816000, -1.009450
  0.818000, -0.958860
  0.820000, -0.903630
  0.822000, -0.844540
  0.824000, -0.789750
  0.826000, -0.748470
  0.828000, -0.724050
  0.830000, -0.708310
  0.832000, -0.707210
  0.834000, -0.715670
  0.836000, -0.728920
  0.838000, -0.737190
  0.840000, -0.732420
  0.842000, -0.718670
  0.844000, -0.700810
  0.846000, -0.674250
  0.848000, -0.644550
  0.850000, -0.612270
  0.852000, -0.581340
  0.854000, -0.550710
  0.856000, -0.515320
  0.858000, -0.487710
  0.860000, -0.465690
  0.862000, -0.446110
  0.864000, -0.430710
  0.866000, -0.430410
  0.868000, -0.434030
  0.870000, -0.443240
  0.872000, -0.457720
  0.874000, -0.478530
  0.876000, -0.503490
  0.878000, -0.516730
  0.880000, -0.519710
  0.882000, -0.514530
  0.884000, -0.495570
  0.886000, -0.452560
  0.888000, -0.389700
  0.890000, -0.312380
  0.892000, -0.227890
  0.894000, -0.149470
  0.896000, -0.088470
  0.898000, -0.056810
  0.900000, -0.056170
  0.902000, -0.089290
  0.904000, -0.136600
  0.906000, -0.196120
  0.908000, -0.245600
  0.910000, -0.272500
  0.912000, -0.287790
  0.914000, -0.271970
  0.916000, -0.237690
  0.918000, -0.189090
  0.920000, -0.139160
  0.922000, -0.091100
  0.924000, -0.051760
  0.926000, -0.019460
  0.928000,  0.000250
  0.930000,  0.014510
  0.932000,  0.028500
  0.934000,  0.034370
  0.936000,  0.043780
  0.938000,  0.049620
  0.940000,  0.063340
  0.942000,  0.072070
  0.944000,  0.076870
  0.946000,  0.077830
  0.948000,  0.075140
  0.950000,  0.067790
  0.952000,  0.050560
  0.954000,  0.036750
  0.956000,  0.015110
  0.958000,  0.005630
  0.960000,  0.003000
  0.962000,  0.008530
  0.964000,  0.023640
  0.966000,  0.046900
  0.968000,  0.068500
  0.970000,  0.096490
  0.972000,  0.123010
  0.974000,  0.146810
  0.976000,  0.167000
  0.978000,  0.181150
  0.980000,  0.186220
  0.982000,  0.180450
  0.984000,  0.157810
  0.986000,  0.126230
  0.988000,  0.087130
  0.990000,  0.037990
  0.992000, -0.009570
  0.994000, -0.038730
  0.996000, -0.045730
  0.998000, -0.035140
  1.000000,  0.004310
