# z (nm)   (kJ/mol)
  0.042000,279.610920
  0.044000,275.964150
  0.046000,273.056880
  0.048000,269.591890
  0.050000,266.723860
  0.052000,263.993400
  0.054000,261.163690
  0.056000,258.312940
  0.058000,255.363510
  0.060000,252.339220
  0.062000,249.211190
  0.064000,245.954690
  0.066000,242.560950
  0.068000,239.024180
  0.070000,235.338930
  0.072000,231.517300
  0.074000,227.568710
  0.076000,223.516700
  0.078000,219.379400
  0.080000,215.189670
  0.082000,210.977030
  0.084000,206.757260
  0.086000,202.549530
  0.088000,198.375360
  0.090000,194.236560
  0.092000,190.143970
  0.094000,186.097510
  0.096000,182.113030
  0.098000,178.189800
  0.100000,174.333760
  0.102000,170.553380
  0.104000,166.853880
  0.106000,163.236580
  0.108000,159.701810
  0.110000,156.243470
  0.112000,152.857260
  0.114000,149.534230
  0.116000,146.270480
  0.118000,143.051150
  0.120000,139.869170
  0.122000,136.716570
  0.124000,133.600260
  0.126000,130.525080
  0.128000,127.493230
  0.130000,124.515730
  0.132000,121.600950
  0.134000,118.754760
  0.136000,115.972410
  0.138000,113.239560
  0.140000,110.551870
  0.142000,107.890970
  0.144000,105.247910
  0.146000,102.618790
  0.148000,100.017380
  0.150000, 97.445930
  0.152000, 94.914910
  0.154000, 92.438270
  0.156000, 90.010370
  0.158000, 87.631110
  0.160000, 85.286540
  0.162000, 82.971070
  0.164000, 80.683160
  0.166000, 78.422680
  0.168000, 76.194660
  0.170000, 73.995050
  0.172000, 71.842940
  0.174000, 69.737410
  0.176000, 67.681920
  0.178000, 65.672710
  0.180000, 63.706450
  0.182000, 61.783920
  0.184000, 59.907650
  0.186000, 58.066330
  0.188000, 56.252840
  0.190000, 54.467630
  0.192000, 52.700750
  0.194000, 50.955910
  0.196000, 49.236920
  0.198000, 47.543770
  0.200000, 45.894650
  0.202000, 44.300110
  0.204000, 42.764400
  0.206000, 41.290990
  0.208000, 39.876190
  0.210000, 38.503810
  0.212000, 37.158920
  0.214000, 35.846100
  0.216000, 34.535810
  0.218000, 33.242420
  0.220000, 31.964460
  0.222000, 30.710220
  0.224000, 29.475200
  0.226000, 28.258670
  0.228000, 27.084730
  0.230000, 25.949790
  0.232000, 24.844260
  0.234000, 23.775240
  0.236000, 22.743870
  0.238000, 21.735490
  0.240000, 20.755230
  0.242000, 19.797120
  0.244000, 18.861470
  0.246000, 17.952400
  0.248000, 17.070440
  0.250000, 16.215140
  0.252000, 15.385750
  0.254000, 14.583990
  0.256000, 13.805770
  0.258000, 13.048670
  0.260000, 12.311220
  0.262000, 11.600740
  0.264000, 10.915420
  0.266000, 10.241850
  0.268000,  9.596000
  0.270000,  8.975720
  0.272000,  8.375710
  0.274000,  7.796880
  0.276000,  7.243450
  0.278000,  6.711920
  0.280000,  6.204750
  0.282000,  5.725580
  0.284000,  5.271720
  0.286000,  4.840950
  0.288000,  4.434700
  0.290000,  4.039360
  0.292000,  3.676940
  0.294000,  3.331590
  0.296000,  3.008310
  0.298000,  2.704180
  0.300000,  2.419730
  0.302000,  2.156730
  0.304000,  1.914860
  0.306000,  1.701860
  0.308000,  1.510560
  0.310000,  1.341740
  0.312000,  1.190750
  0.314000,  1.061660
  0.316000,  0.939920
  0.318000,  0.822280
  0.320000,  0.719280
  0.322000,  0.618120
  0.324000,  0.525280
  0.326000,  0.435010
  0.328000,  0.358730
  0.330000,  0.291540
  0.332000,  0.248020
  0.334000,  0.211590
  0.336000,  0.191190
  0.338000,  0.184360
  0.340000,  0.181960
  0.342000,  0.188850
  0.344000,  0.206370
  0.346000,  0.235850
  0.348000,  0.255960
  0.350000,  0.272590
  0.352000,  0.290130
  0.354000,  0.298850
  0.356000,  0.306250
  0.358000,  0.314180
  0.360000,  0.321560
  0.362000,  0.331230
  0.364000,  0.358800
  0.366000,  0.394240
  0.368000,  0.447310
  0.370000,  0.509450
  0.372000,  0.577070
  0.374000,  0.657150
  0.376000,  0.741100
  0.378000,  0.827350
  0.380000,  0.919610
  0.382000,  1.011500
  0.384000,  1.099040
  0.386000,  1.177050
  0.388000,  1.257350
  0.390000,  1.326550
  0.392000,  1.378680
  0.394000,  1.421710
  0.396000,  1.460070
  0.398000,  1.496370
  0.400000,  1.525160
  0.402000,  1.558210
  0.404000,  1.595960
  0.406000,  1.629790
  0.408000,  1.673360
  0.410000,  1.725770
  0.412000,  1.776000
  0.414000,  1.825200
  0.416000,  1.880340
  0.418000,  1.926800
  0.420000,  1.969580
  0.422000,  2.005820
  0.424000,  2.034910
  0.426000,  2.060030
  0.428000,  2.082040
  0.430000,  2.101370
  0.432000,  2.115480
  0.434000,  2.116500
  0.436000,  2.113100
  0.438000,  2.095910
  0.440000,  2.070980
  0.442000,  2.034900
  0.444000,  1.995480
  0.446000,  1.951700
  0.448000,  1.900730
  0.450000,  1.840100
  0.452000,  1.782360
  0.454000,  1.721190
  0.456000,  1.662210
  0.458000,  1.595270
  0.460000,  1.522990
  0.462000,  1.443610
  0.464000,  1.361580
  0.466000,  1.271490
  0.468000,  1.176110
  0.470000,  1.074240
  0.472000,  0.973760
  0.474000,  0.868240
  0.476000,  0.773150
  0.478000,  0.681140
  0.480000,  0.590680
  0.482000,  0.504430
  0.484000,  0.425630
  0.486000,  0.355900
  0.488000,  0.292930
  0.490000,  0.224400
  0.492000,  0.164200
  0.494000,  0.096120
  0.496000,  0.029060
  0.498000, -0.038310
  0.500000, -0.112370
  0.502000, -0.184710
  0.504000, -0.255800
  0.506000, -0.331080
  0.508000, -0.399810
  0.510000, -0.468480
  0.512000, -0.533580
  0.514000, -0.595380
  0.516000, -0.656120
  0.518000, -0.713640
  0.520000, -0.761410
  0.522000, -0.808400
  0.524000, -0.853570
  0.526000, -0.893660
  0.528000, -0.933560
  0.530000, -0.969790
  0.532000, -0.994630
  0.534000, -1.023290
  0.536000, -1.051960
  0.538000, -1.080720
  0.540000, -1.106810
  0.542000, -1.140980
  0.544000, -1.179530
  0.546000, -1.219880
  0.548000, -1.261620
  0.550000, -1.306830
  0.552000, -1.352910
  0.554000, -1.402770
  0.556000, -1.444840
  0.558000, -1.485390
  0.560000, -1.528590
  0.562000, -1.563200
  0.564000, -1.590970
  0.566000, -1.610370
  0.568000, -1.624050
  0.570000, -1.634520
  0.572000, -1.638960
  0.574000, -1.643430
  0.576000, -1.645530
  0.578000, -1.639000
  0.580000, -1.641600
  0.582000, -1.644460
  0.584000, -1.646430
  0.586000, -1.653220
  0.588000, -1.655360
  0.590000, -1.666120
  0.592000, -1.678960
  0.594000, -1.685860
  0.596000, -1.685220
  0.598000, -1.676130
  0.600000, -1.663900
  0.602000, -1.645880
  0.604000, -1.619480
  0.606000, -1.580450
  0.608000, -1.532150
  0.610000, -1.480040
  0.612000, -1.419530
  0.614000, -1.358170
  0.616000, -1.298910
  0.618000, -1.239970
  0.620000, -1.188550
  0.622000, -1.143740
  0.624000, -1.106900
  0.626000, -1.071400
  0.628000, -1.040620
  0.630000, -1.010570
  0.632000, -0.981480
  0.634000, -0.947170
  0.636000, -0.908400
  0.638000, -0.864270
  0.640000, -0.808980
  0.642000, -0.750230
  0.644000, -0.680570
  0.646000, -0.609540
  0.648000, -0.536880
  0.650000, -0.465060
  0.652000, -0.388580
  0.654000, -0.323420
  0.656000, -0.262170
  0.658000, -0.202260
  0.660000, -0.145200
  0.662000, -0.092690
  0.664000, -0.045320
  0.666000,  0.000430
  0.668000,  0.047250
  0.670000,  0.090380
  0.672000,  0.129430
  0.674000,  0.170670
  0.676000,  0.214230
  0.678000,  0.253410
  0.680000,  0.293760
  0.682000,  0.336550
  0.684000,  0.377320
  0.686000,  0.421030
  0.688000,  0.466000
  0.690000,  0.512900
  0.692000,  0.550560
  0.694000,  0.590250
  0.696000,  0.629880
  0.698000,  0.667640
  0.700000,  0.701690
  0.702000,  0.731960
  0.704000,  0.755850
  0.706000,  0.775160
  0.708000,  0.787940
  0.710000,  0.801450
  0.712000,  0.812320
  0.714000,  0.823850
  0.716000,  0.833050
  0.718000,  0.831200
  0.720000,  0.830380
  0.722000,  0.834240
  0.724000,  0.833370
  0.726000,  0.825830
  0.728000,  0.818590
  0.730000,  0.805330
  0.732000,  0.792820
  0.734000,  0.777650
  0.736000,  0.768290
  0.738000,  0.752070
  0.740000,  0.742490
  0.742000,  0.728910
  0.744000,  0.724120
  0.746000,  0.718270
  0.748000,  0.720890
  0.750000,  0.718810
  0.752000,  0.722600
  0.754000,  0.724230
  0.756000,  0.730490
  0.758000,  0.736490
  0.760000,  0.740460
  0.762000,  0.744780
  0.764000,  0.748230
  0.766000,  0.754120
  0.768000,  0.757810
  0.770000,  0.758040
  0.772000,  0.762900
  0.774000,  0.761000
  0.776000,  0.757870
  0.778000,  0.752290
  0.780000,  0.746570
  0.782000,  0.735690
  0.784000,  0.725590
  0.786000,  0.710860
  0.788000,  0.696720
  0.790000,  0.683270
  0.792000,  0.666090
  0.794000,  0.649930
  0.796000,  0.631760
  0.798000,  0.607220
  0.800000,  0.581020
  0.802000,  0.555750
  0.804000,  0.527990
  0.806000,  0.498980
  0.808000,  0.475670
  0.810000,  0.441370
  0.812000,  0.413570
  0.814000,  0.389130
  0.816000,  0.367340
  0.818000,  0.347210
  0.820000,  0.323250
  0.822000,  0.306820
  0.824000,  0.280100
  0.826000,  0.257190
  0.828000,  0.240300
  0.830000,  0.215030
  0.832000,  0.194200
  0.834000,  0.169690
  0.836000,  0.148430
  0.838000,  0.130920
  0.840000,  0.107340
  0.842000,  0.091650
  0.844000,  0.074490
  0.846000,  0.060300
  0.848000,  0.047930
  0.850000,  0.038130
  0.852000,  0.027920
  0.854000,  0.018260
  0.856000,  0.008590
  0.858000, -0.005340
  0.860000, -0.019260
  0.862000, -0.028250
  0.864000, -0.041520
  0.866000, -0.054870
  0.868000, -0.061430
  0.870000, -0.071830
  0.872000, -0.075240
  0.874000, -0.076670
  0.876000, -0.074380
  0.878000, -0.068390
  0.880000, -0.062500
  0.882000, -0.053570
  0.884000, -0.047010
  0.886000, -0.039820
  0.888000, -0.037680
  0.890000, -0.034700
  0.892000, -0.029280
  0.894000, -0.035570
  0.896000, -0.045380
  0.898000, -0.057820
  0.900000, -0.072310
  0.902000, -0.087310
  0.904000, -0.100850
  0.906000, -0.116310
  0.908000, -0.128310
  0.910000, -0.139130
  0.912000, -0.148300
  0.914000, -0.149130
  0.916000, -0.146110
  0.918000, -0.144560
  0.920000, -0.136560
  0.922000, -0.131070
  0.924000, -0.124640
  0.926000, -0.116400
  0.928000, -0.100950
  0.930000, -0.090930
  0.932000, -0.081230
  0.934000, -0.066260
  0.936000, -0.057420
  0.938000, -0.045810
  0.940000, -0.035730
  0.942000, -0.023010
  0.944000, -0.006700
  0.946000,  0.011180
  0.948000,  0.025610
  0.950000,  0.041500
  0.952000,  0.058330
  0.954000,  0.069740
  0.956000,  0.086820
  0.958000,  0.097760
  0.960000,  0.111990
  0.962000,  0.114090
  0.964000,  0.117320
  0.966000,  0.114660
  0.968000,  0.105270
  0.970000,  0.094360
  0.972000,  0.083580
  0.974000,  0.069520
  0.976000,  0.057440
  0.978000,  0.049050
  0.980000,  0.046820
  0.982000,  0.043310
  0.984000,  0.043030
  0.986000,  0.047890
  0.988000,  0.061190
  0.990000,  0.074310
  0.992000,  0.086620
  0.994000,  0.099680
  0.996000,  0.112910
  0.998000,  0.122330
  1.000000,  0.130400
