# z (nm)   (kJ/mol)
  0.064000,278.514910
  0.066000,276.296590
  0.068000,274.112310
  0.070000,271.600860
  0.072000,269.058080
  0.074000,266.538300
  0.076000,263.956390
  0.078000,261.487660
  0.080000,259.022250
  0.082000,256.446110
  0.084000,253.756220
  0.086000,250.955010
  0.088000,248.007460
  0.090000,244.900910
  0.092000,241.621610
  0.094000,238.164400
  0.096000,234.535640
  0.098000,230.750800
  0.100000,226.824700
  0.102000,222.793510
  0.104000,218.687210
  0.106000,214.545490
  0.108000,210.411480
  0.110000,206.312430
  0.112000,202.265960
  0.114000,198.286580
  0.116000,194.358680
  0.118000,190.472690
  0.120000,186.607600
  0.122000,182.750130
  0.124000,178.908100
  0.126000,175.108430
  0.128000,171.385280
  0.130000,167.761610
  0.132000,164.254550
  0.134000,160.848090
  0.136000,157.522560
  0.138000,154.239850
  0.140000,150.966860
  0.142000,147.698470
  0.144000,144.445040
  0.146000,141.234340
  0.148000,138.084820
  0.150000,135.013960
  0.152000,132.011620
  0.154000,129.052340
  0.156000,126.112940
  0.158000,123.165120
  0.160000,120.197790
  0.162000,117.213620
  0.164000,114.239750
  0.166000,111.308710
  0.168000,108.441890
  0.170000,105.653370
  0.172000,102.943540
  0.174000,100.318200
  0.176000, 97.766020
  0.178000, 95.274480
  0.180000, 92.835450
  0.182000, 90.429360
  0.184000, 88.057480
  0.186000, 85.703420
  0.188000, 83.369900
  0.190000, 81.053920
  0.192000, 78.756710
  0.194000, 76.496600
  0.196000, 74.262660
  0.198000, 72.082920
  0.200000, 69.950300
  0.202000, 67.861760
  0.204000, 65.815170
  0.206000, 63.805000
  0.208000, 61.812400
  0.210000, 59.836680
  0.212000, 57.878050
  0.214000, 55.951670
  0.216000, 54.057290
  0.218000, 52.216350
  0.220000, 50.428480
  0.222000, 48.695900
  0.224000, 46.994770
  0.226000, 45.322050
  0.228000, 43.660830
  0.230000, 42.007540
  0.232000, 40.368430
  0.234000, 38.746530
  0.236000, 37.172100
  0.238000, 35.655510
  0.240000, 34.204390
  0.242000, 32.822150
  0.244000, 31.488710
  0.246000, 30.167350
  0.248000, 28.835450
  0.250000, 27.502250
  0.252000, 26.205630
  0.254000, 24.968770
  0.256000, 23.819310
  0.258000, 22.763470
  0.260000, 21.763980
  0.262000, 20.798910
  0.264000, 19.831310
  0.266000, 18.842060
  0.268000, 17.835440
  0.270000, 16.828810
  0.272000, 15.833810
  0.274000, 14.889560
  0.276000, 14.010460
  0.278000, 13.201530
  0.280000, 12.465070
  0.282000, 11.786660
  0.284000, 11.146780
  0.286000, 10.535070
  0.288000,  9.941810
  0.290000,  9.359020
  0.292000,  8.783910
  0.294000,  8.205310
  0.296000,  7.620570
  0.298000,  7.023530
  0.300000,  6.434890
  0.302000,  5.869840
  0.304000,  5.346190
  0.306000,  4.881810
  0.308000,  4.462210
  0.310000,  4.091420
  0.312000,  3.742640
  0.314000,  3.401890
  0.316000,  3.058990
  0.318000,  2.703250
  0.320000,  2.347210
  0.322000,  1.982210
  0.324000,  1.626910
  0.326000,  1.286770
  0.328000,  0.973840
  0.330000,  0.690950
  0.332000,  0.440730
  0.334000,  0.226000
  0.336000,  0.036720
  0.338000, -0.124150
  0.340000, -0.273650
  0.342000, -0.411670
  0.344000, -0.547060
  0.346000, -0.684190
  0.348000, -0.816360
  0.350000, -0.937200
  0.352000, -1.043880
  0.354000, -1.129050
  0.356000, -1.197140
  0.358000, -1.242530
  0.360000, -1.270080
  0.362000, -1.287560
  0.364000, -1.310370
  0.366000, -1.335150
  0.368000, -1.367510
  0.370000, -1.417120
  0.372000, -1.469580
  0.374000, -1.524790
  0.376000, -1.578110
  0.378000, -1.624340
  0.380000, -1.661010
  0.382000, -1.682740
  0.384000, -1.686530
  0.386000, -1.676200
  0.388000, -1.661790
  0.390000, -1.651860
  0.392000, -1.643930
  0.394000, -1.632890
  0.396000, -1.628740
  0.398000, -1.637460
  0.400000, -1.633090
  0.402000, -1.623640
  0.404000, -1.617550
  0.406000, -1.601510
  0.408000, -1.572800
  0.410000, -1.536700
  0.412000, -1.504640
  0.414000, -1.466600
  0.416000, -1.425440
  0.418000, -1.387460
  0.420000, -1.334440
  0.422000, -1.281410
  0.424000, -1.214650
  0.426000, -1.142790
  0.428000, -1.068350
  0.430000, -0.981920
  0.432000, -0.892730
  0.434000, -0.797330
  0.436000, -0.705850
  0.438000, -0.617210
  0.440000, -0.534510
  0.442000, -0.465180
  0.444000, -0.398890
  0.446000, -0.346500
  0.448000, -0.303220
  0.450000, -0.259870
  0.452000, -0.217180
  0.454000, -0.171370
  0.456000, -0.111990
  0.458000, -0.043150
  0.460000,  0.030230
  0.462000,  0.104560
  0.464000,  0.181520
  0.466000,  0.253300
  0.468000,  0.316180
  0.470000,  0.363620
  0.472000,  0.396650
  0.474000,  0.408230
  0.476000,  0.407870
  0.478000,  0.394340
  0.480000,  0.374510
  0.482000,  0.345670
  0.484000,  0.328540
  0.486000,  0.317870
  0.488000,  0.312820
  0.490000,  0.314050
  0.492000,  0.319200
  0.494000,  0.326710
  0.496000,  0.329770
  0.498000,  0.321570
  0.500000,  0.297410
  0.502000,  0.262180
  0.504000,  0.211430
  0.506000,  0.153350
  0.508000,  0.089200
  0.510000,  0.027100
  0.512000, -0.034310
  0.514000, -0.083220
  0.516000, -0.129870
  0.518000, -0.167700
  0.520000, -0.199810
  0.522000, -0.233440
  0.524000, -0.265850
  0.526000, -0.304270
  0.528000, -0.342860
  0.530000, -0.383200
  0.532000, -0.426430
  0.534000, -0.473410
  0.536000, -0.519580
  0.538000, -0.554800
  0.540000, -0.589790
  0.542000, -0.632430
  0.544000, -0.672720
  0.546000, -0.721810
  0.548000, -0.766390
  0.550000, -0.814290
  0.552000, -0.868740
  0.554000, -0.928870
  0.556000, -0.978130
  0.558000, -1.022570
  0.560000, -1.059400
  0.562000, -1.086330
  0.564000, -1.109070
  0.566000, -1.127220
  0.568000, -1.139030
  0.570000, -1.151980
  0.572000, -1.167620
  0.574000, -1.187010
  0.576000, -1.210600
  0.578000, -1.241320
  0.580000, -1.274180
  0.582000, -1.303230
  0.584000, -1.329680
  0.586000, -1.353860
  0.588000, -1.374480
  0.590000, -1.385320
  0.592000, -1.392260
  0.594000, -1.397780
  0.596000, -1.389080
  0.598000, -1.389720
  0.600000, -1.386520
  0.602000, -1.384130
  0.604000, -1.379370
  0.606000, -1.373930
  0.608000, -1.364710
  0.610000, -1.350190
  0.612000, -1.333640
  0.614000, -1.311330
  0.616000, -1.283660
  0.618000, -1.257740
  0.620000, -1.227960
  0.622000, -1.201560
  0.624000, -1.165340
  0.626000, -1.139080
  0.628000, -1.096490
  0.630000, -1.060570
  0.632000, -1.032850
  0.634000, -1.004590
  0.636000, -0.975340
  0.638000, -0.944710
  0.640000, -0.917260
  0.642000, -0.884590
  0.644000, -0.844600
  0.646000, -0.805900
  0.648000, -0.765560
  0.650000, -0.717440
  0.652000, -0.670540
  0.654000, -0.627080
  0.656000, -0.590580
  0.658000, -0.551010
  0.660000, -0.518010
  0.662000, -0.488340
  0.664000, -0.458760
  0.666000, -0.432270
  0.668000, -0.414220
  0.670000, -0.393850
  0.672000, -0.374870
  0.674000, -0.357140
  0.676000, -0.334850
  0.678000, -0.306630
  0.680000, -0.284620
  0.682000, -0.247100
  0.684000, -0.213260
  0.686000, -0.170800
  0.688000, -0.122500
  0.690000, -0.076820
  0.692000, -0.030870
  0.694000,  0.014600
  0.696000,  0.059870
  0.698000,  0.095900
  0.700000,  0.124770
  0.702000,  0.157330
  0.704000,  0.179520
  0.706000,  0.200930
  0.708000,  0.223890
  0.710000,  0.243590
  0.712000,  0.271490
  0.714000,  0.301420
  0.716000,  0.333340
  0.718000,  0.369900
  0.720000,  0.411070
  0.722000,  0.453880
  0.724000,  0.497960
  0.726000,  0.533950
  0.728000,  0.564500
  0.730000,  0.590160
  0.732000,  0.611040
  0.734000,  0.624880
  0.736000,  0.633640
  0.738000,  0.642300
  0.740000,  0.645680
  0.742000,  0.647260
  0.744000,  0.657780
  0.746000,  0.671270
  0.748000,  0.691920
  0.750000,  0.717910
  0.752000,  0.750520
  0.754000,  0.790770
  0.756000,  0.829620
  0.758000,  0.873460
  0.760000,  0.904250
  0.762000,  0.931300
  0.764000,  0.943260
  0.766000,  0.952750
  0.768000,  0.960300
  0.770000,  0.953680
  0.772000,  0.946910
  0.774000,  0.934990
  0.776000,  0.924420
  0.778000,  0.913980
  0.780000,  0.901300
  0.782000,  0.889860
  0.784000,  0.880380
  0.786000,  0.873890
  0.788000,  0.860870
  0.790000,  0.852090
  0.792000,  0.845400
  0.794000,  0.834750
  0.796000,  0.827750
  0.798000,  0.821320
  0.800000,  0.814890
  0.802000,  0.805000
  0.804000,  0.801830
  0.806000,  0.787190
  0.808000,  0.775480
  0.810000,  0.755830
  0.812000,  0.737000
  0.814000,  0.721060
  0.816000,  0.703150
  0.818000,  0.683680
  0.820000,  0.669010
  0.822000,  0.655690
  0.824000,  0.650670
  0.826000,  0.643770
  0.828000,  0.642400
  0.830000,  0.637160
  0.832000,  0.630300
  0.834000,  0.624120
  0.836000,  0.611680
  0.838000,  0.591110
  0.840000,  0.570210
  0.842000,  0.540130
  0.844000,  0.510530
  0.846000,  0.476820
  0.848000,  0.436370
  0.850000,  0.404190
  0.852000,  0.373530
  0.854000,  0.343130
  0.856000,  0.312030
  0.858000,  0.287610
  0.860000,  0.272220
  0.862000,  0.249940
  0.864000,  0.233360
  0.866000,  0.220780
  0.868000,  0.206990
  0.870000,  0.194130
  0.872000,  0.176980
  0.874000,  0.155820
  0.876000,  0.128840
  0.878000,  0.094030
  0.880000,  0.062570
  0.882000,  0.026030
  0.884000, -0.007810
  0.886000, -0.035180
  0.888000, -0.054930
  0.890000, -0.068170
  0.892000, -0.069290
  0.894000, -0.066910
  0.896000, -0.055280
  0.898000, -0.036840
  0.900000, -0.019670
  0.902000,  0.000970
  0.904000,  0.015660
  0.906000,  0.023310
  0.908000,  0.026890
  0.910000,  0.021310
  0.912000,  0.011580
  0.914000, -0.002790
  0.916000, -0.016340
  0.918000, -0.032980
  0.920000, -0.051980
  0.922000, -0.075600
  0.924000, -0.084390
  0.926000, -0.090100
  0.928000, -0.088620
  0.930000, -0.080320
  0.932000, -0.072410
  0.934000, -0.061670
  0.936000, -0.055830
  0.938000, -0.036590
  0.940000, -0.026540
  0.942000, -0.014300
  0.944000, -0.005780
  0.946000, -0.001970
  0.948000, -0.002090
  0.950000, -0.006040
  0.952000, -0.010630
  0.954000, -0.017410
  0.956000, -0.028230
  0.958000, -0.044320
  0.960000, -0.056500
  0.962000, -0.060580
  0.964000, -0.060060
  0.966000, -0.059430
  0.968000, -0.053060
  0.970000, -0.041350
  0.972000, -0.025960
  0.974000, -0.007490
  0.976000,  0.008030
  0.978000,  0.022360
  0.980000,  0.032600
  0.982000,  0.048050
  0.984000,  0.060970
  0.986000,  0.072300
  0.988000,  0.091520
  0.990000,  0.103740
  0.992000,  0.117910
  0.994000,  0.134910
  0.996000,  0.149440
  0.998000,  0.160960
  1.000000,  0.168880
