# z (nm)   (kJ/mol)
  0.146000,267.086530
  0.148000,262.958700
  0.150000,259.876520
  0.152000,257.234180
  0.154000,254.649410
  0.156000,252.130640
  0.158000,249.643340
  0.160000,247.107210
  0.162000,244.481640
  0.164000,241.781510
  0.166000,238.958130
  0.168000,235.991960
  0.170000,232.878240
  0.172000,229.596970
  0.174000,226.142340
  0.176000,222.502140
  0.178000,218.674620
  0.180000,214.656670
  0.182000,210.437940
  0.184000,206.008160
  0.186000,201.355450
  0.188000,196.465610
  0.190000,191.338260
  0.192000,186.001900
  0.194000,180.509780
  0.196000,174.947890
  0.198000,169.439130
  0.200000,164.089480
  0.202000,158.981650
  0.204000,154.158380
  0.206000,149.603470
  0.208000,145.260130
  0.210000,141.073100
  0.212000,137.002040
  0.214000,133.036710
  0.216000,129.193820
  0.218000,125.470500
  0.220000,121.857060
  0.222000,118.290430
  0.224000,114.720170
  0.226000,111.140750
  0.228000,107.578180
  0.230000,104.094020
  0.232000,100.710230
  0.234000, 97.402300
  0.236000, 94.131770
  0.238000, 90.865820
  0.240000, 87.620630
  0.242000, 84.447950
  0.244000, 81.380540
  0.246000, 78.447670
  0.248000, 75.630480
  0.250000, 72.894770
  0.252000, 70.209760
  0.254000, 67.547670
  0.256000, 64.892180
  0.258000, 62.258630
  0.260000, 59.655620
  0.262000, 57.122730
  0.264000, 54.693410
  0.266000, 52.379020
  0.268000, 50.175450
  0.270000, 48.066550
  0.272000, 46.025220
  0.274000, 44.027180
  0.276000, 42.059900
  0.278000, 40.126280
  0.280000, 38.222710
  0.282000, 36.350120
  0.284000, 34.506950
  0.286000, 32.723800
  0.288000, 31.011350
  0.290000, 29.376620
  0.292000, 27.845200
  0.294000, 26.415350
  0.296000, 25.071000
  0.298000, 23.798420
  0.300000, 22.551600
  0.302000, 21.323950
  0.304000, 20.118230
  0.306000, 18.960090
  0.308000, 17.880540
  0.310000, 16.857640
  0.312000, 15.862350
  0.314000, 14.885220
  0.316000, 13.927610
  0.318000, 13.006080
  0.320000, 12.132770
  0.322000, 11.308920
  0.324000, 10.543890
  0.326000,  9.839270
  0.328000,  9.182690
  0.330000,  8.565030
  0.332000,  7.992580
  0.334000,  7.447020
  0.336000,  6.924080
  0.338000,  6.418570
  0.340000,  5.927460
  0.342000,  5.456230
  0.344000,  4.998130
  0.346000,  4.555830
  0.348000,  4.112690
  0.350000,  3.696580
  0.352000,  3.286590
  0.354000,  2.895600
  0.356000,  2.501660
  0.358000,  2.119490
  0.360000,  1.738620
  0.362000,  1.355450
  0.364000,  0.992740
  0.366000,  0.652400
  0.368000,  0.345050
  0.370000,  0.056380
  0.372000, -0.220510
  0.374000, -0.487070
  0.376000, -0.774930
  0.378000, -1.064070
  0.380000, -1.347250
  0.382000, -1.611580
  0.384000, -1.850380
  0.386000, -2.057280
  0.388000, -2.225170
  0.390000, -2.378320
  0.392000, -2.499210
  0.394000, -2.609310
  0.396000, -2.712250
  0.398000, -2.802490
  0.400000, -2.881060
  0.402000, -2.943580
  0.404000, -2.981270
  0.406000, -2.985430
  0.408000, -2.959750
  0.410000, -2.913460
  0.412000, -2.835740
  0.414000, -2.744270
  0.416000, -2.630420
  0.418000, -2.495020
  0.420000, -2.346340
  0.422000, -2.188760
  0.424000, -2.051890
  0.426000, -1.943350
  0.428000, -1.879630
  0.430000, -1.844110
  0.432000, -1.820430
  0.434000, -1.779410
  0.436000, -1.702370
  0.438000, -1.591940
  0.440000, -1.449540
  0.442000, -1.317460
  0.444000, -1.221650
  0.446000, -1.164810
  0.448000, -1.147940
  0.450000, -1.156210
  0.452000, -1.180560
  0.454000, -1.216500
  0.456000, -1.262520
  0.458000, -1.302230
  0.460000, -1.349740
  0.462000, -1.379640
  0.464000, -1.390730
  0.466000, -1.381320
  0.468000, -1.354840
  0.470000, -1.319020
  0.472000, -1.282170
  0.474000, -1.259420
  0.476000, -1.259810
  0.478000, -1.302680
  0.480000, -1.376030
  0.482000, -1.464120
  0.484000, -1.549910
  0.486000, -1.610270
  0.488000, -1.629320
  0.490000, -1.625490
  0.492000, -1.596090
  0.494000, -1.569170
  0.496000, -1.554370
  0.498000, -1.558930
  0.500000, -1.575030
  0.502000, -1.609950
  0.504000, -1.650160
  0.506000, -1.703790
  0.508000, -1.761240
  0.510000, -1.818950
  0.512000, -1.869700
  0.514000, -1.914840
  0.516000, -1.954250
  0.518000, -1.988160
  0.520000, -2.035850
  0.522000, -2.087960
  0.524000, -2.135920
  0.526000, -2.195190
  0.528000, -2.261530
  0.530000, -2.338890
  0.532000, -2.424970
  0.534000, -2.520040
  0.536000, -2.617920
  0.538000, -2.708810
  0.540000, -2.804660
  0.542000, -2.890290
  0.544000, -2.967970
  0.546000, -3.030860
  0.548000, -3.081530
  0.550000, -3.126040
  0.552000, -3.166770
  0.554000, -3.207950
  0.556000, -3.246520
  0.558000, -3.305480
  0.560000, -3.366700
  0.562000, -3.431490
  0.564000, -3.491870
  0.566000, -3.524740
  0.568000, -3.562100
  0.570000, -3.575770
  0.572000, -3.578930
  0.574000, -3.574020
  0.576000, -3.566160
  0.578000, -3.566920
  0.580000, -3.587850
  0.582000, -3.617830
  0.584000, -3.643620
  0.586000, -3.662810
  0.588000, -3.671930
  0.590000, -3.664290
  0.592000, -3.632470
  0.594000, -3.573650
  0.596000, -3.510690
  0.598000, -3.448820
  0.600000, -3.383230
  0.602000, -3.330670
  0.604000, -3.281910
  0.606000, -3.248540
  0.608000, -3.212500
  0.610000, -3.185210
  0.612000, -3.156580
  0.614000, -3.142360
  0.616000, -3.135980
  0.618000, -3.136080
  0.620000, -3.139470
  0.622000, -3.145700
  0.624000, -3.151350
  0.626000, -3.160210
  0.628000, -3.163080
  0.630000, -3.160760
  0.632000, -3.156000
  0.634000, -3.154690
  0.636000, -3.155320
  0.638000, -3.167020
  0.640000, -3.185360
  0.642000, -3.217160
  0.644000, -3.244830
  0.646000, -3.265920
  0.648000, -3.272800
  0.650000, -3.271590
  0.652000, -3.270140
  0.654000, -3.272690
  0.656000, -3.283530
  0.658000, -3.305510
  0.660000, -3.342810
  0.662000, -3.380150
  0.664000, -3.423190
  0.666000, -3.451580
  0.668000, -3.461560
  0.670000, -3.454490
  0.672000, -3.436380
  0.674000, -3.410670
  0.676000, -3.395820
  0.678000, -3.386460
  0.680000, -3.402920
  0.682000, -3.430900
  0.684000, -3.464630
  0.686000, -3.490370
  0.688000, -3.490160
  0.690000, -3.461180
  0.692000, -3.404730
  0.694000, -3.324320
  0.696000, -3.244580
  0.698000, -3.173860
  0.700000, -3.123380
  0.702000, -3.097230
  0.704000, -3.091130
  0.706000, -3.093390
  0.708000, -3.081780
  0.710000, -3.058500
  0.712000, -3.014370
  0.714000, -2.956500
  0.716000, -2.891740
  0.718000, -2.816550
  0.720000, -2.744060
  0.722000, -2.680240
  0.724000, -2.626050
  0.726000, -2.582980
  0.728000, -2.542180
  0.730000, -2.517110
  0.732000, -2.496820
  0.734000, -2.483600
  0.736000, -2.475680
  0.738000, -2.474550
  0.740000, -2.477680
  0.742000, -2.490730
  0.744000, -2.495910
  0.746000, -2.500050
  0.748000, -2.496480
  0.750000, -2.477860
  0.752000, -2.437970
  0.754000, -2.393480
  0.756000, -2.333750
  0.758000, -2.264730
  0.760000, -2.191090
  0.762000, -2.115640
  0.764000, -2.039830
  0.766000, -1.980560
  0.768000, -1.926750
  0.770000, -1.884620
  0.772000, -1.846870
  0.774000, -1.808120
  0.776000, -1.773410
  0.778000, -1.740830
  0.780000, -1.712200
  0.782000, -1.693880
  0.784000, -1.672070
  0.786000, -1.654360
  0.788000, -1.626000
  0.790000, -1.584460
  0.792000, -1.530860
  0.794000, -1.459320
  0.796000, -1.377620
  0.798000, -1.287750
  0.800000, -1.205320
  0.802000, -1.128930
  0.804000, -1.073440
  0.806000, -1.046850
  0.808000, -1.040630
  0.810000, -1.058760
  0.812000, -1.082480
  0.814000, -1.096860
  0.816000, -1.096670
  0.818000, -1.055010
  0.820000, -0.995140
  0.822000, -0.911540
  0.824000, -0.820710
  0.826000, -0.732120
  0.828000, -0.662580
  0.830000, -0.607570
  0.832000, -0.564060
  0.834000, -0.541050
  0.836000, -0.533180
  0.838000, -0.530420
  0.840000, -0.528090
  0.842000, -0.523740
  0.844000, -0.514070
  0.846000, -0.486560
  0.848000, -0.450190
  0.850000, -0.403660
  0.852000, -0.344950
  0.854000, -0.276760
  0.856000, -0.204890
  0.858000, -0.136440
  0.860000, -0.079670
  0.862000, -0.030870
  0.864000,  0.003260
  0.866000,  0.011830
  0.868000, -0.003040
  0.870000, -0.026960
  0.872000, -0.047850
  0.874000, -0.070350
  0.876000, -0.081870
  0.878000, -0.080740
  0.880000, -0.065580
  0.882000, -0.041500
  0.884000, -0.007130
  0.886000,  0.030450
  0.888000,  0.069800
  0.890000,  0.102300
  0.892000,  0.123240
  0.894000,  0.145380
  0.896000,  0.164120
  0.898000,  0.172890
  0.900000,  0.185460
  0.902000,  0.186640
  0.904000,  0.189100
  0.906000,  0.187080
  0.908000,  0.179440
  0.910000,  0.180920
  0.912000,  0.184280
  0.914000,  0.187850
  0.916000,  0.201780
  0.918000,  0.230410
  0.920000,  0.262850
  0.922000,  0.289780
  0.924000,  0.306920
  0.926000,  0.292630
  0.928000,  0.255090
  0.930000,  0.192510
  0.932000,  0.117500
  0.934000,  0.045810
  0.936000, -0.010850
  0.938000, -0.040740
  0.940000, -0.036330
  0.942000, -0.011540
  0.944000,  0.025590
  0.946000,  0.063290
  0.948000,  0.088720
  0.950000,  0.097310
  0.952000,  0.083170
  0.954000,  0.032990
  0.956000, -0.019530
  0.958000, -0.087120
  0.960000, -0.144770
  0.962000, -0.188570
  0.964000, -0.216540
  0.966000, -0.229660
  0.968000, -0.226990
  0.970000, -0.214510
  0.972000, -0.196030
  0.974000, -0.175090
  0.976000, -0.155570
  0.978000, -0.148830
  0.980000, -0.138080
  0.982000, -0.124330
  0.984000, -0.118590
  0.986000, -0.119080
  0.988000, -0.124170
  0.990000, -0.135060
  0.992000, -0.154010
  0.994000, -0.176610
  0.996000, -0.200960
  0.998000, -0.226260
  1.000000, -0.261830
