# z (nm)   (kJ/mol)
  0.3040  308.27364
  0.3060  304.73190
  0.3080  300.61526
  0.3100  296.82873
  0.3120  292.69021
  0.3140  288.71634
  0.3160  284.70570
  0.3180  280.64553
  0.3200  276.44943
  0.3220  272.05152
  0.3240  267.44059
  0.3260  262.57464
  0.3280  257.42637
  0.3300  251.96351
  0.3320  246.16180
  0.3340  239.99402
  0.3360  233.43915
  0.3380  226.48910
  0.3400  219.14658
  0.3420  211.42348
  0.3440  203.34373
  0.3460  194.94973
  0.3480  186.30665
  0.3500  177.49903
  0.3520  168.63699
  0.3540  159.83119
  0.3560  151.20061
  0.3580  142.83368
  0.3600  134.79840
  0.3620  127.12064
  0.3640  119.79987
  0.3660  112.81236
  0.3680  106.14654
  0.3700   99.79831
  0.3720   93.79708
  0.3740   88.16422
  0.3760   82.92524
  0.3780   78.04016
  0.3800   73.45593
  0.3820   69.09116
  0.3840   64.90114
  0.3860   60.86724
  0.3880   57.00491
  0.3900   53.34083
  0.3920   49.87366
  0.3940   46.59075
  0.3960   43.47192
  0.3980   40.49435
  0.4000   37.64840
  0.4020   34.93137
  0.4040   32.36994
  0.4060   30.00059
  0.4080   27.84867
  0.4100   25.92018
  0.4120   24.19368
  0.4140   22.63122
  0.4160   21.16737
  0.4180   19.75318
  0.4200   18.36281
  0.4220   17.01139
  0.4240   15.72192
  0.4260   14.53418
  0.4280   13.46408
  0.4300   12.52580
  0.4320   11.69575
  0.4340   10.94339
  0.4360   10.24086
  0.4380    9.56345
  0.4400    8.88142
  0.4420    8.19935
  0.4440    7.52530
  0.4460    6.87864
  0.4480    6.26434
  0.4500    5.70609
  0.4520    5.20431
  0.4540    4.75857
  0.4560    4.36812
  0.4580    4.03637
  0.4600    3.74165
  0.4620    3.48235
  0.4640    3.23570
  0.4660    3.00145
  0.4680    2.76821
  0.4700    2.52274
  0.4720    2.27245
  0.4740    2.02109
  0.4760    1.77113
  0.4780    1.52858
  0.4800    1.30752
  0.4820    1.11798
  0.4840    0.95188
  0.4860    0.80932
  0.4880    0.66654
  0.4900    0.50747
  0.4920    0.31835
  0.4940    0.07493
  0.4960   -0.22586
  0.4980   -0.57380
  0.5000   -0.95176
  0.5020   -1.32332
  0.5040   -1.68061
  0.5060   -1.99186
  0.5080   -2.25641
  0.5100   -2.47735
  0.5120   -2.66941
  0.5140   -2.83750
  0.5160   -2.98862
  0.5180   -3.12047
  0.5200   -3.23347
  0.5220   -3.32375
  0.5240   -3.39119
  0.5260   -3.43896
  0.5280   -3.45980
  0.5300   -3.43609
  0.5320   -3.34826
  0.5340   -3.18892
  0.5360   -2.96768
  0.5380   -2.68932
  0.5400   -2.38410
  0.5420   -2.07440
  0.5440   -1.79687
  0.5460   -1.55765
  0.5480   -1.38533
  0.5500   -1.25794
  0.5520   -1.15260
  0.5540   -1.05117
  0.5560   -0.93847
  0.5580   -0.79821
  0.5600   -0.62814
  0.5620   -0.43134
  0.5640   -0.22513
  0.5660   -0.02848
  0.5680    0.14953
  0.5700    0.29801
  0.5720    0.41362
  0.5740    0.50796
  0.5760    0.57881
  0.5780    0.63498
  0.5800    0.69048
  0.5820    0.74794
  0.5840    0.81605
  0.5860    0.89999
  0.5880    0.99956
  0.5900    1.11304
  0.5920    1.23168
  0.5940    1.36079
  0.5960    1.49056
  0.5980    1.62430
  0.6000    1.74221
  0.6020    1.85834
  0.6040    1.97051
  0.6060    2.08485
  0.6080    2.20274
  0.6100    2.31260
  0.6120    2.41037
  0.6140    2.49296
  0.6160    2.54981
  0.6180    2.59206
  0.6200    2.61450
  0.6220    2.62575
  0.6240    2.64534
  0.6260    2.67364
  0.6280    2.72882
  0.6300    2.81339
  0.6320    2.91274
  0.6340    3.01794
  0.6360    3.11183
  0.6380    3.18295
  0.6400    3.22283
  0.6420    3.22220
  0.6440    3.17971
  0.6460    3.10717
  0.6480    3.01716
  0.6500    2.92870
  0.6520    2.84440
  0.6540    2.79213
  0.6560    2.76802
  0.6580    2.77141
  0.6600    2.79358
  0.6620    2.82356
  0.6640    2.84329
  0.6660    2.84443
  0.6680    2.81283
  0.6700    2.76158
  0.6720    2.68301
  0.6740    2.58779
  0.6760    2.48758
  0.6780    2.40297
  0.6800    2.32075
  0.6820    2.24390
  0.6840    2.18114
  0.6860    2.12232
  0.6880    2.05469
  0.6900    1.99125
  0.6920    1.91551
  0.6940    1.84129
  0.6960    1.76221
  0.6980    1.68694
  0.7000    1.60714
  0.7020    1.52464
  0.7040    1.44414
  0.7060    1.36772
  0.7080    1.28465
  0.7100    1.20863
  0.7120    1.12675
  0.7140    1.04004
  0.7160    0.94618
  0.7180    0.83520
  0.7200    0.72129
  0.7220    0.60473
  0.7240    0.48765
  0.7260    0.36909
  0.7280    0.26326
  0.7300    0.17563
  0.7320    0.09145
  0.7340    0.02865
  0.7360   -0.02795
  0.7380   -0.07394
  0.7400   -0.11811
  0.7420   -0.16537
  0.7440   -0.22544
  0.7460   -0.28904
  0.7480   -0.35489
  0.7500   -0.42792
  0.7520   -0.50591
  0.7540   -0.57889
  0.7560   -0.64566
  0.7580   -0.70502
  0.7600   -0.75907
  0.7620   -0.79787
  0.7640   -0.82913
  0.7660   -0.85702
  0.7680   -0.87100
  0.7700   -0.88681
  0.7720   -0.89648
  0.7740   -0.90516
  0.7760   -0.92244
  0.7780   -0.94098
  0.7800   -0.96440
  0.7820   -0.99380
  0.7840   -1.02364
  0.7860   -1.04576
  0.7880   -1.06548
  0.7900   -1.07833
  0.7920   -1.07404
  0.7940   -1.06179
  0.7960   -1.04406
  0.7980   -1.01753
  0.8000   -0.98967
  0.8020   -0.95942
  0.8040   -0.93027
  0.8060   -0.90557
  0.8080   -0.88302
  0.8100   -0.87905
  0.8120   -0.86972
  0.8140   -0.86986
  0.8160   -0.86734
  0.8180   -0.87288
  0.8200   -0.88387
  0.8220   -0.88188
  0.8240   -0.87175
  0.8260   -0.86144
  0.8280   -0.84264
  0.8300   -0.82402
  0.8320   -0.80305
  0.8340   -0.77864
  0.8360   -0.75320
  0.8380   -0.73049
  0.8400   -0.70397
  0.8420   -0.67535
  0.8440   -0.64258
  0.8460   -0.60969
  0.8480   -0.59138
  0.8500   -0.58023
  0.8520   -0.57006
  0.8540   -0.56604
  0.8560   -0.56437
  0.8580   -0.56805
  0.8600   -0.57053
  0.8620   -0.57273
  0.8640   -0.56573
  0.8660   -0.55288
  0.8680   -0.53287
  0.8700   -0.49842
  0.8720   -0.46770
  0.8740   -0.43281
  0.8760   -0.39872
  0.8780   -0.37086
  0.8800   -0.35218
  0.8820   -0.33808
  0.8840   -0.32651
  0.8860   -0.32637
  0.8880   -0.33008
  0.8900   -0.33448
  0.8920   -0.33049
  0.8940   -0.32453
  0.8960   -0.31497
  0.8980   -0.29150
  0.9000   -0.26359
  0.9020   -0.22625
  0.9040   -0.19109
  0.9060   -0.15036
  0.9080   -0.11580
  0.9100   -0.08402
  0.9120   -0.05811
  0.9140   -0.03833
  0.9160   -0.02467
  0.9180   -0.01584
  0.9200   -0.01392
  0.9220   -0.01093
  0.9240   -0.00577
  0.9260    0.00951
  0.9280    0.03116
  0.9300    0.06070
  0.9320    0.09446
  0.9340    0.13661
  0.9360    0.18058
  0.9380    0.22356
  0.9400    0.26441
  0.9420    0.30404
  0.9440    0.32904
  0.9460    0.34560
  0.9480    0.35497
  0.9500    0.35912
  0.9520    0.35304
  0.9540    0.34025
  0.9560    0.32512
  0.9580    0.30723
  0.9600    0.29548
  0.9620    0.29040
  0.9640    0.28965
  0.9660    0.29843
  0.9680    0.31895
  0.9700    0.33938
  0.9720    0.37360
  0.9740    0.40662
  0.9760    0.42985
  0.9780    0.45000
  0.9800    0.45780
  0.9820    0.45574
  0.9840    0.44354
  0.9860    0.42085
  0.9880    0.39201
  0.9900    0.35534
  0.9920    0.32336
  0.9940    0.29175
  0.9960    0.27335
  0.9980    0.26231
  1.0000    0.25300
  1.0020    0.25406
  1.0040    0.25402
  1.0060    0.25278
  1.0080    0.25441
  1.0100    0.24927
  1.0120    0.24109
  1.0140    0.23245
  1.0160    0.21914
  1.0180    0.20319
  1.0200    0.18920
  1.0220    0.17589
  1.0240    0.16470
  1.0260    0.15375
  1.0280    0.14091
  1.0300    0.11897
  1.0320    0.10211
  1.0340    0.08501
  1.0360    0.06984
  1.0380    0.05611
  1.0400    0.04417
  1.0420    0.03829
  1.0440    0.03132
  1.0460    0.02676
  1.0480    0.01127
  1.0500   -0.00654
  1.0520   -0.02095
  1.0540   -0.04238
  1.0560   -0.05776
  1.0580   -0.07788
  1.0600   -0.09313
  1.0620   -0.10798
  1.0640   -0.12705
  1.0660   -0.13939
  1.0680   -0.15271
  1.0700   -0.16381
  1.0720   -0.17072
  1.0740   -0.17600
  1.0760   -0.17556
  1.0780   -0.16434
  1.0800   -0.15867
  1.0820   -0.15346
  1.0840   -0.16441
  1.0860   -0.17499
  1.0880   -0.20275
  1.0900   -0.24123
  1.0920   -0.29574
  1.0940   -0.34953
  1.0960   -0.40110
  1.0980   -0.43803
  1.1000   -0.46176
  1.1020   -0.45972
  1.1040   -0.43145
  1.1060   -0.39237
  1.1080   -0.33122
  1.1100   -0.26901
  1.1120   -0.21359
  1.1140   -0.17277
  1.1160   -0.15237
  1.1180   -0.14628
  1.1200   -0.15754
  1.1220   -0.18676
  1.1240   -0.22207
  1.1260   -0.24998
  1.1280   -0.27943
  1.1300   -0.29647
  1.1320   -0.29643
  1.1340   -0.28613
  1.1360   -0.26295
  1.1380   -0.23513
  1.1400   -0.20038
  1.1420   -0.16351
  1.1440   -0.13285
  1.1460   -0.11334
  1.1480   -0.10123
  1.1500   -0.09706
  1.1520   -0.09970
  1.1540   -0.10894
  1.1560   -0.12702
  1.1580   -0.13817
  1.1600   -0.15221
  1.1620   -0.16712
  1.1640   -0.18076
  1.1660   -0.18502
  1.1680   -0.18140
  1.1700   -0.17956
  1.1720   -0.17488
  1.1740   -0.16763
  1.1760   -0.15710
  1.1780   -0.14606
  1.1800   -0.13684
  1.1820   -0.12725
  1.1840   -0.12441
  1.1860   -0.12097
  1.1880   -0.12166
  1.1900   -0.12285
  1.1920   -0.12422
  1.1940   -0.12356
  1.1960   -0.12074
  1.1980   -0.11189
  1.2000   -0.10656
