# z (nm)   (kJ/mol)
  0.3260  311.44966
  0.3280  308.08598
  0.3300  302.75883
  0.3320  298.88541
  0.3340  294.36620
  0.3360  289.77474
  0.3380  285.31454
  0.3400  280.76327
  0.3420  276.05877
  0.3440  271.18227
  0.3460  266.10532
  0.3480  260.78446
  0.3500  255.19284
  0.3520  249.31675
  0.3540  243.14501
  0.3560  236.66821
  0.3580  229.88128
  0.3600  222.79531
  0.3620  215.42261
  0.3640  207.79665
  0.3660  199.95183
  0.3680  191.93722
  0.3700  183.81181
  0.3720  175.63052
  0.3740  167.46033
  0.3760  159.36173
  0.3780  151.38864
  0.3800  143.58957
  0.3820  136.00855
  0.3840  128.68863
  0.3860  121.65236
  0.3880  114.93348
  0.3900  108.54305
  0.3920  102.49608
  0.3940   96.78928
  0.3960   91.42315
  0.3980   86.39737
  0.4000   81.68420
  0.4020   77.26564
  0.4040   73.10545
  0.4060   69.17395
  0.4080   65.44755
  0.4100   61.90890
  0.4120   58.55177
  0.4140   55.36443
  0.4160   52.35592
  0.4180   49.51314
  0.4200   46.82830
  0.4220   44.28190
  0.4240   41.85816
  0.4260   39.54611
  0.4280   37.33755
  0.4300   35.23704
  0.4320   33.25437
  0.4340   31.38859
  0.4360   29.65233
  0.4380   28.03970
  0.4400   26.54365
  0.4420   25.14690
  0.4440   23.83592
  0.4460   22.59994
  0.4480   21.42820
  0.4500   20.32945
  0.4520   19.30310
  0.4540   18.35772
  0.4560   17.50283
  0.4580   16.72593
  0.4600   16.02378
  0.4620   15.36449
  0.4640   14.73199
  0.4660   14.10505
  0.4680   13.47997
  0.4700   12.84430
  0.4720   12.21615
  0.4740   11.61252
  0.4760   11.05291
  0.4780   10.56129
  0.4800   10.13572
  0.4820    9.76711
  0.4840    9.43832
  0.4860    9.13374
  0.4880    8.84588
  0.4900    8.55240
  0.4920    8.27282
  0.4940    7.99211
  0.4960    7.73040
  0.4980    7.49075
  0.5000    7.28306
  0.5020    7.09991
  0.5040    6.94065
  0.5060    6.80162
  0.5080    6.67934
  0.5100    6.56260
  0.5120    6.45138
  0.5140    6.33970
  0.5160    6.24417
  0.5180    6.14701
  0.5200    6.06167
  0.5220    5.98571
  0.5240    5.91251
  0.5260    5.85425
  0.5280    5.78996
  0.5300    5.72314
  0.5320    5.66035
  0.5340    5.59494
  0.5360    5.52808
  0.5380    5.45827
  0.5400    5.40488
  0.5420    5.34652
  0.5440    5.30348
  0.5460    5.26628
  0.5480    5.24031
  0.5500    5.21760
  0.5520    5.20261
  0.5540    5.19436
  0.5560    5.18130
  0.5580    5.15779
  0.5600    5.12393
  0.5620    5.07833
  0.5640    5.01698
  0.5660    4.95285
  0.5680    4.88881
  0.5700    4.83615
  0.5720    4.79081
  0.5740    4.76276
  0.5760    4.74283
  0.5780    4.73732
  0.5800    4.73422
  0.5820    4.74916
  0.5840    4.75712
  0.5860    4.76936
  0.5880    4.77096
  0.5900    4.76825
  0.5920    4.75985
  0.5940    4.73930
  0.5960    4.70754
  0.5980    4.67783
  0.6000    4.64610
  0.6020    4.61142
  0.6040    4.58509
  0.6060    4.55909
  0.6080    4.55299
  0.6100    4.55116
  0.6120    4.55387
  0.6140    4.56609
  0.6160    4.58335
  0.6180    4.59460
  0.6200    4.60288
  0.6220    4.60718
  0.6240    4.59842
  0.6260    4.58392
  0.6280    4.55455
  0.6300    4.52068
  0.6320    4.48010
  0.6340    4.44225
  0.6360    4.41016
  0.6380    4.38544
  0.6400    4.37768
  0.6420    4.38403
  0.6440    4.39685
  0.6460    4.41203
  0.6480    4.42615
  0.6500    4.43786
  0.6520    4.44206
  0.6540    4.44126
  0.6560    4.43764
  0.6580    4.43537
  0.6600    4.44173
  0.6620    4.44209
  0.6640    4.44383
  0.6660    4.42860
  0.6680    4.40399
  0.6700    4.37152
  0.6720    4.32886
  0.6740    4.28279
  0.6760    4.22973
  0.6780    4.17152
  0.6800    4.10870
  0.6820    4.04904
  0.6840    3.97966
  0.6860    3.90808
  0.6880    3.84273
  0.6900    3.77849
  0.6920    3.71477
  0.6940    3.63648
  0.6960    3.55431
  0.6980    3.46397
  0.7000    3.37018
  0.7020    3.26282
  0.7040    3.14986
  0.7060    3.03310
  0.7080    2.91676
  0.7100    2.79053
  0.7120    2.66397
  0.7140    2.53104
  0.7160    2.39833
  0.7180    2.25938
  0.7200    2.10925
  0.7220    1.96512
  0.7240    1.81415
  0.7260    1.66792
  0.7280    1.52234
  0.7300    1.38958
  0.7320    1.25951
  0.7340    1.15083
  0.7360    1.05199
  0.7380    0.95138
  0.7400    0.86332
  0.7420    0.78282
  0.7440    0.69801
  0.7460    0.60784
  0.7480    0.50875
  0.7500    0.39576
  0.7520    0.28236
  0.7540    0.16409
  0.7560    0.04404
  0.7580   -0.07012
  0.7600   -0.18601
  0.7620   -0.28631
  0.7640   -0.38085
  0.7660   -0.46286
  0.7680   -0.53533
  0.7700   -0.58553
  0.7720   -0.62500
  0.7740   -0.65292
  0.7760   -0.67880
  0.7780   -0.69332
  0.7800   -0.70181
  0.7820   -0.70941
  0.7840   -0.72126
  0.7860   -0.74407
  0.7880   -0.77950
  0.7900   -0.81548
  0.7920   -0.86070
  0.7940   -0.90536
  0.7960   -0.95302
  0.7980   -0.99462
  0.8000   -1.03296
  0.8020   -1.06696
  0.8040   -1.09022
  0.8060   -1.11287
  0.8080   -1.12568
  0.8100   -1.13769
  0.8120   -1.14605
  0.8140   -1.14983
  0.8160   -1.15315
  0.8180   -1.15333
  0.8200   -1.15260
  0.8220   -1.15378
  0.8240   -1.15134
  0.8260   -1.15493
  0.8280   -1.15724
  0.8300   -1.15467
  0.8320   -1.14876
  0.8340   -1.14599
  0.8360   -1.14200
  0.8380   -1.13418
  0.8400   -1.12459
  0.8420   -1.11991
  0.8440   -1.10476
  0.8460   -1.10406
  0.8480   -1.08993
  0.8500   -1.08193
  0.8520   -1.07637
  0.8540   -1.06458
  0.8560   -1.05572
  0.8580   -1.04813
  0.8600   -1.04277
  0.8620   -1.03450
  0.8640   -1.02077
  0.8660   -1.00939
  0.8680   -0.99361
  0.8700   -0.97752
  0.8720   -0.95892
  0.8740   -0.93767
  0.8760   -0.91231
  0.8780   -0.89297
  0.8800   -0.85931
  0.8820   -0.83516
  0.8840   -0.81014
  0.8860   -0.78915
  0.8880   -0.76603
  0.8900   -0.74650
  0.8920   -0.72336
  0.8940   -0.70620
  0.8960   -0.68394
  0.8980   -0.66240
  0.9000   -0.63748
  0.9020   -0.60943
  0.9040   -0.57481
  0.9060   -0.54260
  0.9080   -0.50874
  0.9100   -0.47319
  0.9120   -0.43387
  0.9140   -0.39926
  0.9160   -0.36607
  0.9180   -0.32983
  0.9200   -0.29728
  0.9220   -0.25894
  0.9240   -0.21760
  0.9260   -0.17949
  0.9280   -0.13624
  0.9300   -0.08752
  0.9320   -0.04454
  0.9340   -0.00201
  0.9360    0.04019
  0.9380    0.08478
  0.9400    0.11976
  0.9420    0.14624
  0.9440    0.16934
  0.9460    0.19070
  0.9480    0.20356
  0.9500    0.21307
  0.9520    0.21690
  0.9540    0.22108
  0.9560    0.22608
  0.9580    0.23779
  0.9600    0.24819
  0.9620    0.26727
  0.9640    0.29355
  0.9660    0.32523
  0.9680    0.36262
  0.9700    0.40409
  0.9720    0.44881
  0.9740    0.48495
  0.9760    0.51262
  0.9780    0.54388
  0.9800    0.56992
  0.9820    0.57801
  0.9840    0.57873
  0.9860    0.57392
  0.9880    0.56048
  0.9900    0.54832
  0.9920    0.53640
  0.9940    0.52608
  0.9960    0.52351
  0.9980    0.52220
  1.0000    0.52892
  1.0020    0.53491
  1.0040    0.54373
  1.0060    0.55567
  1.0080    0.55812
  1.0100    0.56343
  1.0120    0.56345
  1.0140    0.55783
  1.0160    0.54222
  1.0180    0.51947
  1.0200    0.49475
  1.0220    0.46952
  1.0240    0.44366
  1.0260    0.41354
  1.0280    0.38420
  1.0300    0.35744
  1.0320    0.33520
  1.0340    0.31993
  1.0360    0.30960
  1.0380    0.30025
  1.0400    0.29493
  1.0420    0.28803
  1.0440    0.28114
  1.0460    0.26233
  1.0480    0.24120
  1.0500    0.21156
  1.0520    0.18588
  1.0540    0.15380
  1.0560    0.12363
  1.0580    0.09273
  1.0600    0.06678
  1.0620    0.04077
  1.0640    0.02044
  1.0660    0.01090
  1.0680   -0.00843
  1.0700   -0.02601
  1.0720   -0.04029
  1.0740   -0.04756
  1.0760   -0.06846
  1.0780   -0.08727
  1.0800   -0.10693
  1.0820   -0.12772
  1.0840   -0.14833
  1.0860   -0.17358
  1.0880   -0.19570
  1.0900   -0.21955
  1.0920   -0.24034
  1.0940   -0.25787
  1.0960   -0.26312
  1.0980   -0.26250
  1.1000   -0.25932
  1.1020   -0.25754
  1.1040   -0.25130
  1.1060   -0.24036
  1.1080   -0.22656
  1.1100   -0.21405
  1.1120   -0.21005
  1.1140   -0.20928
  1.1160   -0.21617
  1.1180   -0.22774
  1.1200   -0.23928
  1.1220   -0.26330
  1.1240   -0.28090
  1.1260   -0.30097
  1.1280   -0.31942
  1.1300   -0.33456
  1.1320   -0.34697
  1.1340   -0.35646
  1.1360   -0.35912
  1.1380   -0.36169
  1.1400   -0.36661
  1.1420   -0.36137
  1.1440   -0.35981
  1.1460   -0.35078
  1.1480   -0.34383
  1.1500   -0.33872
  1.1520   -0.33153
  1.1540   -0.32387
  1.1560   -0.32131
  1.1580   -0.31398
  1.1600   -0.30668
  1.1620   -0.29784
  1.1640   -0.29027
  1.1660   -0.28526
  1.1680   -0.28397
  1.1700   -0.28583
  1.1720   -0.29248
  1.1740   -0.29830
  1.1760   -0.31051
  1.1780   -0.31491
  1.1800   -0.32249
  1.1820   -0.32906
  1.1840   -0.33893
  1.1860   -0.34205
  1.1880   -0.34056
  1.1900   -0.33499
  1.1920   -0.32220
  1.1940   -0.31164
  1.1960   -0.29137
  1.1980   -0.27391
  1.2000   -0.25303
