# z (nm)   (kJ/mol)
  0.3140  307.82680
  0.3160  303.77185
  0.3180  299.48106
  0.3200  295.33791
  0.3220  291.21546
  0.3240  286.87040
  0.3260  282.47710
  0.3280  277.91055
  0.3300  273.17523
  0.3320  268.22713
  0.3340  263.03805
  0.3360  257.56952
  0.3380  251.82097
  0.3400  245.77300
  0.3420  239.41180
  0.3440  232.73846
  0.3460  225.75528
  0.3480  218.47273
  0.3500  210.92176
  0.3520  203.13091
  0.3540  195.14041
  0.3560  186.99557
  0.3580  178.75849
  0.3600  170.47566
  0.3620  162.21235
  0.3640  154.03556
  0.3660  146.02012
  0.3680  138.23549
  0.3700  130.73867
  0.3720  123.59374
  0.3740  116.84852
  0.3760  110.54641
  0.3780  104.71810
  0.3800   99.34049
  0.3820   94.36644
  0.3840   89.71844
  0.3860   85.30574
  0.3880   81.05415
  0.3900   76.91071
  0.3920   72.85130
  0.3940   68.88865
  0.3960   65.05690
  0.3980   61.40687
  0.4000   57.95874
  0.4020   54.70930
  0.4040   51.64856
  0.4060   48.75898
  0.4080   46.01509
  0.4100   43.40694
  0.4120   40.92038
  0.4140   38.54747
  0.4160   36.26699
  0.4180   34.06771
  0.4200   31.94065
  0.4220   29.90735
  0.4240   28.00484
  0.4260   26.27179
  0.4280   24.74871
  0.4300   23.42133
  0.4320   22.25035
  0.4340   21.18306
  0.4360   20.16275
  0.4380   19.16193
  0.4400   18.15855
  0.4420   17.17369
  0.4440   16.21471
  0.4460   15.29574
  0.4480   14.43537
  0.4500   13.64096
  0.4520   12.92033
  0.4540   12.27563
  0.4560   11.69763
  0.4580   11.18583
  0.4600   10.71364
  0.4620   10.26834
  0.4640    9.82876
  0.4660    9.39333
  0.4680    8.95831
  0.4700    8.53698
  0.4720    8.12015
  0.4740    7.71892
  0.4760    7.33512
  0.4780    6.98715
  0.4800    6.67524
  0.4820    6.40193
  0.4840    6.16593
  0.4860    5.96393
  0.4880    5.79008
  0.4900    5.63724
  0.4920    5.49042
  0.4940    5.34272
  0.4960    5.18562
  0.4980    5.03059
  0.5000    4.86386
  0.5020    4.69989
  0.5040    4.54629
  0.5060    4.40321
  0.5080    4.28433
  0.5100    4.19184
  0.5120    4.12001
  0.5140    4.07158
  0.5160    4.03921
  0.5180    4.01054
  0.5200    3.99563
  0.5220    3.98099
  0.5240    3.96611
  0.5260    3.93863
  0.5280    3.91307
  0.5300    3.88729
  0.5320    3.86571
  0.5340    3.85654
  0.5360    3.84667
  0.5380    3.84612
  0.5400    3.85007
  0.5420    3.85487
  0.5440    3.84978
  0.5460    3.84020
  0.5480    3.83073
  0.5500    3.81392
  0.5520    3.79780
  0.5540    3.79265
  0.5560    3.79307
  0.5580    3.80834
  0.5600    3.83907
  0.5620    3.88226
  0.5640    3.93057
  0.5660    3.98439
  0.5680    4.04296
  0.5700    4.09507
  0.5720    4.14067
  0.5740    4.17190
  0.5760    4.19513
  0.5780    4.20816
  0.5800    4.21193
  0.5820    4.21758
  0.5840    4.22303
  0.5860    4.24031
  0.5880    4.26395
  0.5900    4.29938
  0.5920    4.34220
  0.5940    4.38147
  0.5960    4.41458
  0.5980    4.43709
  0.6000    4.44773
  0.6020    4.44407
  0.6040    4.42931
  0.6060    4.40711
  0.6080    4.38330
  0.6100    4.36178
  0.6120    4.34742
  0.6140    4.34065
  0.6160    4.34357
  0.6180    4.35291
  0.6200    4.36127
  0.6220    4.36589
  0.6240    4.36630
  0.6260    4.36299
  0.6280    4.35416
  0.6300    4.33757
  0.6320    4.31610
  0.6340    4.29426
  0.6360    4.27872
  0.6380    4.27119
  0.6400    4.26226
  0.6420    4.26509
  0.6440    4.26143
  0.6460    4.26420
  0.6480    4.26465
  0.6500    4.27120
  0.6520    4.27081
  0.6540    4.26536
  0.6560    4.25668
  0.6580    4.24442
  0.6600    4.22138
  0.6620    4.19822
  0.6640    4.17269
  0.6660    4.14810
  0.6680    4.11198
  0.6700    4.07308
  0.6720    4.03523
  0.6740    3.99586
  0.6760    3.95282
  0.6780    3.90686
  0.6800    3.85230
  0.6820    3.79431
  0.6840    3.73186
  0.6860    3.66208
  0.6880    3.58381
  0.6900    3.50043
  0.6920    3.40124
  0.6940    3.29167
  0.6960    3.18109
  0.6980    3.05814
  0.7000    2.93189
  0.7020    2.80253
  0.7040    2.66706
  0.7060    2.54268
  0.7080    2.42296
  0.7100    2.30651
  0.7120    2.19911
  0.7140    2.09032
  0.7160    1.98267
  0.7180    1.87583
  0.7200    1.77343
  0.7220    1.66360
  0.7240    1.54677
  0.7260    1.42255
  0.7280    1.29005
  0.7300    1.15551
  0.7320    1.01903
  0.7340    0.88163
  0.7360    0.74351
  0.7380    0.61837
  0.7400    0.49613
  0.7420    0.38770
  0.7440    0.28476
  0.7460    0.19668
  0.7480    0.11623
  0.7500    0.04046
  0.7520   -0.03125
  0.7540   -0.09996
  0.7560   -0.16273
  0.7580   -0.22882
  0.7600   -0.29130
  0.7620   -0.34928
  0.7640   -0.41301
  0.7660   -0.47858
  0.7680   -0.53871
  0.7700   -0.60698
  0.7720   -0.67438
  0.7740   -0.73526
  0.7760   -0.78943
  0.7780   -0.83244
  0.7800   -0.86792
  0.7820   -0.90046
  0.7840   -0.92116
  0.7860   -0.93379
  0.7880   -0.93835
  0.7900   -0.94138
  0.7920   -0.94242
  0.7940   -0.93949
  0.7960   -0.94366
  0.7980   -0.94909
  0.8000   -0.95694
  0.8020   -0.97304
  0.8040   -0.98881
  0.8060   -1.00492
  0.8080   -1.02152
  0.8100   -1.03478
  0.8120   -1.04296
  0.8140   -1.05282
  0.8160   -1.06079
  0.8180   -1.05863
  0.8200   -1.05732
  0.8220   -1.06356
  0.8240   -1.07099
  0.8260   -1.07380
  0.8280   -1.07249
  0.8300   -1.07462
  0.8320   -1.07446
  0.8340   -1.06726
  0.8360   -1.05910
  0.8380   -1.05501
  0.8400   -1.04540
  0.8420   -1.03480
  0.8440   -1.02100
  0.8460   -1.00909
  0.8480   -0.99368
  0.8500   -0.99015
  0.8520   -0.98128
  0.8540   -0.97793
  0.8560   -0.97629
  0.8580   -0.97403
  0.8600   -0.97223
  0.8620   -0.96688
  0.8640   -0.95955
  0.8660   -0.95087
  0.8680   -0.93333
  0.8700   -0.91251
  0.8720   -0.89067
  0.8740   -0.85806
  0.8760   -0.82472
  0.8780   -0.78591
  0.8800   -0.75440
  0.8820   -0.71815
  0.8840   -0.68475
  0.8860   -0.65749
  0.8880   -0.63733
  0.8900   -0.62090
  0.8920   -0.60421
  0.8940   -0.59077
  0.8960   -0.57926
  0.8980   -0.57468
  0.9000   -0.57038
  0.9020   -0.56357
  0.9040   -0.55348
  0.9060   -0.54537
  0.9080   -0.53454
  0.9100   -0.52160
  0.9120   -0.50725
  0.9140   -0.48393
  0.9160   -0.45771
  0.9180   -0.43239
  0.9200   -0.40308
  0.9220   -0.36333
  0.9240   -0.32056
  0.9260   -0.28155
  0.9280   -0.24166
  0.9300   -0.21313
  0.9320   -0.18406
  0.9340   -0.16338
  0.9360   -0.14737
  0.9380   -0.13622
  0.9400   -0.12289
  0.9420   -0.10878
  0.9440   -0.09792
  0.9460   -0.07623
  0.9480   -0.04951
  0.9500   -0.01464
  0.9520    0.02230
  0.9540    0.06369
  0.9560    0.10370
  0.9580    0.13524
  0.9600    0.16439
  0.9620    0.18186
  0.9640    0.19685
  0.9660    0.19873
  0.9680    0.18781
  0.9700    0.18294
  0.9720    0.18257
  0.9740    0.18128
  0.9760    0.18725
  0.9780    0.19878
  0.9800    0.20993
  0.9820    0.22614
  0.9840    0.24439
  0.9860    0.25768
  0.9880    0.26391
  0.9900    0.27721
  0.9920    0.28147
  0.9940    0.28634
  0.9960    0.29412
  0.9980    0.30214
  1.0000    0.31166
  1.0020    0.31568
  1.0040    0.32412
  1.0060    0.33025
  1.0080    0.33651
  1.0100    0.34226
  1.0120    0.34816
  1.0140    0.34896
  1.0160    0.35135
  1.0180    0.34645
  1.0200    0.33108
  1.0220    0.31275
  1.0240    0.29355
  1.0260    0.27403
  1.0280    0.25425
  1.0300    0.23082
  1.0320    0.21535
  1.0340    0.19821
  1.0360    0.19380
  1.0380    0.19432
  1.0400    0.19286
  1.0420    0.19677
  1.0440    0.20248
  1.0460    0.21087
  1.0480    0.21794
  1.0500    0.22132
  1.0520    0.22339
  1.0540    0.22632
  1.0560    0.22307
  1.0580    0.21904
  1.0600    0.20471
  1.0620    0.18987
  1.0640    0.16483
  1.0660    0.13246
  1.0680    0.09579
  1.0700    0.06145
  1.0720    0.02007
  1.0740   -0.02458
  1.0760   -0.05120
  1.0780   -0.07689
  1.0800   -0.09864
  1.0820   -0.10653
  1.0840   -0.10646
  1.0860   -0.08937
  1.0880   -0.06416
  1.0900   -0.03418
  1.0920    0.00230
  1.0940    0.03708
  1.0960    0.06734
  1.0980    0.09352
  1.1000    0.10024
  1.1020    0.08102
  1.1040    0.03511
  1.1060   -0.03417
  1.1080   -0.11741
  1.1100   -0.20965
  1.1120   -0.30060
  1.1140   -0.36995
  1.1160   -0.41583
  1.1180   -0.42517
  1.1200   -0.39809
  1.1220   -0.34259
  1.1240   -0.26127
  1.1260   -0.17127
  1.1280   -0.08827
  1.1300   -0.01916
  1.1320    0.01996
  1.1340    0.03692
  1.1360    0.02084
  1.1380   -0.01783
  1.1400   -0.07232
  1.1420   -0.13169
  1.1440   -0.19043
  1.1460   -0.24249
  1.1480   -0.27910
  1.1500   -0.29239
  1.1520   -0.29420
  1.1540   -0.27449
  1.1560   -0.23274
  1.1580   -0.19217
  1.1600   -0.14749
  1.1620   -0.10272
  1.1640   -0.06214
  1.1660   -0.03100
  1.1680   -0.01120
  1.1700   -0.00261
  1.1720   -0.00061
  1.1740   -0.01087
  1.1760   -0.02181
  1.1780   -0.03053
  1.1800   -0.03854
  1.1820   -0.04330
  1.1840   -0.04696
  1.1860   -0.04435
  1.1880   -0.03325
  1.1900   -0.02394
  1.1920   -0.01441
  1.1940   -0.00274
  1.1960    0.00556
  1.1980    0.00893
  1.2000    0.02154
