# PMF between COM of APHE and SiO2 slab.
#
#               PMF
# z (nm)   (kJ/mol)   
 0.0585  321.164580
 0.0630  316.534730
 0.0675  313.221100
 0.0720  309.917394
 0.0765  306.994063
 0.0810  304.155035
 0.0855  301.250247
 0.0900  298.218681
 0.0945  294.984584
 0.0990  291.484749
 0.1035  287.642357
 0.1080  283.379652
 0.1125  278.627806
 0.1170  273.319091
 0.1215  267.407409
 0.1260  260.861259
 0.1305  253.648247
 0.1350  245.724777
 0.1395  237.067829
 0.1440  227.788614
 0.1485  218.193755
 0.1530  208.759010
 0.1575  199.974375
 0.1620  192.045022
 0.1665  184.758069
 0.1710  177.849952
 0.1755  171.195194
 0.1800  164.689135
 0.1845  158.259441
 0.1890  152.008962
 0.1935  146.054603
 0.1980  140.354490
 0.2025  134.730182
 0.2070  129.112496
 0.2115  123.622224
 0.2160  118.420418
 0.2205  113.568444
 0.2250  109.012489
 0.2295  104.622026
 0.2340  100.276088
 0.2385   95.951725
 0.2430   91.799470
 0.2475   87.984154
 0.2520   84.493056
 0.2565   81.189584
 0.2610   78.016944
 0.2655   74.972543
 0.2700   72.084039
 0.2745   69.366601
 0.2790   66.841632
 0.2835   64.423386
 0.2880   62.034686
 0.2925   59.742754
 0.2970   57.718776
 0.3015   56.025668
 0.3060   54.467587
 0.3105   52.854585
 0.3150   51.299726
 0.3195   49.874940
 0.3240   48.517226
 0.3285   47.149023
 0.3330   45.695678
 0.3375   44.096048
 0.3420   42.246547
 0.3465   40.085155
 0.3510   37.623015
 0.3555   34.973063
 0.3600   32.320924
 0.3645   29.812509
 0.3690   27.469034
 0.3735   25.160474
 0.3780   22.793877
 0.3825   20.468332
 0.3870   18.427606
 0.3915   16.797259
 0.3960   15.455185
 0.4005   14.198910
 0.4050   12.981586
 0.4095   11.863854
 0.4140   10.901933
 0.4185   10.079816
 0.4230    9.367609
 0.4275    8.726625
 0.4320    8.142647
 0.4365    7.607470
 0.4410    7.152288
 0.4455    6.787916
 0.4500    6.480809
 0.4545    6.175290
 0.4590    5.841836
 0.4635    5.486975
 0.4680    5.135253
 0.4725    4.817183
 0.4770    4.529279
 0.4815    4.279440
 0.4860    4.027022
 0.4905    3.762688
 0.4950    3.469010
 0.4995    3.162345
 0.5040    2.834544
 0.5085    2.490923
 0.5130    2.189732
 0.5175    1.975302
 0.5220    1.827574
 0.5265    1.681347
 0.5310    1.512523
 0.5355    1.342932
 0.5400    1.217505
 0.5445    1.116521
 0.5490    1.021476
 0.5535    0.916358
 0.5580    0.821807
 0.5625    0.750131
 0.5670    0.721344
 0.5715    0.708643
 0.5760    0.694476
 0.5805    0.659234
 0.5850    0.604953
 0.5895    0.560410
 0.5940    0.537248
 0.5985    0.549354
 0.6030    0.592065
 0.6075    0.654593
 0.6120    0.720522
 0.6165    0.770151
 0.6210    0.800448
 0.6255    0.832478
 0.6300    0.855400
 0.6345    0.862500
 0.6390    0.873168
 0.6435    0.891245
 0.6480    0.916587
 0.6525    0.945367
 0.6570    0.967396
 0.6615    0.976720
 0.6660    0.970237
 0.6705    0.958229
 0.6750    0.946767
 0.6795    0.911918
 0.6840    0.849000
 0.6885    0.794464
 0.6930    0.799654
 0.6975    0.879959
 0.7020    0.947362
 0.7065    0.929206
 0.7110    0.822062
 0.7155    0.706048
 0.7200    0.639109
 0.7245    0.629739
 0.7290    0.660685
 0.7335    0.699287
 0.7380    0.719635
 0.7425    0.687239
 0.7470    0.601150
 0.7515    0.491425
 0.7560    0.406224
 0.7605    0.373500
 0.7650    0.379898
 0.7695    0.398615
 0.7740    0.395056
 0.7785    0.365287
 0.7830    0.317400
 0.7875    0.267075
 0.7920    0.232142
 0.7965    0.219002
 0.8010    0.225253
 0.8055    0.212905
 0.8100    0.190297
 0.8145    0.153461
 0.8190    0.110387
 0.8235    0.066715
 0.8280    0.031817
 0.8325    0.019330
 0.8370    0.010656
 0.8415   -0.003124
 0.8460   -0.027575
 0.8505   -0.042935
 0.8550   -0.060926
 0.8595   -0.062336
 0.8640   -0.049891
 0.8685   -0.032031
 0.8730   -0.013798
 0.8775   -0.016159
 0.8820   -0.041048
 0.8865   -0.084684
 0.8910   -0.132603
 0.8955   -0.153345
 0.9000   -0.119121
 0.9045   -0.048429
 0.9090    0.019311
 0.9135    0.045380
 0.9180    0.018195
 0.9225   -0.040262
 0.9270   -0.090876
 0.9315   -0.109102
 0.9360   -0.090401
 0.9405   -0.044802
 0.9450    0.012669
 0.9495    0.068240
 0.9540    0.103571
 0.9585    0.114723
 0.9630    0.107647
 0.9675    0.083900
 0.9720    0.060686
 0.9765    0.061013
 0.9810    0.076860
 0.9855    0.113725
 0.9900    0.160864
 0.9945    0.201336
 0.9990    0.236558
 1.0035    0.254944
 1.0080    0.256500
 1.0125    0.240438
 1.0170    0.228466
 1.0215    0.226643
 1.0260    0.241846
 1.0305    0.276765
 1.0350    0.312547
 1.0395    0.333145
 1.0440    0.332729
 1.0485    0.322294
 1.0530    0.302193
 1.0575    0.287649
 1.0620    0.297161
 1.0665    0.317799
 1.0710    0.329953
 1.0755    0.319311
 1.0800    0.286173
 1.0845    0.250005
 1.0890    0.227944
 1.0935    0.235447
 1.0980    0.275438
 1.1025    0.320912
 1.1070    0.349147
 1.1115    0.342925
 1.1160    0.320649
 1.1205    0.293313
 1.1250    0.267924
 1.1295    0.252722
 1.1340    0.242112
 1.1385    0.219739
 1.1430    0.187331
 1.1475    0.157540
 1.1520    0.154090
 1.1565    0.171726
 1.1610    0.177769
 1.1655    0.147169
 1.1700    0.092923
 1.1745    0.033987
 1.1790   -0.012279
 1.1835   -0.023543
 1.1880   -0.010183
 1.1925    0.015066
 1.1970    0.037176
 1.2015    0.050435
 1.2060    0.061425
 1.2105    0.060408
 1.2150    0.054607
 1.2195    0.037521
 1.2240    0.007721
 1.2285   -0.024934
 1.2330   -0.050605
 1.2375   -0.063951
 1.2420   -0.062976
 1.2465   -0.041872
 1.2510   -0.012742
 1.2555    0.017561
 1.2600    0.048940
 1.2645    0.068410
 1.2690    0.068857
 1.2735    0.043417
 1.2780   -0.009632
 1.2825   -0.072275
 1.2870   -0.096209
 1.2915   -0.060762
 1.2960    0.006727
 1.3005    0.062637
 1.3050    0.075064
 1.3095    0.051070
 1.3140    0.007842
 1.3185   -0.035986
 1.3230   -0.046386
 1.3275   -0.024712
 1.3320    0.020608
 1.3365    0.050548
 1.3410    0.037631
 1.3455    0.005872
 1.3500   -0.017758
 1.3545   -0.012271
 1.3590    0.018954
 1.3635    0.059534
 1.3680    0.080860
 1.3725    0.076093
 1.3770    0.041198
 1.3815    0.030321
 1.3860    0.040386
 1.3905    0.065077
 1.3950    0.091016
 1.3995    0.095296
 1.4040    0.066923
 1.4085    0.017051
 1.4130   -0.018018
 1.4175   -0.031144
 1.4220   -0.026967
 1.4265   -0.008059
 1.4310   -0.012778
 1.4355   -0.029275
 1.4400   -0.055864
 1.4445   -0.060948
 1.4490   -0.045210
 1.4535   -0.024145
 1.4580   -0.010992
 1.4625   -0.022141
 1.4670   -0.053609
 1.4715   -0.070577
 1.4760   -0.062794
 1.4805   -0.027707
 1.4850    0.009051
 1.4895    0.012437
 1.4940   -0.036846
 1.4985   -0.107123
