# z (nm)   (kJ/mol)
  0.084000,268.480880
  0.086000,266.251700
  0.088000,264.067390
  0.090000,261.920010
  0.092000,259.802680
  0.094000,257.703670
  0.096000,255.415690
  0.098000,253.255020
  0.100000,251.018780
  0.102000,248.768550
  0.104000,246.449090
  0.106000,244.048490
  0.108000,241.558750
  0.110000,238.968890
  0.112000,236.264370
  0.114000,233.427000
  0.116000,230.458610
  0.118000,227.349120
  0.120000,224.100590
  0.122000,220.712960
  0.124000,217.180450
  0.126000,213.498370
  0.128000,209.657960
  0.130000,205.651100
  0.132000,201.469160
  0.134000,197.107260
  0.136000,192.571810
  0.138000,187.894330
  0.140000,183.116540
  0.142000,178.306200
  0.144000,173.530600
  0.146000,168.859230
  0.148000,164.338020
  0.150000,159.986800
  0.152000,155.784010
  0.154000,151.689920
  0.156000,147.650350
  0.158000,143.636910
  0.160000,139.642280
  0.162000,135.687700
  0.164000,131.821930
  0.166000,128.078450
  0.168000,124.475900
  0.170000,120.985740
  0.172000,117.557440
  0.174000,114.141500
  0.176000,110.707140
  0.178000,107.254170
  0.180000,103.802350
  0.182000,100.397930
  0.184000, 97.061060
  0.186000, 93.807760
  0.188000, 90.627480
  0.190000, 87.492630
  0.192000, 84.383550
  0.194000, 81.275780
  0.196000, 78.173840
  0.198000, 75.104520
  0.200000, 72.091600
  0.202000, 69.158570
  0.204000, 66.318440
  0.206000, 63.559840
  0.208000, 60.850770
  0.210000, 58.157330
  0.212000, 55.455920
  0.214000, 52.763800
  0.216000, 50.118220
  0.218000, 47.589180
  0.220000, 45.218410
  0.222000, 43.022490
  0.224000, 40.948250
  0.226000, 38.937030
  0.228000, 36.902710
  0.230000, 34.793840
  0.232000, 32.597070
  0.234000, 30.346610
  0.236000, 28.122420
  0.238000, 25.988750
  0.240000, 23.994140
  0.242000, 22.141480
  0.244000, 20.411770
  0.246000, 18.760480
  0.248000, 17.147570
  0.250000, 15.551390
  0.252000, 13.962850
  0.254000, 12.393000
  0.256000, 10.848810
  0.258000,  9.359020
  0.260000,  7.916020
  0.262000,  6.530820
  0.264000,  5.197790
  0.266000,  3.933440
  0.268000,  2.730280
  0.270000,  1.585940
  0.272000,  0.492410
  0.274000, -0.559700
  0.276000, -1.589650
  0.278000, -2.604200
  0.280000, -3.602940
  0.282000, -4.574840
  0.284000, -5.521080
  0.286000, -6.409440
  0.288000, -7.233360
  0.290000, -7.990580
  0.292000, -8.679320
  0.294000, -9.313180
  0.296000, -9.913710
  0.298000,-10.480850
  0.300000,-11.044560
  0.302000,-11.586230
  0.304000,-12.113440
  0.306000,-12.618450
  0.308000,-13.088660
  0.310000,-13.531240
  0.312000,-13.939760
  0.314000,-14.312030
  0.316000,-14.650130
  0.318000,-14.955570
  0.320000,-15.225470
  0.322000,-15.460650
  0.324000,-15.669470
  0.326000,-15.863240
  0.328000,-16.037140
  0.330000,-16.192670
  0.332000,-16.345420
  0.334000,-16.493450
  0.336000,-16.642610
  0.338000,-16.767330
  0.340000,-16.865870
  0.342000,-16.918810
  0.344000,-16.927160
  0.346000,-16.878710
  0.348000,-16.783020
  0.350000,-16.679230
  0.352000,-16.578480
  0.354000,-16.498140
  0.356000,-16.444920
  0.358000,-16.402760
  0.360000,-16.356800
  0.362000,-16.302650
  0.364000,-16.221490
  0.366000,-16.104720
  0.368000,-15.968630
  0.370000,-15.813620
  0.372000,-15.642880
  0.374000,-15.469740
  0.376000,-15.289270
  0.378000,-15.113070
  0.380000,-14.921210
  0.382000,-14.716380
  0.384000,-14.496060
  0.386000,-14.260160
  0.388000,-14.022420
  0.390000,-13.787980
  0.392000,-13.561030
  0.394000,-13.347800
  0.396000,-13.154810
  0.398000,-12.963880
  0.400000,-12.777670
  0.402000,-12.572830
  0.404000,-12.351710
  0.406000,-12.100280
  0.408000,-11.827350
  0.410000,-11.533610
  0.412000,-11.248590
  0.414000,-10.971230
  0.416000,-10.710640
  0.418000,-10.477770
  0.420000,-10.260860
  0.422000,-10.050580
  0.424000, -9.856030
  0.426000, -9.662890
  0.428000, -9.453960
  0.430000, -9.225440
  0.432000, -8.977040
  0.434000, -8.724030
  0.436000, -8.466880
  0.438000, -8.215880
  0.440000, -7.979690
  0.442000, -7.759590
  0.444000, -7.572670
  0.446000, -7.403290
  0.448000, -7.263810
  0.450000, -7.140360
  0.452000, -7.033700
  0.454000, -6.941730
  0.456000, -6.865040
  0.458000, -6.778160
  0.460000, -6.696970
  0.462000, -6.602920
  0.464000, -6.490100
  0.466000, -6.368380
  0.468000, -6.229920
  0.470000, -6.086020
  0.472000, -5.938550
  0.474000, -5.796580
  0.476000, -5.668300
  0.478000, -5.552590
  0.480000, -5.465900
  0.482000, -5.396470
  0.484000, -5.333770
  0.486000, -5.284800
  0.488000, -5.226570
  0.490000, -5.157150
  0.492000, -5.073930
  0.494000, -4.971230
  0.496000, -4.845090
  0.498000, -4.703220
  0.500000, -4.559300
  0.502000, -4.415580
  0.504000, -4.285410
  0.506000, -4.175220
  0.508000, -4.103660
  0.510000, -4.057740
  0.512000, -4.036840
  0.514000, -4.018590
  0.516000, -3.993280
  0.518000, -3.944500
  0.520000, -3.860810
  0.522000, -3.756790
  0.524000, -3.638340
  0.526000, -3.525770
  0.528000, -3.433690
  0.530000, -3.357970
  0.532000, -3.309410
  0.534000, -3.282720
  0.536000, -3.263530
  0.538000, -3.248620
  0.540000, -3.233220
  0.542000, -3.215300
  0.544000, -3.186620
  0.546000, -3.143790
  0.548000, -3.089220
  0.550000, -3.018970
  0.552000, -2.922760
  0.554000, -2.818810
  0.556000, -2.704120
  0.558000, -2.589910
  0.560000, -2.477400
  0.562000, -2.374800
  0.564000, -2.282590
  0.566000, -2.201060
  0.568000, -2.133430
  0.570000, -2.078640
  0.572000, -2.033100
  0.574000, -1.998940
  0.576000, -1.964470
  0.578000, -1.927380
  0.580000, -1.881060
  0.582000, -1.813730
  0.584000, -1.734070
  0.586000, -1.632280
  0.588000, -1.526190
  0.590000, -1.410890
  0.592000, -1.301750
  0.594000, -1.205980
  0.596000, -1.131090
  0.598000, -1.077890
  0.600000, -1.037980
  0.602000, -1.001680
  0.604000, -0.967910
  0.606000, -0.924380
  0.608000, -0.869740
  0.610000, -0.798460
  0.612000, -0.724150
  0.614000, -0.646970
  0.616000, -0.576060
  0.618000, -0.526940
  0.620000, -0.498050
  0.622000, -0.485830
  0.624000, -0.493420
  0.626000, -0.513520
  0.628000, -0.523780
  0.630000, -0.522510
  0.632000, -0.514400
  0.634000, -0.496020
  0.636000, -0.471440
  0.638000, -0.433020
  0.640000, -0.401780
  0.642000, -0.382570
  0.644000, -0.378670
  0.646000, -0.401370
  0.648000, -0.444420
  0.650000, -0.503150
  0.652000, -0.567770
  0.654000, -0.634350
  0.656000, -0.692640
  0.658000, -0.732040
  0.660000, -0.758380
  0.662000, -0.767190
  0.664000, -0.761210
  0.666000, -0.748210
  0.668000, -0.733380
  0.670000, -0.727760
  0.672000, -0.731210
  0.674000, -0.749520
  0.676000, -0.771980
  0.678000, -0.800250
  0.680000, -0.828650
  0.682000, -0.860800
  0.684000, -0.883350
  0.686000, -0.900260
  0.688000, -0.921610
  0.690000, -0.934790
  0.692000, -0.955760
  0.694000, -0.980270
  0.696000, -1.007070
  0.698000, -1.035500
  0.700000, -1.049340
  0.702000, -1.039740
  0.704000, -1.017490
  0.706000, -0.982180
  0.708000, -0.951150
  0.710000, -0.932040
  0.712000, -0.927210
  0.714000, -0.940940
  0.716000, -0.968050
  0.718000, -1.004630
  0.720000, -1.049090
  0.722000, -1.094240
  0.724000, -1.134820
  0.726000, -1.161020
  0.728000, -1.164890
  0.730000, -1.149900
  0.732000, -1.119180
  0.734000, -1.070790
  0.736000, -1.017570
  0.738000, -0.968520
  0.740000, -0.931460
  0.742000, -0.911160
  0.744000, -0.913770
  0.746000, -0.933430
  0.748000, -0.964610
  0.750000, -0.998050
  0.752000, -1.029070
  0.754000, -1.052120
  0.756000, -1.061050
  0.758000, -1.053480
  0.760000, -1.027960
  0.762000, -0.996050
  0.764000, -0.955580
  0.766000, -0.910970
  0.768000, -0.866690
  0.770000, -0.835720
  0.772000, -0.809540
  0.774000, -0.788050
  0.776000, -0.775440
  0.778000, -0.769400
  0.780000, -0.770530
  0.782000, -0.767280
  0.784000, -0.761030
  0.786000, -0.746240
  0.788000, -0.721220
  0.790000, -0.687950
  0.792000, -0.656050
  0.794000, -0.606400
  0.796000, -0.564980
  0.798000, -0.524940
  0.800000, -0.505280
  0.802000, -0.490680
  0.804000, -0.491660
  0.806000, -0.503160
  0.808000, -0.526350
  0.810000, -0.545030
  0.812000, -0.565460
  0.814000, -0.575980
  0.816000, -0.572480
  0.818000, -0.559000
  0.820000, -0.538450
  0.822000, -0.503990
  0.824000, -0.469920
  0.826000, -0.438900
  0.828000, -0.415190
  0.830000, -0.404780
  0.832000, -0.412200
  0.834000, -0.434190
  0.836000, -0.462740
  0.838000, -0.486210
  0.840000, -0.492010
  0.842000, -0.472250
  0.844000, -0.434650
  0.846000, -0.365650
  0.848000, -0.288540
  0.850000, -0.214620
  0.852000, -0.153960
  0.854000, -0.110800
  0.856000, -0.091120
  0.858000, -0.085230
  0.860000, -0.092710
  0.862000, -0.092210
  0.864000, -0.092740
  0.866000, -0.079950
  0.868000, -0.062490
  0.870000, -0.038140
  0.872000, -0.017900
  0.874000,  0.000010
  0.876000,  0.007480
  0.878000,  0.000380
  0.880000, -0.008550
  0.882000, -0.024460
  0.884000, -0.040230
  0.886000, -0.053330
  0.888000, -0.056990
  0.890000, -0.052560
  0.892000, -0.034740
  0.894000,  0.000210
  0.896000,  0.038340
  0.898000,  0.086480
  0.900000,  0.128190
  0.902000,  0.157970
  0.904000,  0.177590
  0.906000,  0.182960
  0.908000,  0.174000
  0.910000,  0.147130
  0.912000,  0.113240
  0.914000,  0.076170
  0.916000,  0.039950
  0.918000,  0.016340
  0.920000, -0.012620
  0.922000, -0.030810
  0.924000, -0.040440
  0.926000, -0.033760
  0.928000, -0.023570
  0.930000,  0.001220
  0.932000,  0.036340
  0.934000,  0.068980
  0.936000,  0.097880
  0.938000,  0.110820
  0.940000,  0.107000
  0.942000,  0.083170
  0.944000,  0.042670
  0.946000, -0.007880
  0.948000, -0.052120
  0.950000, -0.088920
  0.952000, -0.113690
  0.954000, -0.123210
  0.956000, -0.116730
  0.958000, -0.099390
  0.960000, -0.079520
  0.962000, -0.061560
  0.964000, -0.042980
  0.966000, -0.036250
  0.968000, -0.028110
  0.970000, -0.026410
  0.972000, -0.031910
  0.974000, -0.039740
  0.976000, -0.045800
  0.978000, -0.048540
  0.980000, -0.044960
  0.982000, -0.041560
  0.984000, -0.033990
  0.986000, -0.025280
  0.988000, -0.017910
  0.990000, -0.009480
  0.992000, -0.010890
  0.994000, -0.022200
  0.996000, -0.045530
  0.998000, -0.080610
  1.000000, -0.117050
