# z (nm)   (kJ/mol)
  0.066000,277.998060
  0.068000,275.491410
  0.070000,273.012810
  0.072000,270.557970
  0.074000,268.435890
  0.076000,265.922580
  0.078000,263.408380
  0.080000,260.841750
  0.082000,258.162270
  0.084000,255.520840
  0.086000,252.813070
  0.088000,250.044340
  0.090000,247.203310
  0.092000,244.269710
  0.094000,241.232970
  0.096000,238.087900
  0.098000,234.820930
  0.100000,231.432750
  0.102000,227.919320
  0.104000,224.280720
  0.106000,220.529830
  0.108000,216.665940
  0.110000,212.698290
  0.112000,208.632620
  0.114000,204.479490
  0.116000,200.242270
  0.118000,195.942230
  0.120000,191.595150
  0.122000,187.221160
  0.124000,182.845120
  0.126000,178.504430
  0.128000,174.226490
  0.130000,170.038380
  0.132000,165.951630
  0.134000,161.960680
  0.136000,158.047270
  0.138000,154.187990
  0.140000,150.388550
  0.142000,146.641960
  0.144000,142.970880
  0.146000,139.393570
  0.148000,135.920840
  0.150000,132.553310
  0.152000,129.263210
  0.154000,126.033100
  0.156000,122.836900
  0.158000,119.667570
  0.160000,116.528880
  0.162000,113.428900
  0.164000,110.380770
  0.166000,107.382090
  0.168000,104.425790
  0.170000,101.498300
  0.172000, 98.582720
  0.174000, 95.665050
  0.176000, 92.750410
  0.178000, 89.854500
  0.180000, 86.984850
  0.182000, 84.166740
  0.184000, 81.393750
  0.186000, 78.668900
  0.188000, 75.982640
  0.190000, 73.325560
  0.192000, 70.698900
  0.194000, 68.088590
  0.196000, 65.502880
  0.198000, 62.950440
  0.200000, 60.436160
  0.202000, 57.981000
  0.204000, 55.583890
  0.206000, 53.246590
  0.208000, 50.971820
  0.210000, 48.757410
  0.212000, 46.597470
  0.214000, 44.483560
  0.216000, 42.415970
  0.218000, 40.396160
  0.220000, 38.416560
  0.222000, 36.477640
  0.224000, 34.582270
  0.226000, 32.738770
  0.228000, 30.935960
  0.230000, 29.179440
  0.232000, 27.467460
  0.234000, 25.793500
  0.236000, 24.164440
  0.238000, 22.577300
  0.240000, 21.023710
  0.242000, 19.523520
  0.244000, 18.065410
  0.246000, 16.655420
  0.248000, 15.284290
  0.250000, 13.962440
  0.252000, 12.681130
  0.254000, 11.441660
  0.256000, 10.244460
  0.258000,  9.087560
  0.260000,  7.971690
  0.262000,  6.897500
  0.264000,  5.853360
  0.266000,  4.846480
  0.268000,  3.863600
  0.270000,  2.916100
  0.272000,  2.005540
  0.274000,  1.132140
  0.276000,  0.304740
  0.278000, -0.479290
  0.280000, -1.215170
  0.282000, -1.900310
  0.284000, -2.537540
  0.286000, -3.127210
  0.288000, -3.687500
  0.290000, -4.201800
  0.292000, -4.690900
  0.294000, -5.150160
  0.296000, -5.585840
  0.298000, -5.997360
  0.300000, -6.392100
  0.302000, -6.767810
  0.304000, -7.117330
  0.306000, -7.440030
  0.308000, -7.733070
  0.310000, -8.002020
  0.312000, -8.243000
  0.314000, -8.460510
  0.316000, -8.647550
  0.318000, -8.808590
  0.320000, -8.952070
  0.322000, -9.083340
  0.324000, -9.197550
  0.326000, -9.294050
  0.328000, -9.380220
  0.330000, -9.444710
  0.332000, -9.494870
  0.334000, -9.536590
  0.336000, -9.552060
  0.338000, -9.554890
  0.340000, -9.542440
  0.342000, -9.510800
  0.344000, -9.469830
  0.346000, -9.412380
  0.348000, -9.345120
  0.350000, -9.280960
  0.352000, -9.209040
  0.354000, -9.139350
  0.356000, -9.069590
  0.358000, -8.994530
  0.360000, -8.918640
  0.362000, -8.838970
  0.364000, -8.751820
  0.366000, -8.649190
  0.368000, -8.544540
  0.370000, -8.430500
  0.372000, -8.303210
  0.374000, -8.173420
  0.376000, -8.040610
  0.378000, -7.906250
  0.380000, -7.775480
  0.382000, -7.645670
  0.384000, -7.517570
  0.386000, -7.389220
  0.388000, -7.256350
  0.390000, -7.127040
  0.392000, -6.994110
  0.394000, -6.857790
  0.396000, -6.725220
  0.398000, -6.596470
  0.400000, -6.464240
  0.402000, -6.340060
  0.404000, -6.217290
  0.406000, -6.093730
  0.408000, -5.971050
  0.410000, -5.852930
  0.412000, -5.731720
  0.414000, -5.612540
  0.416000, -5.484370
  0.418000, -5.355480
  0.420000, -5.225880
  0.422000, -5.096620
  0.424000, -4.964840
  0.426000, -4.840040
  0.428000, -4.720790
  0.430000, -4.604340
  0.432000, -4.499970
  0.434000, -4.403910
  0.436000, -4.321900
  0.438000, -4.244860
  0.440000, -4.171290
  0.442000, -4.113060
  0.444000, -4.055580
  0.446000, -4.003430
  0.448000, -3.947870
  0.450000, -3.889510
  0.452000, -3.827340
  0.454000, -3.766930
  0.456000, -3.701910
  0.458000, -3.630450
  0.460000, -3.556850
  0.462000, -3.481480
  0.464000, -3.400760
  0.466000, -3.322850
  0.468000, -3.239800
  0.470000, -3.158200
  0.472000, -3.077220
  0.474000, -2.989230
  0.476000, -2.914180
  0.478000, -2.832240
  0.480000, -2.743800
  0.482000, -2.655350
  0.484000, -2.557940
  0.486000, -2.453820
  0.488000, -2.334620
  0.490000, -2.210860
  0.492000, -2.065160
  0.494000, -1.919270
  0.496000, -1.766410
  0.498000, -1.612760
  0.500000, -1.461800
  0.502000, -1.311410
  0.504000, -1.164010
  0.506000, -1.020060
  0.508000, -0.872360
  0.510000, -0.721390
  0.512000, -0.573900
  0.514000, -0.422780
  0.516000, -0.266030
  0.518000, -0.101510
  0.520000,  0.063840
  0.522000,  0.234850
  0.524000,  0.400560
  0.526000,  0.559680
  0.528000,  0.712810
  0.530000,  0.858200
  0.532000,  0.990410
  0.534000,  1.113370
  0.536000,  1.222610
  0.538000,  1.320700
  0.540000,  1.412340
  0.542000,  1.490590
  0.544000,  1.561500
  0.546000,  1.624680
  0.548000,  1.681960
  0.550000,  1.736990
  0.552000,  1.782310
  0.554000,  1.827440
  0.556000,  1.869170
  0.558000,  1.911910
  0.560000,  1.946110
  0.562000,  1.978520
  0.564000,  2.009840
  0.566000,  2.034710
  0.568000,  2.053740
  0.570000,  2.067810
  0.572000,  2.080730
  0.574000,  2.083520
  0.576000,  2.083880
  0.578000,  2.080400
  0.580000,  2.077720
  0.582000,  2.073940
  0.584000,  2.067690
  0.586000,  2.061270
  0.588000,  2.046460
  0.590000,  2.027260
  0.592000,  1.996210
  0.594000,  1.957060
  0.596000,  1.908680
  0.598000,  1.847570
  0.600000,  1.781770
  0.602000,  1.709580
  0.604000,  1.633640
  0.606000,  1.554090
  0.608000,  1.475020
  0.610000,  1.399320
  0.612000,  1.321910
  0.614000,  1.253800
  0.616000,  1.177680
  0.618000,  1.106270
  0.620000,  1.032350
  0.622000,  0.948420
  0.624000,  0.861150
  0.626000,  0.770780
  0.628000,  0.678050
  0.630000,  0.587760
  0.632000,  0.500410
  0.634000,  0.413750
  0.636000,  0.332740
  0.638000,  0.262100
  0.640000,  0.199080
  0.642000,  0.144600
  0.644000,  0.094970
  0.646000,  0.045520
  0.648000, -0.001390
  0.650000, -0.046600
  0.652000, -0.098700
  0.654000, -0.162570
  0.656000, -0.229360
  0.658000, -0.299970
  0.660000, -0.377000
  0.662000, -0.451950
  0.664000, -0.525890
  0.666000, -0.587160
  0.668000, -0.642230
  0.670000, -0.685710
  0.672000, -0.717940
  0.674000, -0.739150
  0.676000, -0.751640
  0.678000, -0.761570
  0.680000, -0.766280
  0.682000, -0.771430
  0.684000, -0.775730
  0.686000, -0.784330
  0.688000, -0.794090
  0.690000, -0.808380
  0.692000, -0.821430
  0.694000, -0.843840
  0.696000, -0.859530
  0.698000, -0.879470
  0.700000, -0.893540
  0.702000, -0.902410
  0.704000, -0.903480
  0.706000, -0.900460
  0.708000, -0.885630
  0.710000, -0.871240
  0.712000, -0.847380
  0.714000, -0.823090
  0.716000, -0.790110
  0.718000, -0.760050
  0.720000, -0.724940
  0.722000, -0.699490
  0.724000, -0.678140
  0.726000, -0.654520
  0.728000, -0.639890
  0.730000, -0.628220
  0.732000, -0.617470
  0.734000, -0.604000
  0.736000, -0.592440
  0.738000, -0.580960
  0.740000, -0.564670
  0.742000, -0.553580
  0.744000, -0.531850
  0.746000, -0.507400
  0.748000, -0.485150
  0.750000, -0.455760
  0.752000, -0.426930
  0.754000, -0.400990
  0.756000, -0.375020
  0.758000, -0.356910
  0.760000, -0.334420
  0.762000, -0.321740
  0.764000, -0.309780
  0.766000, -0.298290
  0.768000, -0.291190
  0.770000, -0.283350
  0.772000, -0.271060
  0.774000, -0.255430
  0.776000, -0.230980
  0.778000, -0.204530
  0.780000, -0.175490
  0.782000, -0.136910
  0.784000, -0.095330
  0.786000, -0.047360
  0.788000,  0.000020
  0.790000,  0.044670
  0.792000,  0.088000
  0.794000,  0.126250
  0.796000,  0.156600
  0.798000,  0.176340
  0.800000,  0.195750
  0.802000,  0.209160
  0.804000,  0.212620
  0.806000,  0.218670
  0.808000,  0.216130
  0.810000,  0.211170
  0.812000,  0.204680
  0.814000,  0.199280
  0.816000,  0.198150
  0.818000,  0.196800
  0.820000,  0.200890
  0.822000,  0.212890
  0.824000,  0.221850
  0.826000,  0.224820
  0.828000,  0.232950
  0.830000,  0.237390
  0.832000,  0.244820
  0.834000,  0.244710
  0.836000,  0.245110
  0.838000,  0.244480
  0.840000,  0.251890
  0.842000,  0.256440
  0.844000,  0.257950
  0.846000,  0.273300
  0.848000,  0.292470
  0.850000,  0.308840
  0.852000,  0.328150
  0.854000,  0.356190
  0.856000,  0.383340
  0.858000,  0.401380
  0.860000,  0.414670
  0.862000,  0.425330
  0.864000,  0.419630
  0.866000,  0.410100
  0.868000,  0.398920
  0.870000,  0.378540
  0.872000,  0.362110
  0.874000,  0.338890
  0.876000,  0.322070
  0.878000,  0.311580
  0.880000,  0.306410
  0.882000,  0.309880
  0.884000,  0.311730
  0.886000,  0.317380
  0.888000,  0.328220
  0.890000,  0.336650
  0.892000,  0.342960
  0.894000,  0.350780
  0.896000,  0.348540
  0.898000,  0.337830
  0.900000,  0.327580
  0.902000,  0.310770
  0.904000,  0.289720
  0.906000,  0.268340
  0.908000,  0.251360
  0.910000,  0.232180
  0.912000,  0.215450
  0.914000,  0.202050
  0.916000,  0.194510
  0.918000,  0.186500
  0.920000,  0.185030
  0.922000,  0.177940
  0.924000,  0.174470
  0.926000,  0.177340
  0.928000,  0.175570
  0.930000,  0.165460
  0.932000,  0.153880
  0.934000,  0.139220
  0.936000,  0.124480
  0.938000,  0.099360
  0.940000,  0.075810
  0.942000,  0.054570
  0.944000,  0.032250
  0.946000,  0.018730
  0.948000,  0.010520
  0.950000,  0.002240
  0.952000, -0.002430
  0.954000, -0.013410
  0.956000, -0.012210
  0.958000, -0.008660
  0.960000, -0.009440
  0.962000, -0.013910
  0.964000, -0.022790
  0.966000, -0.029520
  0.968000, -0.040430
  0.970000, -0.056480
  0.972000, -0.083080
  0.974000, -0.107480
  0.976000, -0.135380
  0.978000, -0.163050
  0.980000, -0.190350
  0.982000, -0.213300
  0.984000, -0.233790
  0.986000, -0.256630
  0.988000, -0.274070
  0.990000, -0.289900
  0.992000, -0.312680
  0.994000, -0.332040
  0.996000, -0.351460
  0.998000, -0.373520
  1.000000, -0.391730
