# z (nm)   (kJ/mol)
  0.076000,274.380400
  0.078000,271.926960
  0.080000,270.521660
  0.082000,268.027030
  0.084000,265.246980
  0.086000,262.156920
  0.088000,259.627540
  0.090000,257.048480
  0.092000,254.457650
  0.094000,251.868900
  0.096000,249.226130
  0.098000,246.553440
  0.100000,243.839310
  0.102000,241.070570
  0.104000,238.228590
  0.106000,235.290090
  0.108000,232.247650
  0.110000,229.082080
  0.112000,225.782610
  0.114000,222.333860
  0.116000,218.725820
  0.118000,214.955400
  0.120000,211.021610
  0.122000,206.952770
  0.124000,202.769320
  0.126000,198.508080
  0.128000,194.214610
  0.130000,189.934960
  0.132000,185.700950
  0.134000,181.540250
  0.136000,177.463690
  0.138000,173.477760
  0.140000,169.578830
  0.142000,165.765600
  0.144000,162.036410
  0.146000,158.391720
  0.148000,154.835710
  0.150000,151.367840
  0.152000,147.983250
  0.154000,144.669000
  0.156000,141.423830
  0.158000,138.230240
  0.160000,135.082200
  0.162000,131.968790
  0.164000,128.886420
  0.166000,125.824880
  0.168000,122.793930
  0.170000,119.803090
  0.172000,116.858480
  0.174000,113.956340
  0.176000,111.087960
  0.178000,108.251740
  0.180000,105.431620
  0.182000,102.625750
  0.184000, 99.837680
  0.186000, 97.072410
  0.188000, 94.340020
  0.190000, 91.658600
  0.192000, 89.014060
  0.194000, 86.413880
  0.196000, 83.840980
  0.198000, 81.295680
  0.200000, 78.767140
  0.202000, 76.261340
  0.204000, 73.790630
  0.206000, 71.361000
  0.208000, 68.985430
  0.210000, 66.663270
  0.212000, 64.397980
  0.214000, 62.186590
  0.216000, 60.027360
  0.218000, 57.919180
  0.220000, 55.864210
  0.222000, 53.856420
  0.224000, 51.897630
  0.226000, 49.968540
  0.228000, 48.064860
  0.230000, 46.178040
  0.232000, 44.308470
  0.234000, 42.452220
  0.236000, 40.629730
  0.238000, 38.857030
  0.240000, 37.157610
  0.242000, 35.538200
  0.244000, 34.012270
  0.246000, 32.562010
  0.248000, 31.168570
  0.250000, 29.814770
  0.252000, 28.486970
  0.254000, 27.172590
  0.256000, 25.870380
  0.258000, 24.586370
  0.260000, 23.320320
  0.262000, 22.085990
  0.264000, 20.879490
  0.266000, 19.711850
  0.268000, 18.592720
  0.270000, 17.517710
  0.272000, 16.499140
  0.274000, 15.523540
  0.276000, 14.606870
  0.278000, 13.731640
  0.280000, 12.893880
  0.282000, 12.096830
  0.284000, 11.333920
  0.286000, 10.596800
  0.288000,  9.877320
  0.290000,  9.186890
  0.292000,  8.521950
  0.294000,  7.880000
  0.296000,  7.266540
  0.298000,  6.685340
  0.300000,  6.130760
  0.302000,  5.606970
  0.304000,  5.107100
  0.306000,  4.639230
  0.308000,  4.192940
  0.310000,  3.769570
  0.312000,  3.370180
  0.314000,  2.989770
  0.316000,  2.635320
  0.318000,  2.292870
  0.320000,  1.974720
  0.322000,  1.671750
  0.324000,  1.393140
  0.326000,  1.116420
  0.328000,  0.849640
  0.330000,  0.609150
  0.332000,  0.374320
  0.334000,  0.151500
  0.336000, -0.053810
  0.338000, -0.237390
  0.340000, -0.408640
  0.342000, -0.555260
  0.344000, -0.685050
  0.346000, -0.800180
  0.348000, -0.901680
  0.350000, -0.998130
  0.352000, -1.083130
  0.354000, -1.170580
  0.356000, -1.257700
  0.358000, -1.347590
  0.360000, -1.443110
  0.362000, -1.531250
  0.364000, -1.624950
  0.366000, -1.709980
  0.368000, -1.796100
  0.370000, -1.873500
  0.372000, -1.945210
  0.374000, -1.999360
  0.376000, -2.037990
  0.378000, -2.062130
  0.380000, -2.064950
  0.382000, -2.059240
  0.384000, -2.043340
  0.386000, -2.023120
  0.388000, -2.009750
  0.390000, -2.001440
  0.392000, -2.004530
  0.394000, -2.018620
  0.396000, -2.046440
  0.398000, -2.095250
  0.400000, -2.150490
  0.402000, -2.219740
  0.404000, -2.293330
  0.406000, -2.369580
  0.408000, -2.454280
  0.410000, -2.524300
  0.412000, -2.596310
  0.414000, -2.660240
  0.416000, -2.724150
  0.418000, -2.786210
  0.420000, -2.839530
  0.422000, -2.904830
  0.424000, -2.967840
  0.426000, -3.030330
  0.428000, -3.095950
  0.430000, -3.156240
  0.432000, -3.219430
  0.434000, -3.282530
  0.436000, -3.352930
  0.438000, -3.423730
  0.440000, -3.489930
  0.442000, -3.561020
  0.444000, -3.614190
  0.446000, -3.659220
  0.448000, -3.694800
  0.450000, -3.713270
  0.452000, -3.707430
  0.454000, -3.685370
  0.456000, -3.652550
  0.458000, -3.615440
  0.460000, -3.556380
  0.462000, -3.486050
  0.464000, -3.417680
  0.466000, -3.344590
  0.468000, -3.264390
  0.470000, -3.183650
  0.472000, -3.108110
  0.474000, -3.020670
  0.476000, -2.934750
  0.478000, -2.843110
  0.480000, -2.753850
  0.482000, -2.667260
  0.484000, -2.571650
  0.486000, -2.472200
  0.488000, -2.369180
  0.490000, -2.259480
  0.492000, -2.151180
  0.494000, -2.026920
  0.496000, -1.895000
  0.498000, -1.751210
  0.500000, -1.596010
  0.502000, -1.428070
  0.504000, -1.251880
  0.506000, -1.071940
  0.508000, -0.888400
  0.510000, -0.705150
  0.512000, -0.533750
  0.514000, -0.370980
  0.516000, -0.216640
  0.518000, -0.076070
  0.520000,  0.050810
  0.522000,  0.171120
  0.524000,  0.286820
  0.526000,  0.404960
  0.528000,  0.520360
  0.530000,  0.631080
  0.532000,  0.755850
  0.534000,  0.879900
  0.536000,  0.998850
  0.538000,  1.111610
  0.540000,  1.219410
  0.542000,  1.306900
  0.544000,  1.377120
  0.546000,  1.439160
  0.548000,  1.469970
  0.550000,  1.490740
  0.552000,  1.481170
  0.554000,  1.458930
  0.556000,  1.420300
  0.558000,  1.379680
  0.560000,  1.336150
  0.562000,  1.293730
  0.564000,  1.244230
  0.566000,  1.200260
  0.568000,  1.159910
  0.570000,  1.113450
  0.572000,  1.065290
  0.574000,  1.021990
  0.576000,  0.967120
  0.578000,  0.904700
  0.580000,  0.830630
  0.582000,  0.745130
  0.584000,  0.655750
  0.586000,  0.565700
  0.588000,  0.477800
  0.590000,  0.391470
  0.592000,  0.315950
  0.594000,  0.250580
  0.596000,  0.193610
  0.598000,  0.144570
  0.600000,  0.098120
  0.602000,  0.051730
  0.604000,  0.014250
  0.606000, -0.026760
  0.608000, -0.071340
  0.610000, -0.113900
  0.612000, -0.152720
  0.614000, -0.194270
  0.616000, -0.236830
  0.618000, -0.274490
  0.620000, -0.307020
  0.622000, -0.334560
  0.624000, -0.358480
  0.626000, -0.387100
  0.628000, -0.417380
  0.630000, -0.447820
  0.632000, -0.472880
  0.634000, -0.504320
  0.636000, -0.519030
  0.638000, -0.532010
  0.640000, -0.543260
  0.642000, -0.544300
  0.644000, -0.538150
  0.646000, -0.522550
  0.648000, -0.504290
  0.650000, -0.482230
  0.652000, -0.457030
  0.654000, -0.433870
  0.656000, -0.410800
  0.658000, -0.389640
  0.660000, -0.376460
  0.662000, -0.365110
  0.664000, -0.355400
  0.666000, -0.352120
  0.668000, -0.340570
  0.670000, -0.320330
  0.672000, -0.286210
  0.674000, -0.239280
  0.676000, -0.180490
  0.678000, -0.123420
  0.680000, -0.068630
  0.682000, -0.016460
  0.684000,  0.012490
  0.686000,  0.026030
  0.688000,  0.031730
  0.690000,  0.027300
  0.692000,  0.014940
  0.694000, -0.005490
  0.696000, -0.023690
  0.698000, -0.033940
  0.700000, -0.038970
  0.702000, -0.038450
  0.704000, -0.038590
  0.706000, -0.024370
  0.708000, -0.005770
  0.710000,  0.010320
  0.712000,  0.035320
  0.714000,  0.067270
  0.716000,  0.094860
  0.718000,  0.119040
  0.720000,  0.135610
  0.722000,  0.143750
  0.724000,  0.144200
  0.726000,  0.139980
  0.728000,  0.126440
  0.730000,  0.112290
  0.732000,  0.096160
  0.734000,  0.076510
  0.736000,  0.066130
  0.738000,  0.072090
  0.740000,  0.082570
  0.742000,  0.099840
  0.744000,  0.120780
  0.746000,  0.146840
  0.748000,  0.164240
  0.750000,  0.174260
  0.752000,  0.164020
  0.754000,  0.142840
  0.756000,  0.106180
  0.758000,  0.058810
  0.760000, -0.004560
  0.762000, -0.064960
  0.764000, -0.124620
  0.766000, -0.168730
  0.768000, -0.200910
  0.770000, -0.205550
  0.772000, -0.191980
  0.774000, -0.155040
  0.776000, -0.101270
  0.778000, -0.040660
  0.780000,  0.014410
  0.782000,  0.058150
  0.784000,  0.081120
  0.786000,  0.081990
  0.788000,  0.062180
  0.790000,  0.028020
  0.792000, -0.013230
  0.794000, -0.058390
  0.796000, -0.090380
  0.798000, -0.120170
  0.800000, -0.137450
  0.802000, -0.147270
  0.804000, -0.138490
  0.806000, -0.123430
  0.808000, -0.097970
  0.810000, -0.063850
  0.812000, -0.022350
  0.814000,  0.017480
  0.816000,  0.050790
  0.818000,  0.079180
  0.820000,  0.103680
  0.822000,  0.115860
  0.824000,  0.127910
  0.826000,  0.123110
  0.828000,  0.106360
  0.830000,  0.082670
  0.832000,  0.055210
  0.834000,  0.027610
  0.836000,  0.000060
  0.838000, -0.020470
  0.840000, -0.039760
  0.842000, -0.052700
  0.844000, -0.056660
  0.846000, -0.051080
  0.848000, -0.040260
  0.850000, -0.028340
  0.852000, -0.007260
  0.854000,  0.016560
  0.856000,  0.041750
  0.858000,  0.062020
  0.860000,  0.083290
  0.862000,  0.098100
  0.864000,  0.101540
  0.866000,  0.099920
  0.868000,  0.093230
  0.870000,  0.081090
  0.872000,  0.062310
  0.874000,  0.041150
  0.876000,  0.019850
  0.878000,  0.005030
  0.880000, -0.010180
  0.882000, -0.024610
  0.884000, -0.041930
  0.886000, -0.052190
  0.888000, -0.057060
  0.890000, -0.060710
  0.892000, -0.053200
  0.894000, -0.049870
  0.896000, -0.038910
  0.898000, -0.025710
  0.900000, -0.006110
  0.902000,  0.013360
  0.904000,  0.025100
  0.906000,  0.035590
  0.908000,  0.042050
  0.910000,  0.042920
  0.912000,  0.047850
  0.914000,  0.035660
  0.916000,  0.026810
  0.918000,  0.019910
  0.920000,  0.021810
  0.922000,  0.019570
  0.924000,  0.019310
  0.926000,  0.022540
  0.928000,  0.028080
  0.930000,  0.039070
  0.932000,  0.055090
  0.934000,  0.067380
  0.936000,  0.072400
  0.938000,  0.078350
  0.940000,  0.068320
  0.942000,  0.061760
  0.944000,  0.049340
  0.946000,  0.026710
  0.948000,  0.002700
  0.950000, -0.019390
  0.952000, -0.035060
  0.954000, -0.054440
  0.956000, -0.070120
  0.958000, -0.069290
  0.960000, -0.073320
  0.962000, -0.070760
  0.964000, -0.065420
  0.966000, -0.053040
  0.968000, -0.039000
  0.970000, -0.021260
  0.972000, -0.003910
  0.974000,  0.015260
  0.976000,  0.028110
  0.978000,  0.039830
  0.980000,  0.044500
  0.982000,  0.047520
  0.984000,  0.039070
  0.986000,  0.027900
  0.988000,  0.008030
  0.990000, -0.011990
  0.992000, -0.041600
  0.994000, -0.074620
  0.996000, -0.114450
  0.998000, -0.158310
  1.000000, -0.195930
