# z (nm)   (kJ/mol)
  0.142000,271.946540
  0.144000,269.220490
  0.146000,266.015000
  0.148000,262.712990
  0.150000,259.632880
  0.152000,256.707370
  0.154000,253.837010
  0.156000,250.862080
  0.158000,247.882790
  0.160000,244.858030
  0.162000,241.739520
  0.164000,238.540710
  0.166000,235.234960
  0.168000,231.805490
  0.170000,228.241090
  0.172000,224.531410
  0.174000,220.679430
  0.176000,216.692360
  0.178000,212.585030
  0.180000,208.377180
  0.182000,204.102610
  0.184000,199.796840
  0.186000,195.483930
  0.188000,191.189160
  0.190000,186.931090
  0.192000,182.715520
  0.194000,178.540170
  0.196000,174.405610
  0.198000,170.312150
  0.200000,166.265760
  0.202000,162.277160
  0.204000,158.362860
  0.206000,154.538600
  0.208000,150.821260
  0.210000,147.210330
  0.212000,143.699100
  0.214000,140.265390
  0.216000,136.888590
  0.218000,133.541260
  0.220000,130.217500
  0.222000,126.907680
  0.224000,123.630740
  0.226000,120.401460
  0.228000,117.235690
  0.230000,114.143880
  0.232000,111.134810
  0.234000,108.195520
  0.236000,105.322550
  0.238000,102.482560
  0.240000, 99.666960
  0.242000, 96.853080
  0.244000, 94.038660
  0.246000, 91.226120
  0.248000, 88.427040
  0.250000, 85.652030
  0.252000, 82.920340
  0.254000, 80.242710
  0.256000, 77.615570
  0.258000, 75.038400
  0.260000, 72.508500
  0.262000, 70.018580
  0.264000, 67.561260
  0.266000, 65.123740
  0.268000, 62.698440
  0.270000, 60.297560
  0.272000, 57.917890
  0.274000, 55.586620
  0.276000, 53.305160
  0.278000, 51.105740
  0.280000, 48.990280
  0.282000, 46.965410
  0.284000, 45.017710
  0.286000, 43.148290
  0.288000, 41.324950
  0.290000, 39.540670
  0.292000, 37.775670
  0.294000, 36.024980
  0.296000, 34.283680
  0.298000, 32.558780
  0.300000, 30.862810
  0.302000, 29.197970
  0.304000, 27.581880
  0.306000, 26.018250
  0.308000, 24.510530
  0.310000, 23.062560
  0.312000, 21.671800
  0.314000, 20.345190
  0.316000, 19.066660
  0.318000, 17.837140
  0.320000, 16.651770
  0.322000, 15.503540
  0.324000, 14.388910
  0.326000, 13.299620
  0.328000, 12.234640
  0.330000, 11.190540
  0.332000, 10.170860
  0.334000,  9.168490
  0.336000,  8.201190
  0.338000,  7.256700
  0.340000,  6.365760
  0.342000,  5.516730
  0.344000,  4.733250
  0.346000,  3.995230
  0.348000,  3.311030
  0.350000,  2.689770
  0.352000,  2.105470
  0.354000,  1.552250
  0.356000,  1.026130
  0.358000,  0.515780
  0.360000,  0.015440
  0.362000, -0.472070
  0.364000, -0.942430
  0.366000, -1.406090
  0.368000, -1.859970
  0.370000, -2.284780
  0.372000, -2.680210
  0.374000, -3.053050
  0.376000, -3.386090
  0.378000, -3.680250
  0.380000, -3.947060
  0.382000, -4.180570
  0.384000, -4.381890
  0.386000, -4.558020
  0.388000, -4.705310
  0.390000, -4.835650
  0.392000, -4.956890
  0.394000, -5.064930
  0.396000, -5.171790
  0.398000, -5.266310
  0.400000, -5.351580
  0.402000, -5.421520
  0.404000, -5.473330
  0.406000, -5.497240
  0.408000, -5.501060
  0.410000, -5.485150
  0.412000, -5.458790
  0.414000, -5.415240
  0.416000, -5.363820
  0.418000, -5.311430
  0.420000, -5.262540
  0.422000, -5.207190
  0.424000, -5.152650
  0.426000, -5.093030
  0.428000, -5.027480
  0.430000, -4.955210
  0.432000, -4.869170
  0.434000, -4.772520
  0.436000, -4.664670
  0.438000, -4.546710
  0.440000, -4.426910
  0.442000, -4.301960
  0.444000, -4.187320
  0.446000, -4.075900
  0.448000, -3.970870
  0.450000, -3.865420
  0.452000, -3.770910
  0.454000, -3.672580
  0.456000, -3.564000
  0.458000, -3.455850
  0.460000, -3.335690
  0.462000, -3.201910
  0.464000, -3.061310
  0.466000, -2.916390
  0.468000, -2.770890
  0.470000, -2.624790
  0.472000, -2.484160
  0.474000, -2.353080
  0.476000, -2.229490
  0.478000, -2.112740
  0.480000, -2.003040
  0.482000, -1.897940
  0.484000, -1.784620
  0.486000, -1.674830
  0.488000, -1.561700
  0.490000, -1.433110
  0.492000, -1.302730
  0.494000, -1.154620
  0.496000, -1.007290
  0.498000, -0.850720
  0.500000, -0.686980
  0.502000, -0.523580
  0.504000, -0.364850
  0.506000, -0.207320
  0.508000, -0.052340
  0.510000,  0.095620
  0.512000,  0.233420
  0.514000,  0.356790
  0.516000,  0.476540
  0.518000,  0.586460
  0.520000,  0.685750
  0.522000,  0.781400
  0.524000,  0.882560
  0.526000,  0.980900
  0.528000,  1.079090
  0.530000,  1.179620
  0.532000,  1.283960
  0.534000,  1.387860
  0.536000,  1.487150
  0.538000,  1.592640
  0.540000,  1.691870
  0.542000,  1.789000
  0.544000,  1.882930
  0.546000,  1.968020
  0.548000,  2.049050
  0.550000,  2.122120
  0.552000,  2.201680
  0.554000,  2.274290
  0.556000,  2.353780
  0.558000,  2.429960
  0.560000,  2.504200
  0.562000,  2.574760
  0.564000,  2.648100
  0.566000,  2.715850
  0.568000,  2.782520
  0.570000,  2.836410
  0.572000,  2.884760
  0.574000,  2.935370
  0.576000,  2.972140
  0.578000,  3.006960
  0.580000,  3.037040
  0.582000,  3.065130
  0.584000,  3.086160
  0.586000,  3.094670
  0.588000,  3.090120
  0.590000,  3.076150
  0.592000,  3.044810
  0.594000,  3.002870
  0.596000,  2.947900
  0.598000,  2.884530
  0.600000,  2.815170
  0.602000,  2.736500
  0.604000,  2.655860
  0.606000,  2.578970
  0.608000,  2.501910
  0.610000,  2.424480
  0.612000,  2.344630
  0.614000,  2.262200
  0.616000,  2.177960
  0.618000,  2.085110
  0.620000,  1.978370
  0.622000,  1.857660
  0.624000,  1.721150
  0.626000,  1.581910
  0.628000,  1.436130
  0.630000,  1.282580
  0.632000,  1.134080
  0.634000,  0.988450
  0.636000,  0.848260
  0.638000,  0.710280
  0.640000,  0.581760
  0.642000,  0.457030
  0.644000,  0.340910
  0.646000,  0.229350
  0.648000,  0.108940
  0.650000, -0.018660
  0.652000, -0.137670
  0.654000, -0.264230
  0.656000, -0.389390
  0.658000, -0.516140
  0.660000, -0.641780
  0.662000, -0.758950
  0.664000, -0.875070
  0.666000, -0.993960
  0.668000, -1.109520
  0.670000, -1.218880
  0.672000, -1.323140
  0.674000, -1.421720
  0.676000, -1.519950
  0.678000, -1.614790
  0.680000, -1.698400
  0.682000, -1.776380
  0.684000, -1.843960
  0.686000, -1.901140
  0.688000, -1.950210
  0.690000, -1.991790
  0.692000, -2.034170
  0.694000, -2.065070
  0.696000, -2.103750
  0.698000, -2.135860
  0.700000, -2.168230
  0.702000, -2.193650
  0.704000, -2.215340
  0.706000, -2.230860
  0.708000, -2.240050
  0.710000, -2.240000
  0.712000, -2.234460
  0.714000, -2.238700
  0.716000, -2.232070
  0.718000, -2.225140
  0.720000, -2.209780
  0.722000, -2.193100
  0.724000, -2.180540
  0.726000, -2.157180
  0.728000, -2.123400
  0.730000, -2.080720
  0.732000, -2.032220
  0.734000, -1.964910
  0.736000, -1.884970
  0.738000, -1.802720
  0.740000, -1.710900
  0.742000, -1.624700
  0.744000, -1.547790
  0.746000, -1.481100
  0.748000, -1.452100
  0.750000, -1.443190
  0.752000, -1.449040
  0.754000, -1.467800
  0.756000, -1.484360
  0.758000, -1.493780
  0.760000, -1.482140
  0.762000, -1.441060
  0.764000, -1.373170
  0.766000, -1.280410
  0.768000, -1.170160
  0.770000, -1.052990
  0.772000, -0.941290
  0.774000, -0.837250
  0.776000, -0.752390
  0.778000, -0.685990
  0.780000, -0.636990
  0.782000, -0.601060
  0.784000, -0.582780
  0.786000, -0.559120
  0.788000, -0.536820
  0.790000, -0.505130
  0.792000, -0.468550
  0.794000, -0.417760
  0.796000, -0.359990
  0.798000, -0.299430
  0.800000, -0.236360
  0.802000, -0.172060
  0.804000, -0.110800
  0.806000, -0.052310
  0.808000,  0.000560
  0.810000,  0.053830
  0.812000,  0.100380
  0.814000,  0.146350
  0.816000,  0.195160
  0.818000,  0.239420
  0.820000,  0.289000
  0.822000,  0.338650
  0.824000,  0.388660
  0.826000,  0.433620
  0.828000,  0.479800
  0.830000,  0.523610
  0.832000,  0.559390
  0.834000,  0.588990
  0.836000,  0.614270
  0.838000,  0.628450
  0.840000,  0.642830
  0.842000,  0.651360
  0.844000,  0.661720
  0.846000,  0.673350
  0.848000,  0.687690
  0.850000,  0.705890
  0.852000,  0.718100
  0.854000,  0.732360
  0.856000,  0.744570
  0.858000,  0.762250
  0.860000,  0.779430
  0.862000,  0.793280
  0.864000,  0.809720
  0.866000,  0.827760
  0.868000,  0.847270
  0.870000,  0.859500
  0.872000,  0.873010
  0.874000,  0.880390
  0.876000,  0.882490
  0.878000,  0.882810
  0.880000,  0.880730
  0.882000,  0.878310
  0.884000,  0.876850
  0.886000,  0.864940
  0.888000,  0.856150
  0.890000,  0.846410
  0.892000,  0.830790
  0.894000,  0.812440
  0.896000,  0.789220
  0.898000,  0.762980
  0.900000,  0.733590
  0.902000,  0.702850
  0.904000,  0.676050
  0.906000,  0.647910
  0.908000,  0.619760
  0.910000,  0.592910
  0.912000,  0.574760
  0.914000,  0.557270
  0.916000,  0.540210
  0.918000,  0.520290
  0.920000,  0.491440
  0.922000,  0.459180
  0.924000,  0.411280
  0.926000,  0.357840
  0.928000,  0.299310
  0.930000,  0.238340
  0.932000,  0.177950
  0.934000,  0.120400
  0.936000,  0.071930
  0.938000,  0.034680
  0.940000,  0.009970
  0.942000, -0.009060
  0.944000, -0.011830
  0.946000, -0.022290
  0.948000, -0.024340
  0.950000, -0.033780
  0.952000, -0.043040
  0.954000, -0.050590
  0.956000, -0.070310
  0.958000, -0.094120
  0.960000, -0.128580
  0.962000, -0.171670
  0.964000, -0.217220
  0.966000, -0.276370
  0.968000, -0.323220
  0.970000, -0.376140
  0.972000, -0.420530
  0.974000, -0.457210
  0.976000, -0.476670
  0.978000, -0.482130
  0.980000, -0.478410
  0.982000, -0.469120
  0.984000, -0.450070
  0.986000, -0.423910
  0.988000, -0.399370
  0.990000, -0.377470
  0.992000, -0.362880
  0.994000, -0.356640
  0.996000, -0.356750
  0.998000, -0.364610
  1.000000, -0.376000
