# z (nm)   (kJ/mol)
  0.068000,280.202860
  0.070000,277.380830
  0.072000,274.585240
  0.074000,270.723800
  0.076000,267.868080
  0.078000,264.754750
  0.080000,261.631530
  0.082000,258.651760
  0.084000,255.656050
  0.086000,252.663540
  0.088000,249.624610
  0.090000,246.562070
  0.092000,243.465310
  0.094000,240.315900
  0.096000,237.116420
  0.098000,233.850490
  0.100000,230.513810
  0.102000,227.102520
  0.104000,223.607690
  0.106000,220.024450
  0.108000,216.351940
  0.110000,212.588490
  0.112000,208.730680
  0.114000,204.790400
  0.116000,200.779730
  0.118000,196.703520
  0.120000,192.585050
  0.122000,188.434540
  0.124000,184.281050
  0.126000,180.134740
  0.128000,176.020400
  0.130000,171.949370
  0.132000,167.943210
  0.134000,164.017850
  0.136000,160.176650
  0.138000,156.424000
  0.140000,152.765770
  0.142000,149.204810
  0.144000,145.737730
  0.146000,142.356260
  0.148000,139.049530
  0.150000,135.816450
  0.152000,132.641110
  0.154000,129.519340
  0.156000,126.446410
  0.158000,123.420730
  0.160000,120.432490
  0.162000,117.480200
  0.164000,114.561230
  0.166000,111.662290
  0.168000,108.785790
  0.170000,105.918680
  0.172000,103.052710
  0.174000,100.185190
  0.176000, 97.321780
  0.178000, 94.465610
  0.180000, 91.622840
  0.182000, 88.808710
  0.184000, 86.041340
  0.186000, 83.327230
  0.188000, 80.675760
  0.190000, 78.089960
  0.192000, 75.561250
  0.194000, 73.083010
  0.196000, 70.653530
  0.198000, 68.261420
  0.200000, 65.907510
  0.202000, 63.578550
  0.204000, 61.276940
  0.206000, 59.004060
  0.208000, 56.758570
  0.210000, 54.547460
  0.212000, 52.372310
  0.214000, 50.245100
  0.216000, 48.166890
  0.218000, 46.145810
  0.220000, 44.179770
  0.222000, 42.288620
  0.224000, 40.455610
  0.226000, 38.686800
  0.228000, 36.972600
  0.230000, 35.301480
  0.232000, 33.666280
  0.234000, 32.055010
  0.236000, 30.454990
  0.238000, 28.866730
  0.240000, 27.305570
  0.242000, 25.768090
  0.244000, 24.261990
  0.246000, 22.801520
  0.248000, 21.391210
  0.250000, 20.042950
  0.252000, 18.751980
  0.254000, 17.516290
  0.256000, 16.330840
  0.258000, 15.177140
  0.260000, 14.061820
  0.262000, 12.966550
  0.264000, 11.906250
  0.266000, 10.875220
  0.268000,  9.878190
  0.270000,  8.916700
  0.272000,  8.006270
  0.274000,  7.148220
  0.276000,  6.332630
  0.278000,  5.561650
  0.280000,  4.833910
  0.282000,  4.133760
  0.284000,  3.468850
  0.286000,  2.824750
  0.288000,  2.196540
  0.290000,  1.588210
  0.292000,  1.004020
  0.294000,  0.443190
  0.296000, -0.098450
  0.298000, -0.606760
  0.300000, -1.078680
  0.302000, -1.510680
  0.304000, -1.912780
  0.306000, -2.283840
  0.308000, -2.618490
  0.310000, -2.924090
  0.312000, -3.195970
  0.314000, -3.451770
  0.316000, -3.680530
  0.318000, -3.888580
  0.320000, -4.075720
  0.322000, -4.245280
  0.324000, -4.402960
  0.326000, -4.547070
  0.328000, -4.678720
  0.330000, -4.798960
  0.332000, -4.901160
  0.334000, -4.987400
  0.336000, -5.057890
  0.338000, -5.116500
  0.340000, -5.161040
  0.342000, -5.188770
  0.344000, -5.208610
  0.346000, -5.218040
  0.348000, -5.220590
  0.350000, -5.213780
  0.352000, -5.196390
  0.354000, -5.172080
  0.356000, -5.135940
  0.358000, -5.095540
  0.360000, -5.043770
  0.362000, -4.982880
  0.364000, -4.912980
  0.366000, -4.830580
  0.368000, -4.738320
  0.370000, -4.647420
  0.372000, -4.550370
  0.374000, -4.452740
  0.376000, -4.357040
  0.378000, -4.266690
  0.380000, -4.174500
  0.382000, -4.080630
  0.384000, -3.989990
  0.386000, -3.901660
  0.388000, -3.814400
  0.390000, -3.721150
  0.392000, -3.632840
  0.394000, -3.552480
  0.396000, -3.458950
  0.398000, -3.365580
  0.400000, -3.267220
  0.402000, -3.174300
  0.404000, -3.086920
  0.406000, -2.994660
  0.408000, -2.911960
  0.410000, -2.830150
  0.412000, -2.756200
  0.414000, -2.692990
  0.416000, -2.629240
  0.418000, -2.571100
  0.420000, -2.520490
  0.422000, -2.478950
  0.424000, -2.439190
  0.426000, -2.392480
  0.428000, -2.358740
  0.430000, -2.315370
  0.432000, -2.271800
  0.434000, -2.222390
  0.436000, -2.161450
  0.438000, -2.093410
  0.440000, -2.012860
  0.442000, -1.923820
  0.444000, -1.821630
  0.446000, -1.715270
  0.448000, -1.594410
  0.450000, -1.470540
  0.452000, -1.343540
  0.454000, -1.215140
  0.456000, -1.092620
  0.458000, -0.966750
  0.460000, -0.844380
  0.462000, -0.727470
  0.464000, -0.609600
  0.466000, -0.491420
  0.468000, -0.367710
  0.470000, -0.243440
  0.472000, -0.109790
  0.474000,  0.025490
  0.476000,  0.163600
  0.478000,  0.308190
  0.480000,  0.457170
  0.482000,  0.604520
  0.484000,  0.755060
  0.486000,  0.910720
  0.488000,  1.064870
  0.490000,  1.218370
  0.492000,  1.368130
  0.494000,  1.517170
  0.496000,  1.661660
  0.498000,  1.805740
  0.500000,  1.945520
  0.502000,  2.075610
  0.504000,  2.202550
  0.506000,  2.323760
  0.508000,  2.443440
  0.510000,  2.554580
  0.512000,  2.660400
  0.514000,  2.763980
  0.516000,  2.858330
  0.518000,  2.956420
  0.520000,  3.046970
  0.522000,  3.125320
  0.524000,  3.202350
  0.526000,  3.280630
  0.528000,  3.354510
  0.530000,  3.420220
  0.532000,  3.490590
  0.534000,  3.551370
  0.536000,  3.609640
  0.538000,  3.660520
  0.540000,  3.708080
  0.542000,  3.750310
  0.544000,  3.784170
  0.546000,  3.816140
  0.548000,  3.844490
  0.550000,  3.860220
  0.552000,  3.876300
  0.554000,  3.889080
  0.556000,  3.891650
  0.558000,  3.887290
  0.560000,  3.880150
  0.562000,  3.866720
  0.564000,  3.845450
  0.566000,  3.818560
  0.568000,  3.782600
  0.570000,  3.738240
  0.572000,  3.685180
  0.574000,  3.631300
  0.576000,  3.574900
  0.578000,  3.499290
  0.580000,  3.418300
  0.582000,  3.332770
  0.584000,  3.244600
  0.586000,  3.149160
  0.588000,  3.050390
  0.590000,  2.950430
  0.592000,  2.843090
  0.594000,  2.735890
  0.596000,  2.628730
  0.598000,  2.525620
  0.600000,  2.414100
  0.602000,  2.304480
  0.604000,  2.205840
  0.606000,  2.103920
  0.608000,  2.002320
  0.610000,  1.906780
  0.612000,  1.817230
  0.614000,  1.731230
  0.616000,  1.643960
  0.618000,  1.561190
  0.620000,  1.481250
  0.622000,  1.401400
  0.624000,  1.320850
  0.626000,  1.248060
  0.628000,  1.169890
  0.630000,  1.091380
  0.632000,  1.009480
  0.634000,  0.928690
  0.636000,  0.850790
  0.638000,  0.776890
  0.640000,  0.706490
  0.642000,  0.642710
  0.644000,  0.584840
  0.646000,  0.531670
  0.648000,  0.490100
  0.650000,  0.445600
  0.652000,  0.404260
  0.654000,  0.366410
  0.656000,  0.335100
  0.658000,  0.310670
  0.660000,  0.285680
  0.662000,  0.261600
  0.664000,  0.239310
  0.666000,  0.213650
  0.668000,  0.186250
  0.670000,  0.159790
  0.672000,  0.136260
  0.674000,  0.110230
  0.676000,  0.077040
  0.678000,  0.045440
  0.680000,  0.016300
  0.682000, -0.015940
  0.684000, -0.040450
  0.686000, -0.066000
  0.688000, -0.088770
  0.690000, -0.103610
  0.692000, -0.116870
  0.694000, -0.125480
  0.696000, -0.133290
  0.698000, -0.135520
  0.700000, -0.131360
  0.702000, -0.123330
  0.704000, -0.110440
  0.706000, -0.100500
  0.708000, -0.085190
  0.710000, -0.071440
  0.712000, -0.054040
  0.714000, -0.039930
  0.716000, -0.029510
  0.718000, -0.020500
  0.720000, -0.008950
  0.722000, -0.004860
  0.724000, -0.002740
  0.726000, -0.003130
  0.728000, -0.000930
  0.730000, -0.002390
  0.732000, -0.000540
  0.734000,  0.000770
  0.736000,  0.005580
  0.738000,  0.013340
  0.740000,  0.028480
  0.742000,  0.041040
  0.744000,  0.058340
  0.746000,  0.082050
  0.748000,  0.104410
  0.750000,  0.131150
  0.752000,  0.151630
  0.754000,  0.176480
  0.756000,  0.195880
  0.758000,  0.214010
  0.760000,  0.231620
  0.762000,  0.241640
  0.764000,  0.256770
  0.766000,  0.266450
  0.768000,  0.282910
  0.770000,  0.301130
  0.772000,  0.323100
  0.774000,  0.339240
  0.776000,  0.366610
  0.778000,  0.384970
  0.780000,  0.404340
  0.782000,  0.426610
  0.784000,  0.444450
  0.786000,  0.460000
  0.788000,  0.481620
  0.790000,  0.496460
  0.792000,  0.506070
  0.794000,  0.518650
  0.796000,  0.533940
  0.798000,  0.548310
  0.800000,  0.554690
  0.802000,  0.560860
  0.804000,  0.566570
  0.806000,  0.569590
  0.808000,  0.571170
  0.810000,  0.569540
  0.812000,  0.570750
  0.814000,  0.572300
  0.816000,  0.573740
  0.818000,  0.585280
  0.820000,  0.590720
  0.822000,  0.605110
  0.824000,  0.618120
  0.826000,  0.636000
  0.828000,  0.650370
  0.830000,  0.670550
  0.832000,  0.686050
  0.834000,  0.704300
  0.836000,  0.718120
  0.838000,  0.723300
  0.840000,  0.724200
  0.842000,  0.723200
  0.844000,  0.719330
  0.846000,  0.707280
  0.848000,  0.697730
  0.850000,  0.687290
  0.852000,  0.681100
  0.854000,  0.669130
  0.856000,  0.664390
  0.858000,  0.661220
  0.860000,  0.657630
  0.862000,  0.659820
  0.864000,  0.658760
  0.866000,  0.651730
  0.868000,  0.645340
  0.870000,  0.634280
  0.872000,  0.626970
  0.874000,  0.614340
  0.876000,  0.597950
  0.878000,  0.583120
  0.880000,  0.569260
  0.882000,  0.554450
  0.884000,  0.540980
  0.886000,  0.525310
  0.888000,  0.506060
  0.890000,  0.485260
  0.892000,  0.465590
  0.894000,  0.442490
  0.896000,  0.418310
  0.898000,  0.390830
  0.900000,  0.371550
  0.902000,  0.340250
  0.904000,  0.315480
  0.906000,  0.290060
  0.908000,  0.265920
  0.910000,  0.243360
  0.912000,  0.221330
  0.914000,  0.200590
  0.916000,  0.178380
  0.918000,  0.159960
  0.920000,  0.141910
  0.922000,  0.124700
  0.924000,  0.108940
  0.926000,  0.096150
  0.928000,  0.090580
  0.930000,  0.083990
  0.932000,  0.073310
  0.934000,  0.061460
  0.936000,  0.056590
  0.938000,  0.053540
  0.940000,  0.045210
  0.942000,  0.035910
  0.944000,  0.028320
  0.946000,  0.020410
  0.948000,  0.014330
  0.950000,  0.002400
  0.952000, -0.007420
  0.954000, -0.022200
  0.956000, -0.036540
  0.958000, -0.042530
  0.960000, -0.050870
  0.962000, -0.061290
  0.964000, -0.073110
  0.966000, -0.087540
  0.968000, -0.095690
  0.970000, -0.106430
  0.972000, -0.118520
  0.974000, -0.126600
  0.976000, -0.140690
  0.978000, -0.155240
  0.980000, -0.164310
  0.982000, -0.177420
  0.984000, -0.186050
  0.986000, -0.191580
  0.988000, -0.198930
  0.990000, -0.201530
  0.992000, -0.198550
  0.994000, -0.199180
  0.996000, -0.198870
  0.998000, -0.204900
  1.000000, -0.207100
