# z (nm)   (kJ/mol)
  0.084000,266.370060
  0.086000,261.988420
  0.088000,257.100070
  0.090000,253.733050
  0.092000,250.430730
  0.094000,247.245980
  0.096000,244.083910
  0.098000,240.904580
  0.100000,237.686630
  0.102000,234.408920
  0.104000,231.072260
  0.106000,227.657290
  0.108000,224.155860
  0.110000,220.555690
  0.112000,216.852450
  0.114000,213.038030
  0.116000,209.116500
  0.118000,205.097100
  0.120000,200.983730
  0.122000,196.801180
  0.124000,192.564650
  0.126000,188.290940
  0.128000,183.998810
  0.130000,179.700800
  0.132000,175.401570
  0.134000,171.108950
  0.136000,166.827380
  0.138000,162.564620
  0.140000,158.342530
  0.142000,154.177880
  0.144000,150.102730
  0.146000,146.128810
  0.148000,142.273960
  0.150000,138.544870
  0.152000,134.929590
  0.154000,131.408560
  0.156000,127.953340
  0.158000,124.524760
  0.160000,121.089620
  0.162000,117.630230
  0.164000,114.136970
  0.166000,110.629390
  0.168000,107.139060
  0.170000,103.697560
  0.172000,100.345070
  0.174000, 97.099290
  0.176000, 93.963250
  0.178000, 90.923150
  0.180000, 87.967660
  0.182000, 85.073940
  0.184000, 82.221190
  0.186000, 79.384140
  0.188000, 76.562800
  0.190000, 73.751410
  0.192000, 70.953160
  0.194000, 68.185430
  0.196000, 65.453690
  0.198000, 62.769130
  0.200000, 60.131540
  0.202000, 57.542190
  0.204000, 55.001170
  0.206000, 52.506110
  0.208000, 50.067970
  0.210000, 47.691860
  0.212000, 45.375540
  0.214000, 43.130860
  0.216000, 40.959070
  0.218000, 38.853550
  0.220000, 36.796160
  0.222000, 34.780470
  0.224000, 32.790680
  0.226000, 30.824160
  0.228000, 28.882140
  0.230000, 26.965390
  0.232000, 25.090260
  0.234000, 23.247510
  0.236000, 21.452540
  0.238000, 19.709090
  0.240000, 18.008420
  0.242000, 16.358800
  0.244000, 14.775050
  0.246000, 13.238690
  0.248000, 11.753570
  0.250000, 10.327340
  0.252000,  8.947370
  0.254000,  7.613030
  0.256000,  6.305610
  0.258000,  5.028900
  0.260000,  3.782770
  0.262000,  2.570120
  0.264000,  1.407480
  0.266000,  0.303400
  0.268000, -0.746570
  0.270000, -1.734980
  0.272000, -2.666770
  0.274000, -3.564960
  0.276000, -4.421710
  0.278000, -5.262230
  0.280000, -6.083690
  0.282000, -6.876950
  0.284000, -7.635150
  0.286000, -8.343990
  0.288000, -8.990920
  0.290000, -9.581570
  0.292000,-10.112010
  0.294000,-10.605080
  0.296000,-11.058470
  0.298000,-11.483130
  0.300000,-11.893720
  0.302000,-12.279990
  0.304000,-12.645030
  0.306000,-12.979960
  0.308000,-13.278170
  0.310000,-13.537550
  0.312000,-13.763370
  0.314000,-13.954890
  0.316000,-14.111210
  0.318000,-14.246850
  0.320000,-14.353390
  0.322000,-14.444940
  0.324000,-14.509510
  0.326000,-14.549400
  0.328000,-14.571450
  0.330000,-14.577430
  0.332000,-14.574970
  0.334000,-14.562700
  0.336000,-14.539920
  0.338000,-14.503200
  0.340000,-14.448330
  0.342000,-14.366810
  0.344000,-14.264290
  0.346000,-14.150990
  0.348000,-14.010870
  0.350000,-13.853380
  0.352000,-13.693120
  0.354000,-13.525290
  0.356000,-13.361890
  0.358000,-13.195180
  0.360000,-13.032920
  0.362000,-12.867010
  0.364000,-12.694020
  0.366000,-12.517610
  0.368000,-12.332280
  0.370000,-12.138500
  0.372000,-11.940920
  0.374000,-11.733390
  0.376000,-11.519380
  0.378000,-11.304130
  0.380000,-11.090540
  0.382000,-10.868230
  0.384000,-10.640630
  0.386000,-10.410790
  0.388000,-10.183860
  0.390000, -9.966000
  0.392000, -9.755870
  0.394000, -9.559970
  0.396000, -9.378220
  0.398000, -9.203310
  0.400000, -9.035160
  0.402000, -8.879040
  0.404000, -8.726890
  0.406000, -8.575170
  0.408000, -8.419270
  0.410000, -8.254400
  0.412000, -8.097860
  0.414000, -7.947130
  0.416000, -7.800120
  0.418000, -7.666890
  0.420000, -7.550940
  0.422000, -7.449550
  0.424000, -7.364500
  0.426000, -7.297460
  0.428000, -7.238670
  0.430000, -7.179270
  0.432000, -7.130870
  0.434000, -7.087190
  0.436000, -7.039770
  0.438000, -6.987290
  0.440000, -6.914300
  0.442000, -6.843210
  0.444000, -6.762980
  0.446000, -6.672450
  0.448000, -6.575330
  0.450000, -6.478770
  0.452000, -6.385130
  0.454000, -6.294140
  0.456000, -6.207550
  0.458000, -6.124910
  0.460000, -6.056340
  0.462000, -5.985930
  0.464000, -5.910470
  0.466000, -5.832550
  0.468000, -5.746060
  0.470000, -5.651390
  0.472000, -5.541170
  0.474000, -5.419170
  0.476000, -5.289710
  0.478000, -5.160420
  0.480000, -5.024900
  0.482000, -4.898230
  0.484000, -4.780150
  0.486000, -4.679310
  0.488000, -4.595410
  0.490000, -4.520680
  0.492000, -4.452510
  0.494000, -4.392800
  0.496000, -4.334680
  0.498000, -4.270200
  0.500000, -4.202270
  0.502000, -4.117780
  0.504000, -4.030280
  0.506000, -3.935700
  0.508000, -3.833440
  0.510000, -3.736460
  0.512000, -3.638570
  0.514000, -3.546720
  0.516000, -3.458510
  0.518000, -3.380860
  0.520000, -3.306060
  0.522000, -3.243050
  0.524000, -3.179780
  0.526000, -3.122810
  0.528000, -3.076960
  0.530000, -3.024840
  0.532000, -2.978510
  0.534000, -2.936730
  0.536000, -2.890110
  0.538000, -2.839190
  0.540000, -2.772500
  0.542000, -2.701300
  0.544000, -2.615210
  0.546000, -2.516930
  0.548000, -2.408860
  0.550000, -2.286620
  0.552000, -2.161180
  0.554000, -2.031870
  0.556000, -1.901270
  0.558000, -1.766340
  0.560000, -1.629590
  0.562000, -1.495180
  0.564000, -1.364790
  0.566000, -1.230320
  0.568000, -1.094100
  0.570000, -0.954600
  0.572000, -0.814890
  0.574000, -0.675170
  0.576000, -0.529960
  0.578000, -0.385910
  0.580000, -0.239830
  0.582000, -0.097270
  0.584000,  0.050270
  0.586000,  0.192890
  0.588000,  0.333120
  0.590000,  0.457470
  0.592000,  0.573400
  0.594000,  0.676490
  0.596000,  0.764730
  0.598000,  0.839980
  0.600000,  0.906170
  0.602000,  0.967990
  0.604000,  1.023950
  0.606000,  1.084260
  0.608000,  1.140710
  0.610000,  1.191470
  0.612000,  1.230340
  0.614000,  1.253060
  0.616000,  1.256430
  0.618000,  1.250900
  0.620000,  1.235010
  0.622000,  1.209670
  0.624000,  1.176700
  0.626000,  1.140130
  0.628000,  1.088040
  0.630000,  1.037220
  0.632000,  0.995440
  0.634000,  0.952490
  0.636000,  0.910170
  0.638000,  0.865970
  0.640000,  0.823220
  0.642000,  0.780790
  0.644000,  0.740500
  0.646000,  0.692210
  0.648000,  0.642470
  0.650000,  0.588710
  0.652000,  0.530310
  0.654000,  0.469120
  0.656000,  0.412200
  0.658000,  0.346880
  0.660000,  0.273960
  0.662000,  0.206950
  0.664000,  0.141620
  0.666000,  0.072620
  0.668000,  0.005540
  0.670000, -0.057760
  0.672000, -0.116510
  0.674000, -0.171090
  0.676000, -0.219310
  0.678000, -0.271330
  0.680000, -0.314560
  0.682000, -0.355840
  0.684000, -0.384140
  0.686000, -0.410370
  0.688000, -0.432290
  0.690000, -0.448990
  0.692000, -0.466650
  0.694000, -0.478480
  0.696000, -0.494640
  0.698000, -0.520060
  0.700000, -0.540710
  0.702000, -0.566030
  0.704000, -0.594560
  0.706000, -0.630910
  0.708000, -0.672650
  0.710000, -0.712220
  0.712000, -0.756480
  0.714000, -0.794290
  0.716000, -0.823400
  0.718000, -0.842970
  0.720000, -0.853960
  0.722000, -0.853490
  0.724000, -0.841210
  0.726000, -0.818300
  0.728000, -0.789380
  0.730000, -0.756330
  0.732000, -0.722350
  0.734000, -0.694490
  0.736000, -0.676720
  0.738000, -0.666040
  0.740000, -0.664850
  0.742000, -0.671420
  0.744000, -0.688400
  0.746000, -0.708460
  0.748000, -0.730270
  0.750000, -0.758650
  0.752000, -0.785750
  0.754000, -0.811830
  0.756000, -0.826710
  0.758000, -0.832780
  0.760000, -0.830900
  0.762000, -0.822800
  0.764000, -0.808510
  0.766000, -0.788160
  0.768000, -0.770730
  0.770000, -0.751350
  0.772000, -0.729410
  0.774000, -0.713110
  0.776000, -0.701490
  0.778000, -0.687400
  0.780000, -0.675280
  0.782000, -0.662290
  0.784000, -0.649110
  0.786000, -0.636530
  0.788000, -0.625620
  0.790000, -0.613800
  0.792000, -0.602380
  0.794000, -0.591230
  0.796000, -0.570280
  0.798000, -0.552650
  0.800000, -0.530370
  0.802000, -0.493580
  0.804000, -0.461510
  0.806000, -0.424590
  0.808000, -0.397070
  0.810000, -0.375850
  0.812000, -0.357820
  0.814000, -0.344090
  0.816000, -0.334190
  0.818000, -0.336290
  0.820000, -0.341710
  0.822000, -0.346260
  0.824000, -0.350930
  0.826000, -0.350670
  0.828000, -0.349620
  0.830000, -0.346750
  0.832000, -0.339580
  0.834000, -0.333140
  0.836000, -0.323160
  0.838000, -0.311960
  0.840000, -0.303370
  0.842000, -0.290690
  0.844000, -0.274730
  0.846000, -0.256250
  0.848000, -0.233250
  0.850000, -0.202830
  0.852000, -0.182830
  0.854000, -0.155540
  0.856000, -0.129210
  0.858000, -0.100050
  0.860000, -0.076620
  0.862000, -0.049680
  0.864000, -0.030500
  0.866000, -0.010030
  0.868000,  0.006950
  0.870000,  0.011780
  0.872000,  0.023450
  0.874000,  0.026670
  0.876000,  0.017400
  0.878000,  0.008220
  0.880000, -0.000670
  0.882000, -0.007310
  0.884000, -0.005670
  0.886000,  0.009680
  0.888000,  0.037530
  0.890000,  0.081220
  0.892000,  0.123600
  0.894000,  0.169700
  0.896000,  0.208820
  0.898000,  0.243410
  0.900000,  0.263820
  0.902000,  0.261390
  0.904000,  0.245350
  0.906000,  0.217900
  0.908000,  0.184620
  0.910000,  0.142600
  0.912000,  0.104620
  0.914000,  0.072210
  0.916000,  0.050610
  0.918000,  0.035040
  0.920000,  0.033240
  0.922000,  0.042370
  0.924000,  0.051980
  0.926000,  0.062910
  0.928000,  0.079100
  0.930000,  0.104130
  0.932000,  0.116380
  0.934000,  0.132290
  0.936000,  0.144880
  0.938000,  0.154600
  0.940000,  0.155370
  0.942000,  0.148040
  0.944000,  0.136570
  0.946000,  0.115600
  0.948000,  0.093410
  0.950000,  0.068590
  0.952000,  0.035760
  0.954000, -0.000880
  0.956000, -0.039600
  0.958000, -0.070950
  0.960000, -0.103140
  0.962000, -0.120840
  0.964000, -0.136780
  0.966000, -0.141100
  0.968000, -0.145170
  0.970000, -0.140350
  0.972000, -0.139360
  0.974000, -0.129010
  0.976000, -0.124770
  0.978000, -0.120900
  0.980000, -0.125990
  0.982000, -0.129030
  0.984000, -0.136890
  0.986000, -0.138700
  0.988000, -0.141860
  0.990000, -0.150980
  0.992000, -0.155960
  0.994000, -0.156520
  0.996000, -0.151580
  0.998000, -0.149270
  1.000000, -0.139880
