# z (nm)   (kJ/mol)
  0.076000,267.693440
  0.078000,265.218220
  0.080000,262.773860
  0.082000,259.530370
  0.084000,256.912040
  0.086000,254.164680
  0.088000,251.483820
  0.090000,248.872020
  0.092000,246.173930
  0.094000,243.429880
  0.096000,240.602260
  0.098000,237.681180
  0.100000,234.648450
  0.102000,231.509210
  0.104000,228.239490
  0.106000,224.841320
  0.108000,221.323230
  0.110000,217.690580
  0.112000,213.952840
  0.114000,210.118750
  0.116000,206.201340
  0.118000,202.211700
  0.120000,198.155210
  0.122000,194.042200
  0.124000,189.873580
  0.126000,185.649910
  0.128000,181.386480
  0.130000,177.089830
  0.132000,172.769420
  0.134000,168.439680
  0.136000,164.125040
  0.138000,159.850950
  0.140000,155.631730
  0.142000,151.495830
  0.144000,147.443840
  0.146000,143.481700
  0.148000,139.595300
  0.150000,135.771260
  0.152000,132.001680
  0.154000,128.263020
  0.156000,124.568180
  0.158000,120.917710
  0.160000,117.341030
  0.162000,113.851580
  0.164000,110.469880
  0.166000,107.192260
  0.168000,103.991480
  0.170000,100.845460
  0.172000, 97.711820
  0.174000, 94.571870
  0.176000, 91.405800
  0.178000, 88.217720
  0.180000, 85.014320
  0.182000, 81.814000
  0.184000, 78.629370
  0.186000, 75.489290
  0.188000, 72.408940
  0.190000, 69.396750
  0.192000, 66.469660
  0.194000, 63.616680
  0.196000, 60.834100
  0.198000, 58.107450
  0.200000, 55.424670
  0.202000, 52.784150
  0.204000, 50.170260
  0.206000, 47.604280
  0.208000, 45.086890
  0.210000, 42.635670
  0.212000, 40.239880
  0.214000, 37.906010
  0.216000, 35.617880
  0.218000, 33.372870
  0.220000, 31.159260
  0.222000, 28.978410
  0.224000, 26.842260
  0.226000, 24.744380
  0.228000, 22.715610
  0.230000, 20.750270
  0.232000, 18.841900
  0.234000, 16.992350
  0.236000, 15.196180
  0.238000, 13.434780
  0.240000, 11.715460
  0.242000, 10.030600
  0.244000,  8.383730
  0.246000,  6.783820
  0.248000,  5.224130
  0.250000,  3.720440
  0.252000,  2.266220
  0.254000,  0.865410
  0.256000, -0.485530
  0.258000, -1.780770
  0.260000, -3.021490
  0.262000, -4.212550
  0.264000, -5.351200
  0.266000, -6.429720
  0.268000, -7.476590
  0.270000, -8.483400
  0.272000, -9.441780
  0.274000,-10.363840
  0.276000,-11.239490
  0.278000,-12.078560
  0.280000,-12.872760
  0.282000,-13.626990
  0.284000,-14.336270
  0.286000,-15.000460
  0.288000,-15.620630
  0.290000,-16.204370
  0.292000,-16.746780
  0.294000,-17.252830
  0.296000,-17.714140
  0.298000,-18.138050
  0.300000,-18.522820
  0.302000,-18.859290
  0.304000,-19.152420
  0.306000,-19.412670
  0.308000,-19.637990
  0.310000,-19.829150
  0.312000,-19.995560
  0.314000,-20.151110
  0.316000,-20.282370
  0.318000,-20.390790
  0.320000,-20.490970
  0.322000,-20.567270
  0.324000,-20.613110
  0.326000,-20.633060
  0.328000,-20.627190
  0.330000,-20.583880
  0.332000,-20.520340
  0.334000,-20.432170
  0.336000,-20.328520
  0.338000,-20.215080
  0.340000,-20.091710
  0.342000,-19.963240
  0.344000,-19.830760
  0.346000,-19.694610
  0.348000,-19.562490
  0.350000,-19.419860
  0.352000,-19.275670
  0.354000,-19.115500
  0.356000,-18.947870
  0.358000,-18.766650
  0.360000,-18.566510
  0.362000,-18.366140
  0.364000,-18.142370
  0.366000,-17.909600
  0.368000,-17.665780
  0.370000,-17.407500
  0.372000,-17.138340
  0.374000,-16.855770
  0.376000,-16.561550
  0.378000,-16.260390
  0.380000,-15.949520
  0.382000,-15.641710
  0.384000,-15.331000
  0.386000,-15.032820
  0.388000,-14.733650
  0.390000,-14.445840
  0.392000,-14.164710
  0.394000,-13.898200
  0.396000,-13.628270
  0.398000,-13.358020
  0.400000,-13.102850
  0.402000,-12.846420
  0.404000,-12.591070
  0.406000,-12.324180
  0.408000,-12.058020
  0.410000,-11.788700
  0.412000,-11.527920
  0.414000,-11.275090
  0.416000,-11.027460
  0.418000,-10.785270
  0.420000,-10.543970
  0.422000,-10.318400
  0.424000,-10.089640
  0.426000, -9.868860
  0.428000, -9.644430
  0.430000, -9.430030
  0.432000, -9.231180
  0.434000, -9.034680
  0.436000, -8.852450
  0.438000, -8.685450
  0.440000, -8.534920
  0.442000, -8.392980
  0.444000, -8.250480
  0.446000, -8.124530
  0.448000, -7.995690
  0.450000, -7.860760
  0.452000, -7.714970
  0.454000, -7.561810
  0.456000, -7.409470
  0.458000, -7.245050
  0.460000, -7.088130
  0.462000, -6.937090
  0.464000, -6.800910
  0.466000, -6.678540
  0.468000, -6.581080
  0.470000, -6.499620
  0.472000, -6.432810
  0.474000, -6.374650
  0.476000, -6.325190
  0.478000, -6.265570
  0.480000, -6.202630
  0.482000, -6.121420
  0.484000, -6.028400
  0.486000, -5.920940
  0.488000, -5.823050
  0.490000, -5.728060
  0.492000, -5.658380
  0.494000, -5.621620
  0.496000, -5.610610
  0.498000, -5.626370
  0.500000, -5.655790
  0.502000, -5.702910
  0.504000, -5.752410
  0.506000, -5.791990
  0.508000, -5.812840
  0.510000, -5.821950
  0.512000, -5.808790
  0.514000, -5.776040
  0.516000, -5.732890
  0.518000, -5.693250
  0.520000, -5.664880
  0.522000, -5.656580
  0.524000, -5.669400
  0.526000, -5.690490
  0.528000, -5.718690
  0.530000, -5.739500
  0.532000, -5.754130
  0.534000, -5.761250
  0.536000, -5.749310
  0.538000, -5.723150
  0.540000, -5.682380
  0.542000, -5.620450
  0.544000, -5.539510
  0.546000, -5.434390
  0.548000, -5.317910
  0.550000, -5.179260
  0.552000, -5.029350
  0.554000, -4.875740
  0.556000, -4.719000
  0.558000, -4.561290
  0.560000, -4.407100
  0.562000, -4.281210
  0.564000, -4.174200
  0.566000, -4.086120
  0.568000, -4.016530
  0.570000, -3.972250
  0.572000, -3.943220
  0.574000, -3.923830
  0.576000, -3.924930
  0.578000, -3.936780
  0.580000, -3.962600
  0.582000, -3.988140
  0.584000, -4.037240
  0.586000, -4.094270
  0.588000, -4.170190
  0.590000, -4.259230
  0.592000, -4.368110
  0.594000, -4.493920
  0.596000, -4.628740
  0.598000, -4.768310
  0.600000, -4.912110
  0.602000, -5.056530
  0.604000, -5.193200
  0.606000, -5.331420
  0.608000, -5.475790
  0.610000, -5.626580
  0.612000, -5.796040
  0.614000, -5.968090
  0.616000, -6.146500
  0.618000, -6.326010
  0.620000, -6.499930
  0.622000, -6.666240
  0.624000, -6.829450
  0.626000, -6.982730
  0.628000, -7.115770
  0.630000, -7.229030
  0.632000, -7.314780
  0.634000, -7.372040
  0.636000, -7.400730
  0.638000, -7.404880
  0.640000, -7.389230
  0.642000, -7.360620
  0.644000, -7.326770
  0.646000, -7.302810
  0.648000, -7.270080
  0.650000, -7.228990
  0.652000, -7.176360
  0.654000, -7.111640
  0.656000, -7.029370
  0.658000, -6.937030
  0.660000, -6.839090
  0.662000, -6.726390
  0.664000, -6.616060
  0.666000, -6.493310
  0.668000, -6.367730
  0.670000, -6.231050
  0.672000, -6.090200
  0.674000, -5.935690
  0.676000, -5.768450
  0.678000, -5.593160
  0.680000, -5.398890
  0.682000, -5.190960
  0.684000, -4.973690
  0.686000, -4.746310
  0.688000, -4.506000
  0.690000, -4.266210
  0.692000, -4.032540
  0.694000, -3.808120
  0.696000, -3.601970
  0.698000, -3.410490
  0.700000, -3.235890
  0.702000, -3.072750
  0.704000, -2.922550
  0.706000, -2.780310
  0.708000, -2.642590
  0.710000, -2.498830
  0.712000, -2.358770
  0.714000, -2.214740
  0.716000, -2.067310
  0.718000, -1.929660
  0.720000, -1.805670
  0.722000, -1.683200
  0.724000, -1.568590
  0.726000, -1.472840
  0.728000, -1.385170
  0.730000, -1.308630
  0.732000, -1.253140
  0.734000, -1.207040
  0.736000, -1.168390
  0.738000, -1.138850
  0.740000, -1.113800
  0.742000, -1.088490
  0.744000, -1.077940
  0.746000, -1.058490
  0.748000, -1.045610
  0.750000, -1.022300
  0.752000, -0.999130
  0.754000, -0.970280
  0.756000, -0.936060
  0.758000, -0.896890
  0.760000, -0.860130
  0.762000, -0.824740
  0.764000, -0.784490
  0.766000, -0.745240
  0.768000, -0.703400
  0.770000, -0.668230
  0.772000, -0.634350
  0.774000, -0.601280
  0.776000, -0.570300
  0.778000, -0.552960
  0.780000, -0.533630
  0.782000, -0.521180
  0.784000, -0.517960
  0.786000, -0.511450
  0.788000, -0.496590
  0.790000, -0.478720
  0.792000, -0.447330
  0.794000, -0.414210
  0.796000, -0.371500
  0.798000, -0.320690
  0.800000, -0.270950
  0.802000, -0.221660
  0.804000, -0.174710
  0.806000, -0.140700
  0.808000, -0.109720
  0.810000, -0.084760
  0.812000, -0.066590
  0.814000, -0.055720
  0.816000, -0.052610
  0.818000, -0.048830
  0.820000, -0.052540
  0.822000, -0.056370
  0.824000, -0.061700
  0.826000, -0.069340
  0.828000, -0.072190
  0.830000, -0.077760
  0.832000, -0.083660
  0.834000, -0.076680
  0.836000, -0.067320
  0.838000, -0.051380
  0.840000, -0.020060
  0.842000,  0.010670
  0.844000,  0.048760
  0.846000,  0.084390
  0.848000,  0.115090
  0.850000,  0.138020
  0.852000,  0.151710
  0.854000,  0.162300
  0.856000,  0.157290
  0.858000,  0.152530
  0.860000,  0.144330
  0.862000,  0.133090
  0.864000,  0.131240
  0.866000,  0.132780
  0.868000,  0.133990
  0.870000,  0.139640
  0.872000,  0.156010
  0.874000,  0.171750
  0.876000,  0.190660
  0.878000,  0.208750
  0.880000,  0.237180
  0.882000,  0.257080
  0.884000,  0.268070
  0.886000,  0.272440
  0.888000,  0.262370
  0.890000,  0.243690
  0.892000,  0.224780
  0.894000,  0.206440
  0.896000,  0.206220
  0.898000,  0.225830
  0.900000,  0.254030
  0.902000,  0.283780
  0.904000,  0.319940
  0.906000,  0.341980
  0.908000,  0.351870
  0.910000,  0.339580
  0.912000,  0.318560
  0.914000,  0.288340
  0.916000,  0.260400
  0.918000,  0.239130
  0.920000,  0.223360
  0.922000,  0.216870
  0.924000,  0.205370
  0.926000,  0.187320
  0.928000,  0.167990
  0.930000,  0.138450
  0.932000,  0.103740
  0.934000,  0.072970
  0.936000,  0.045280
  0.938000,  0.029940
  0.940000,  0.012050
  0.942000,  0.002780
  0.944000, -0.004330
  0.946000, -0.016070
  0.948000, -0.027360
  0.950000, -0.042030
  0.952000, -0.050140
  0.954000, -0.064430
  0.956000, -0.072950
  0.958000, -0.088310
  0.960000, -0.102790
  0.962000, -0.122570
  0.964000, -0.150970
  0.966000, -0.175110
  0.968000, -0.202900
  0.970000, -0.227570
  0.972000, -0.247390
  0.974000, -0.257140
  0.976000, -0.256460
  0.978000, -0.241700
  0.980000, -0.228610
  0.982000, -0.214590
  0.984000, -0.200490
  0.986000, -0.186420
  0.988000, -0.176400
  0.990000, -0.166430
  0.992000, -0.156770
  0.994000, -0.142220
  0.996000, -0.125720
  0.998000, -0.106740
  1.000000, -0.095070
