# z (nm)   (kJ/mol)
  0.092000,279.397150
  0.094000,277.066970
  0.096000,274.067670
  0.098000,271.755280
  0.100000,269.491610
  0.102000,267.203290
  0.104000,264.929600
  0.106000,262.666490
  0.108000,260.402640
  0.110000,258.078710
  0.112000,255.722170
  0.114000,253.312600
  0.116000,250.834000
  0.118000,248.261800
  0.120000,245.582840
  0.122000,242.770050
  0.124000,239.806040
  0.126000,236.675650
  0.128000,233.371530
  0.130000,229.880270
  0.132000,226.206160
  0.134000,222.363820
  0.136000,218.358010
  0.138000,214.215910
  0.140000,209.961060
  0.142000,205.614380
  0.144000,201.208170
  0.146000,196.764430
  0.148000,192.305800
  0.150000,187.854030
  0.152000,183.435540
  0.154000,179.077970
  0.156000,174.815260
  0.158000,170.666130
  0.160000,166.650460
  0.162000,162.764330
  0.164000,158.991380
  0.166000,155.305830
  0.168000,151.688520
  0.170000,148.112640
  0.172000,144.567510
  0.174000,141.049730
  0.176000,137.556610
  0.178000,134.087420
  0.180000,130.641120
  0.182000,127.215700
  0.184000,123.827860
  0.186000,120.480910
  0.188000,117.183000
  0.190000,113.949900
  0.192000,110.778040
  0.194000,107.677690
  0.196000,104.641960
  0.198000,101.665040
  0.200000, 98.741510
  0.202000, 95.848380
  0.204000, 92.984080
  0.206000, 90.132100
  0.208000, 87.281180
  0.210000, 84.426890
  0.212000, 81.586100
  0.214000, 78.779360
  0.216000, 76.021280
  0.218000, 73.340190
  0.220000, 70.741600
  0.222000, 68.219740
  0.224000, 65.759400
  0.226000, 63.324210
  0.228000, 60.899190
  0.230000, 58.475600
  0.232000, 56.076500
  0.234000, 53.715190
  0.236000, 51.432390
  0.238000, 49.238360
  0.240000, 47.140600
  0.242000, 45.121130
  0.244000, 43.157720
  0.246000, 41.228640
  0.248000, 39.324560
  0.250000, 37.427460
  0.252000, 35.549150
  0.254000, 33.680260
  0.256000, 31.835440
  0.258000, 30.027930
  0.260000, 28.268450
  0.262000, 26.558830
  0.264000, 24.911640
  0.266000, 23.326120
  0.268000, 21.791820
  0.270000, 20.317990
  0.272000, 18.895940
  0.274000, 17.524810
  0.276000, 16.196850
  0.278000, 14.911870
  0.280000, 13.665220
  0.282000, 12.461190
  0.284000, 11.289190
  0.286000, 10.148500
  0.288000,  9.043560
  0.290000,  7.968120
  0.292000,  6.937300
  0.294000,  5.938130
  0.296000,  4.984770
  0.298000,  4.072570
  0.300000,  3.199610
  0.302000,  2.369220
  0.304000,  1.577580
  0.306000,  0.823860
  0.308000,  0.111370
  0.310000, -0.567060
  0.312000, -1.207710
  0.314000, -1.823680
  0.316000, -2.405070
  0.318000, -2.953660
  0.320000, -3.477750
  0.322000, -3.968590
  0.324000, -4.433560
  0.326000, -4.876340
  0.328000, -5.295820
  0.330000, -5.690300
  0.332000, -6.067660
  0.334000, -6.413630
  0.336000, -6.734030
  0.338000, -7.034900
  0.340000, -7.303130
  0.342000, -7.545750
  0.344000, -7.764120
  0.346000, -7.964390
  0.348000, -8.143380
  0.350000, -8.308730
  0.352000, -8.466950
  0.354000, -8.622550
  0.356000, -8.768630
  0.358000, -8.907950
  0.360000, -9.043420
  0.362000, -9.172550
  0.364000, -9.293090
  0.366000, -9.390250
  0.368000, -9.473420
  0.370000, -9.541150
  0.372000, -9.581160
  0.374000, -9.600350
  0.376000, -9.609840
  0.378000, -9.603200
  0.380000, -9.581910
  0.382000, -9.558100
  0.384000, -9.524880
  0.386000, -9.491100
  0.388000, -9.456010
  0.390000, -9.417210
  0.392000, -9.366970
  0.394000, -9.319270
  0.396000, -9.261800
  0.398000, -9.201920
  0.400000, -9.133050
  0.402000, -9.052560
  0.404000, -8.970110
  0.406000, -8.881240
  0.408000, -8.782140
  0.410000, -8.686470
  0.412000, -8.584150
  0.414000, -8.471680
  0.416000, -8.348290
  0.418000, -8.230640
  0.420000, -8.101020
  0.422000, -7.967730
  0.424000, -7.826150
  0.426000, -7.683760
  0.428000, -7.543870
  0.430000, -7.408060
  0.432000, -7.263730
  0.434000, -7.125020
  0.436000, -6.992740
  0.438000, -6.868440
  0.440000, -6.745720
  0.442000, -6.632560
  0.444000, -6.520150
  0.446000, -6.414880
  0.448000, -6.308720
  0.450000, -6.198260
  0.452000, -6.082070
  0.454000, -5.963650
  0.456000, -5.836030
  0.458000, -5.698590
  0.460000, -5.565200
  0.462000, -5.427310
  0.464000, -5.298740
  0.466000, -5.171650
  0.468000, -5.050740
  0.470000, -4.935120
  0.472000, -4.832850
  0.474000, -4.736570
  0.476000, -4.645450
  0.478000, -4.563540
  0.480000, -4.482260
  0.482000, -4.407310
  0.484000, -4.327320
  0.486000, -4.247120
  0.488000, -4.164700
  0.490000, -4.073560
  0.492000, -3.972320
  0.494000, -3.877270
  0.496000, -3.777140
  0.498000, -3.675440
  0.500000, -3.571150
  0.502000, -3.465460
  0.504000, -3.357460
  0.506000, -3.254870
  0.508000, -3.164380
  0.510000, -3.076460
  0.512000, -2.990090
  0.514000, -2.907940
  0.516000, -2.826560
  0.518000, -2.753830
  0.520000, -2.674070
  0.522000, -2.599200
  0.524000, -2.512660
  0.526000, -2.425920
  0.528000, -2.334940
  0.530000, -2.238600
  0.532000, -2.135630
  0.534000, -2.023540
  0.536000, -1.910800
  0.538000, -1.785220
  0.540000, -1.638130
  0.542000, -1.480280
  0.544000, -1.312810
  0.546000, -1.138770
  0.548000, -0.957250
  0.550000, -0.772060
  0.552000, -0.583040
  0.554000, -0.394830
  0.556000, -0.217950
  0.558000, -0.044990
  0.560000,  0.126600
  0.562000,  0.281400
  0.564000,  0.430610
  0.566000,  0.577530
  0.568000,  0.723840
  0.570000,  0.872640
  0.572000,  1.014740
  0.574000,  1.155170
  0.576000,  1.304650
  0.578000,  1.450360
  0.580000,  1.597650
  0.582000,  1.745140
  0.584000,  1.893060
  0.586000,  2.038770
  0.588000,  2.183120
  0.590000,  2.318420
  0.592000,  2.447040
  0.594000,  2.562440
  0.596000,  2.670870
  0.598000,  2.762380
  0.600000,  2.849620
  0.602000,  2.924460
  0.604000,  2.991710
  0.606000,  3.056250
  0.608000,  3.117170
  0.610000,  3.169350
  0.612000,  3.218750
  0.614000,  3.260430
  0.616000,  3.304430
  0.618000,  3.330340
  0.620000,  3.342130
  0.622000,  3.336600
  0.624000,  3.318740
  0.626000,  3.275580
  0.628000,  3.217470
  0.630000,  3.149360
  0.632000,  3.068010
  0.634000,  2.978850
  0.636000,  2.889730
  0.638000,  2.794770
  0.640000,  2.707040
  0.642000,  2.625880
  0.644000,  2.551250
  0.646000,  2.488690
  0.648000,  2.426500
  0.650000,  2.366860
  0.652000,  2.302320
  0.654000,  2.230520
  0.656000,  2.146330
  0.658000,  2.049840
  0.660000,  1.945270
  0.662000,  1.839840
  0.664000,  1.728450
  0.666000,  1.610310
  0.668000,  1.495760
  0.670000,  1.390950
  0.672000,  1.289180
  0.674000,  1.198930
  0.676000,  1.123260
  0.678000,  1.045290
  0.680000,  0.981580
  0.682000,  0.916820
  0.684000,  0.850260
  0.686000,  0.788290
  0.688000,  0.721320
  0.690000,  0.657300
  0.692000,  0.595080
  0.694000,  0.537940
  0.696000,  0.480920
  0.698000,  0.424860
  0.700000,  0.370660
  0.702000,  0.311950
  0.704000,  0.252260
  0.706000,  0.198560
  0.708000,  0.141620
  0.710000,  0.090960
  0.712000,  0.041640
  0.714000, -0.013830
  0.716000, -0.060100
  0.718000, -0.100660
  0.720000, -0.132020
  0.722000, -0.155580
  0.724000, -0.169010
  0.726000, -0.186270
  0.728000, -0.197520
  0.730000, -0.219140
  0.732000, -0.239140
  0.734000, -0.272710
  0.736000, -0.305410
  0.738000, -0.343670
  0.740000, -0.382040
  0.742000, -0.416960
  0.744000, -0.445160
  0.746000, -0.461390
  0.748000, -0.465540
  0.750000, -0.462750
  0.752000, -0.454240
  0.754000, -0.438750
  0.756000, -0.416880
  0.758000, -0.397700
  0.760000, -0.391490
  0.762000, -0.390320
  0.764000, -0.390480
  0.766000, -0.396760
  0.768000, -0.405910
  0.770000, -0.412940
  0.772000, -0.417290
  0.774000, -0.418990
  0.776000, -0.420800
  0.778000, -0.418870
  0.780000, -0.416290
  0.782000, -0.410460
  0.784000, -0.398600
  0.786000, -0.386540
  0.788000, -0.371670
  0.790000, -0.360170
  0.792000, -0.353830
  0.794000, -0.348140
  0.796000, -0.340040
  0.798000, -0.333150
  0.800000, -0.334220
  0.802000, -0.335580
  0.804000, -0.333480
  0.806000, -0.328710
  0.808000, -0.321370
  0.810000, -0.313890
  0.812000, -0.300000
  0.814000, -0.286740
  0.816000, -0.264740
  0.818000, -0.246270
  0.820000, -0.216350
  0.822000, -0.188670
  0.824000, -0.159180
  0.826000, -0.125300
  0.828000, -0.098920
  0.830000, -0.072200
  0.832000, -0.046900
  0.834000, -0.026940
  0.836000, -0.005690
  0.838000,  0.007220
  0.840000,  0.017510
  0.842000,  0.024230
  0.844000,  0.024560
  0.846000,  0.021410
  0.848000,  0.015530
  0.850000,  0.008860
  0.852000,  0.003980
  0.854000,  0.001280
  0.856000, -0.000230
  0.858000,  0.001230
  0.860000,  0.006450
  0.862000,  0.023560
  0.864000,  0.043780
  0.866000,  0.068940
  0.868000,  0.094480
  0.870000,  0.128750
  0.872000,  0.158160
  0.874000,  0.193650
  0.876000,  0.225950
  0.878000,  0.248340
  0.880000,  0.267670
  0.882000,  0.280640
  0.884000,  0.283330
  0.886000,  0.288360
  0.888000,  0.286450
  0.890000,  0.279060
  0.892000,  0.272200
  0.894000,  0.269200
  0.896000,  0.262150
  0.898000,  0.259850
  0.900000,  0.266450
  0.902000,  0.271890
  0.904000,  0.277850
  0.906000,  0.284860
  0.908000,  0.304130
  0.910000,  0.314870
  0.912000,  0.325400
  0.914000,  0.330180
  0.916000,  0.329060
  0.918000,  0.320110
  0.920000,  0.307340
  0.922000,  0.285040
  0.924000,  0.257970
  0.926000,  0.230080
  0.928000,  0.199910
  0.930000,  0.167240
  0.932000,  0.129730
  0.934000,  0.097620
  0.936000,  0.073290
  0.938000,  0.054920
  0.940000,  0.033820
  0.942000,  0.017170
  0.944000,  0.001980
  0.946000, -0.007060
  0.948000, -0.023440
  0.950000, -0.032100
  0.952000, -0.044200
  0.954000, -0.053430
  0.956000, -0.064240
  0.958000, -0.078230
  0.960000, -0.092860
  0.962000, -0.110780
  0.964000, -0.130510
  0.966000, -0.149710
  0.968000, -0.163400
  0.970000, -0.180860
  0.972000, -0.192620
  0.974000, -0.210060
  0.976000, -0.220860
  0.978000, -0.219380
  0.980000, -0.221390
  0.982000, -0.221020
  0.984000, -0.223110
  0.986000, -0.217910
  0.988000, -0.213940
  0.990000, -0.217860
  0.992000, -0.226020
  0.994000, -0.238140
  0.996000, -0.259310
  0.998000, -0.284200
  1.000000, -0.317840
