# z (nm)   (kJ/mol)
  0.100000,266.928850
  0.102000,264.546870
  0.104000,262.211040
  0.106000,259.730620
  0.108000,257.378070
  0.110000,255.037700
  0.112000,252.710400
  0.114000,250.386720
  0.116000,248.069500
  0.118000,245.718660
  0.120000,243.341580
  0.122000,240.913720
  0.124000,238.401520
  0.126000,235.807290
  0.128000,233.104980
  0.130000,230.265510
  0.132000,227.270460
  0.134000,224.099900
  0.136000,220.734850
  0.138000,217.163280
  0.140000,213.389140
  0.142000,209.420690
  0.144000,205.283290
  0.146000,201.007030
  0.148000,196.631710
  0.150000,192.199880
  0.152000,187.754980
  0.154000,183.331240
  0.156000,178.962310
  0.158000,174.667220
  0.160000,170.454260
  0.162000,166.322380
  0.164000,162.270790
  0.166000,158.292910
  0.168000,154.406390
  0.170000,150.620250
  0.172000,146.930790
  0.174000,143.341360
  0.176000,139.834590
  0.178000,136.383580
  0.180000,132.980950
  0.182000,129.619600
  0.184000,126.287460
  0.186000,122.990490
  0.188000,119.727650
  0.190000,116.489900
  0.192000,113.276800
  0.194000,110.093900
  0.196000,106.940840
  0.198000,103.823200
  0.200000,100.741710
  0.202000, 97.698080
  0.204000, 94.693840
  0.206000, 91.736860
  0.208000, 88.820170
  0.210000, 85.953040
  0.212000, 83.143920
  0.214000, 80.383050
  0.216000, 77.671960
  0.218000, 75.008880
  0.220000, 72.402150
  0.222000, 69.843240
  0.224000, 67.328650
  0.226000, 64.848600
  0.228000, 62.404730
  0.230000, 59.984370
  0.232000, 57.586300
  0.234000, 55.231140
  0.236000, 52.934260
  0.238000, 50.715630
  0.240000, 48.597400
  0.242000, 46.576860
  0.244000, 44.645670
  0.246000, 42.756530
  0.248000, 40.879500
  0.250000, 38.986480
  0.252000, 37.079500
  0.254000, 35.178680
  0.256000, 33.316420
  0.258000, 31.523430
  0.260000, 29.813760
  0.262000, 28.187060
  0.264000, 26.621460
  0.266000, 25.094050
  0.268000, 23.598880
  0.270000, 22.132640
  0.272000, 20.697910
  0.274000, 19.303420
  0.276000, 17.954480
  0.278000, 16.662220
  0.280000, 15.419370
  0.282000, 14.228300
  0.284000, 13.072910
  0.286000, 11.954960
  0.288000, 10.864540
  0.290000,  9.811320
  0.292000,  8.793620
  0.294000,  7.819770
  0.296000,  6.894930
  0.298000,  6.009470
  0.300000,  5.158330
  0.302000,  4.341310
  0.304000,  3.556100
  0.306000,  2.793480
  0.308000,  2.061340
  0.310000,  1.370160
  0.312000,  0.720240
  0.314000,  0.105470
  0.316000, -0.461210
  0.318000, -0.998520
  0.320000, -1.493830
  0.322000, -1.955190
  0.324000, -2.383920
  0.326000, -2.788240
  0.328000, -3.169250
  0.330000, -3.533630
  0.332000, -3.892110
  0.334000, -4.243620
  0.336000, -4.588880
  0.338000, -4.922250
  0.340000, -5.220620
  0.342000, -5.497740
  0.344000, -5.733360
  0.346000, -5.918360
  0.348000, -6.082420
  0.350000, -6.221120
  0.352000, -6.341490
  0.354000, -6.457200
  0.356000, -6.577640
  0.358000, -6.714850
  0.360000, -6.865640
  0.362000, -7.025500
  0.364000, -7.187500
  0.366000, -7.348010
  0.368000, -7.484310
  0.370000, -7.588590
  0.372000, -7.648160
  0.374000, -7.675210
  0.376000, -7.683880
  0.378000, -7.667250
  0.380000, -7.651360
  0.382000, -7.646530
  0.384000, -7.653020
  0.386000, -7.675920
  0.388000, -7.715170
  0.390000, -7.752280
  0.392000, -7.781090
  0.394000, -7.794540
  0.396000, -7.794180
  0.398000, -7.757020
  0.400000, -7.696760
  0.402000, -7.614290
  0.404000, -7.511920
  0.406000, -7.396050
  0.408000, -7.283220
  0.410000, -7.179120
  0.412000, -7.083130
  0.414000, -7.002490
  0.416000, -6.925210
  0.418000, -6.852860
  0.420000, -6.789290
  0.422000, -6.729870
  0.424000, -6.666440
  0.426000, -6.598890
  0.428000, -6.527240
  0.430000, -6.447340
  0.432000, -6.367310
  0.434000, -6.267260
  0.436000, -6.159690
  0.438000, -6.038590
  0.440000, -5.909860
  0.442000, -5.773650
  0.444000, -5.637150
  0.446000, -5.497350
  0.448000, -5.372300
  0.450000, -5.247930
  0.452000, -5.137970
  0.454000, -5.033070
  0.456000, -4.935880
  0.458000, -4.838600
  0.460000, -4.735380
  0.462000, -4.617350
  0.464000, -4.492750
  0.466000, -4.365050
  0.468000, -4.235600
  0.470000, -4.112340
  0.472000, -4.004910
  0.474000, -3.910300
  0.476000, -3.837230
  0.478000, -3.775440
  0.480000, -3.722570
  0.482000, -3.667670
  0.484000, -3.599440
  0.486000, -3.528170
  0.488000, -3.437000
  0.490000, -3.349880
  0.492000, -3.252580
  0.494000, -3.161990
  0.496000, -3.075630
  0.498000, -3.004990
  0.500000, -2.942940
  0.502000, -2.884710
  0.504000, -2.826760
  0.506000, -2.773180
  0.508000, -2.712510
  0.510000, -2.641730
  0.512000, -2.568180
  0.514000, -2.482200
  0.516000, -2.395380
  0.518000, -2.306000
  0.520000, -2.220580
  0.522000, -2.135920
  0.524000, -2.056890
  0.526000, -1.977920
  0.528000, -1.899820
  0.530000, -1.835490
  0.532000, -1.771280
  0.534000, -1.710940
  0.536000, -1.651820
  0.538000, -1.600920
  0.540000, -1.546740
  0.542000, -1.498160
  0.544000, -1.452740
  0.546000, -1.412070
  0.548000, -1.368250
  0.550000, -1.347370
  0.552000, -1.327000
  0.554000, -1.313740
  0.556000, -1.306160
  0.558000, -1.298780
  0.560000, -1.292130
  0.562000, -1.281680
  0.564000, -1.278670
  0.566000, -1.277850
  0.568000, -1.276140
  0.570000, -1.270710
  0.572000, -1.265790
  0.574000, -1.258190
  0.576000, -1.255410
  0.578000, -1.243310
  0.580000, -1.223690
  0.582000, -1.194660
  0.584000, -1.156460
  0.586000, -1.115290
  0.588000, -1.080920
  0.590000, -1.055360
  0.592000, -1.040000
  0.594000, -1.040780
  0.596000, -1.063840
  0.598000, -1.088710
  0.600000, -1.119720
  0.602000, -1.137910
  0.604000, -1.132550
  0.606000, -1.122610
  0.608000, -1.090720
  0.610000, -1.050020
  0.612000, -1.004260
  0.614000, -0.971690
  0.616000, -0.950710
  0.618000, -0.936680
  0.620000, -0.931390
  0.622000, -0.921010
  0.624000, -0.912430
  0.626000, -0.900940
  0.628000, -0.888790
  0.630000, -0.875440
  0.632000, -0.854650
  0.634000, -0.845090
  0.636000, -0.842640
  0.638000, -0.841860
  0.640000, -0.848070
  0.642000, -0.857500
  0.644000, -0.867010
  0.646000, -0.880620
  0.648000, -0.897970
  0.650000, -0.919980
  0.652000, -0.957890
  0.654000, -1.004170
  0.656000, -1.058010
  0.658000, -1.115810
  0.660000, -1.179040
  0.662000, -1.249100
  0.664000, -1.316620
  0.666000, -1.384740
  0.668000, -1.449360
  0.670000, -1.500380
  0.672000, -1.546100
  0.674000, -1.581040
  0.676000, -1.621170
  0.678000, -1.666710
  0.680000, -1.706000
  0.682000, -1.755690
  0.684000, -1.802740
  0.686000, -1.851500
  0.688000, -1.897140
  0.690000, -1.925630
  0.692000, -1.937580
  0.694000, -1.938930
  0.696000, -1.929330
  0.698000, -1.907930
  0.700000, -1.878170
  0.702000, -1.833470
  0.704000, -1.790470
  0.706000, -1.744850
  0.708000, -1.698780
  0.710000, -1.649550
  0.712000, -1.602860
  0.714000, -1.561530
  0.716000, -1.514350
  0.718000, -1.474140
  0.720000, -1.427340
  0.722000, -1.379710
  0.724000, -1.335270
  0.726000, -1.284560
  0.728000, -1.235190
  0.730000, -1.173190
  0.732000, -1.118240
  0.734000, -1.064650
  0.736000, -1.016130
  0.738000, -0.977230
  0.740000, -0.943880
  0.742000, -0.919340
  0.744000, -0.909030
  0.746000, -0.903390
  0.748000, -0.890170
  0.750000, -0.871000
  0.752000, -0.852240
  0.754000, -0.819820
  0.756000, -0.778630
  0.758000, -0.738200
  0.760000, -0.697550
  0.762000, -0.664580
  0.764000, -0.635640
  0.766000, -0.615200
  0.768000, -0.612530
  0.770000, -0.614780
  0.772000, -0.627370
  0.774000, -0.636340
  0.776000, -0.642910
  0.778000, -0.642620
  0.780000, -0.625540
  0.782000, -0.604230
  0.784000, -0.578630
  0.786000, -0.537980
  0.788000, -0.505670
  0.790000, -0.472120
  0.792000, -0.440810
  0.794000, -0.413500
  0.796000, -0.391200
  0.798000, -0.370100
  0.800000, -0.343600
  0.802000, -0.313800
  0.804000, -0.277190
  0.806000, -0.234010
  0.808000, -0.189710
  0.810000, -0.140670
  0.812000, -0.094360
  0.814000, -0.050420
  0.816000, -0.016690
  0.818000,  0.009400
  0.820000,  0.019220
  0.822000,  0.017520
  0.824000,  0.005210
  0.826000, -0.006170
  0.828000, -0.016510
  0.830000, -0.017450
  0.832000, -0.006630
  0.834000,  0.020240
  0.836000,  0.053990
  0.838000,  0.093460
  0.840000,  0.138300
  0.842000,  0.190690
  0.844000,  0.239120
  0.846000,  0.285790
  0.848000,  0.320090
  0.850000,  0.348040
  0.852000,  0.360740
  0.854000,  0.357340
  0.856000,  0.352610
  0.858000,  0.331260
  0.860000,  0.295880
  0.862000,  0.264250
  0.864000,  0.235140
  0.866000,  0.214190
  0.868000,  0.205370
  0.870000,  0.206880
  0.872000,  0.219920
  0.874000,  0.241810
  0.876000,  0.269730
  0.878000,  0.297620
  0.880000,  0.327080
  0.882000,  0.344670
  0.884000,  0.358070
  0.886000,  0.361590
  0.888000,  0.351920
  0.890000,  0.342620
  0.892000,  0.330220
  0.894000,  0.323730
  0.896000,  0.310520
  0.898000,  0.305110
  0.900000,  0.307830
  0.902000,  0.308360
  0.904000,  0.303220
  0.906000,  0.305140
  0.908000,  0.302670
  0.910000,  0.295910
  0.912000,  0.293850
  0.914000,  0.284790
  0.916000,  0.271840
  0.918000,  0.267420
  0.920000,  0.261350
  0.922000,  0.257150
  0.924000,  0.244990
  0.926000,  0.235420
  0.928000,  0.228350
  0.930000,  0.213020
  0.932000,  0.198920
  0.934000,  0.178010
  0.936000,  0.152490
  0.938000,  0.123890
  0.940000,  0.094150
  0.942000,  0.072780
  0.944000,  0.055530
  0.946000,  0.042980
  0.948000,  0.041470
  0.950000,  0.034880
  0.952000,  0.029000
  0.954000,  0.026590
  0.956000,  0.019840
  0.958000,  0.004620
  0.960000, -0.009390
  0.962000, -0.035690
  0.964000, -0.072770
  0.966000, -0.118200
  0.968000, -0.164430
  0.970000, -0.210000
  0.972000, -0.254010
  0.974000, -0.294580
  0.976000, -0.331690
  0.978000, -0.364080
  0.980000, -0.376390
  0.982000, -0.383270
  0.984000, -0.374560
  0.986000, -0.358600
  0.988000, -0.335080
  0.990000, -0.307660
  0.992000, -0.275580
  0.994000, -0.247570
  0.996000, -0.224970
  0.998000, -0.206280
  1.000000, -0.203850
