# z (nm)   (kJ/mol)
  0.084000,268.663870
  0.086000,264.918400
  0.088000,261.986110
  0.090000,259.287840
  0.092000,256.261870
  0.094000,253.382330
  0.096000,250.433890
  0.098000,247.477790
  0.100000,244.485730
  0.102000,241.433920
  0.104000,238.294750
  0.106000,235.055670
  0.108000,231.715940
  0.110000,228.258720
  0.112000,224.674090
  0.114000,220.958900
  0.116000,217.111350
  0.118000,213.127200
  0.120000,209.008960
  0.122000,204.762580
  0.124000,200.393080
  0.126000,195.917790
  0.128000,191.354350
  0.130000,186.730290
  0.132000,182.077470
  0.134000,177.428150
  0.136000,172.826000
  0.138000,168.299130
  0.140000,163.873110
  0.142000,159.564200
  0.144000,155.359150
  0.146000,151.241790
  0.148000,147.200220
  0.150000,143.242290
  0.152000,139.382580
  0.154000,135.637830
  0.156000,132.004790
  0.158000,128.462300
  0.160000,124.993180
  0.162000,121.577360
  0.164000,118.208700
  0.166000,114.881880
  0.168000,111.590720
  0.170000,108.316910
  0.172000,105.051010
  0.174000,101.783810
  0.176000, 98.517520
  0.178000, 95.262280
  0.180000, 92.036130
  0.182000, 88.841420
  0.184000, 85.687230
  0.186000, 82.584490
  0.188000, 79.536350
  0.190000, 76.552140
  0.192000, 73.640780
  0.194000, 70.785840
  0.196000, 68.000500
  0.198000, 65.270470
  0.200000, 62.585730
  0.202000, 59.938000
  0.204000, 57.327670
  0.206000, 54.751300
  0.208000, 52.211320
  0.210000, 49.712840
  0.212000, 47.263170
  0.214000, 44.875480
  0.216000, 42.560200
  0.218000, 40.329890
  0.220000, 38.190220
  0.222000, 36.121970
  0.224000, 34.108120
  0.226000, 32.124580
  0.228000, 30.144770
  0.230000, 28.176260
  0.232000, 26.227220
  0.234000, 24.314360
  0.236000, 22.467110
  0.238000, 20.699290
  0.240000, 18.997480
  0.242000, 17.341160
  0.244000, 15.706480
  0.246000, 14.080670
  0.248000, 12.456160
  0.250000, 10.864500
  0.252000,  9.331480
  0.254000,  7.863900
  0.256000,  6.490930
  0.258000,  5.211590
  0.260000,  4.012210
  0.262000,  2.859500
  0.264000,  1.741930
  0.266000,  0.629290
  0.268000, -0.474520
  0.270000, -1.570480
  0.272000, -2.635680
  0.274000, -3.654850
  0.276000, -4.609240
  0.278000, -5.493540
  0.280000, -6.311090
  0.282000, -7.064520
  0.284000, -7.769590
  0.286000, -8.436040
  0.288000, -9.081290
  0.290000, -9.705620
  0.292000,-10.303020
  0.294000,-10.871400
  0.296000,-11.393350
  0.298000,-11.867800
  0.300000,-12.288920
  0.302000,-12.664840
  0.304000,-13.008940
  0.306000,-13.338160
  0.308000,-13.652730
  0.310000,-13.957250
  0.312000,-14.247430
  0.314000,-14.528150
  0.316000,-14.776520
  0.318000,-14.983870
  0.320000,-15.149200
  0.322000,-15.273000
  0.324000,-15.356220
  0.326000,-15.402340
  0.328000,-15.424030
  0.330000,-15.430650
  0.332000,-15.417940
  0.334000,-15.408940
  0.336000,-15.383910
  0.338000,-15.352000
  0.340000,-15.314470
  0.342000,-15.275900
  0.344000,-15.226850
  0.346000,-15.180220
  0.348000,-15.106050
  0.350000,-15.009850
  0.352000,-14.898370
  0.354000,-14.758880
  0.356000,-14.588230
  0.358000,-14.388740
  0.360000,-14.172600
  0.362000,-13.940130
  0.364000,-13.699190
  0.366000,-13.460360
  0.368000,-13.220710
  0.370000,-12.986450
  0.372000,-12.753100
  0.374000,-12.534630
  0.376000,-12.317070
  0.378000,-12.112180
  0.380000,-11.912340
  0.382000,-11.711220
  0.384000,-11.518710
  0.386000,-11.340490
  0.388000,-11.174180
  0.390000,-11.017500
  0.392000,-10.876100
  0.394000,-10.750640
  0.396000,-10.641070
  0.398000,-10.544120
  0.400000,-10.449130
  0.402000,-10.348100
  0.404000,-10.237150
  0.406000,-10.111380
  0.408000, -9.972300
  0.410000, -9.829750
  0.412000, -9.694330
  0.414000, -9.587510
  0.416000, -9.518330
  0.418000, -9.489210
  0.420000, -9.506490
  0.422000, -9.553130
  0.424000, -9.605040
  0.426000, -9.639450
  0.428000, -9.627240
  0.430000, -9.567060
  0.432000, -9.461180
  0.434000, -9.329120
  0.436000, -9.187490
  0.438000, -9.066850
  0.440000, -8.976210
  0.442000, -8.920800
  0.444000, -8.895590
  0.446000, -8.898900
  0.448000, -8.911160
  0.450000, -8.921730
  0.452000, -8.927570
  0.454000, -8.931500
  0.456000, -8.927520
  0.458000, -8.911470
  0.460000, -8.892880
  0.462000, -8.861800
  0.464000, -8.817700
  0.466000, -8.763160
  0.468000, -8.684150
  0.470000, -8.585010
  0.472000, -8.466310
  0.474000, -8.337300
  0.476000, -8.208120
  0.478000, -8.077220
  0.480000, -7.968500
  0.482000, -7.882710
  0.484000, -7.821790
  0.486000, -7.783750
  0.488000, -7.754800
  0.490000, -7.737850
  0.492000, -7.710680
  0.494000, -7.672450
  0.496000, -7.615120
  0.498000, -7.540290
  0.500000, -7.446450
  0.502000, -7.339120
  0.504000, -7.216610
  0.506000, -7.082950
  0.508000, -6.936580
  0.510000, -6.790120
  0.512000, -6.644210
  0.514000, -6.503170
  0.516000, -6.375500
  0.518000, -6.248840
  0.520000, -6.132160
  0.522000, -6.023470
  0.524000, -5.918250
  0.526000, -5.812760
  0.528000, -5.705960
  0.530000, -5.592990
  0.532000, -5.485200
  0.534000, -5.370400
  0.536000, -5.248060
  0.538000, -5.130160
  0.540000, -5.010140
  0.542000, -4.885170
  0.544000, -4.755380
  0.546000, -4.629760
  0.548000, -4.492560
  0.550000, -4.361060
  0.552000, -4.234300
  0.554000, -4.114050
  0.556000, -4.003030
  0.558000, -3.886000
  0.560000, -3.765320
  0.562000, -3.648590
  0.564000, -3.525620
  0.566000, -3.403790
  0.568000, -3.276270
  0.570000, -3.147070
  0.572000, -3.016850
  0.574000, -2.885550
  0.576000, -2.748750
  0.578000, -2.611290
  0.580000, -2.468270
  0.582000, -2.323460
  0.584000, -2.173800
  0.586000, -2.030410
  0.588000, -1.882540
  0.590000, -1.731920
  0.592000, -1.590840
  0.594000, -1.456490
  0.596000, -1.328200
  0.598000, -1.206350
  0.600000, -1.087070
  0.602000, -0.967470
  0.604000, -0.838490
  0.606000, -0.719170
  0.608000, -0.589460
  0.610000, -0.461880
  0.612000, -0.334100
  0.614000, -0.208130
  0.616000, -0.088140
  0.618000,  0.030550
  0.620000,  0.131980
  0.622000,  0.220890
  0.624000,  0.304530
  0.626000,  0.380560
  0.628000,  0.444250
  0.630000,  0.490890
  0.632000,  0.536800
  0.634000,  0.581600
  0.636000,  0.622690
  0.638000,  0.659590
  0.640000,  0.697060
  0.642000,  0.731590
  0.644000,  0.759280
  0.646000,  0.785880
  0.648000,  0.811250
  0.650000,  0.831200
  0.652000,  0.852230
  0.654000,  0.868760
  0.656000,  0.881290
  0.658000,  0.892820
  0.660000,  0.898360
  0.662000,  0.905710
  0.664000,  0.900020
  0.666000,  0.892030
  0.668000,  0.883360
  0.670000,  0.873790
  0.672000,  0.854610
  0.674000,  0.838930
  0.676000,  0.826740
  0.678000,  0.817910
  0.680000,  0.809230
  0.682000,  0.803870
  0.684000,  0.799860
  0.686000,  0.791250
  0.688000,  0.780770
  0.690000,  0.767320
  0.692000,  0.753720
  0.694000,  0.728170
  0.696000,  0.699750
  0.698000,  0.669460
  0.700000,  0.632570
  0.702000,  0.596830
  0.704000,  0.566160
  0.706000,  0.536490
  0.708000,  0.518920
  0.710000,  0.502710
  0.712000,  0.491590
  0.714000,  0.482090
  0.716000,  0.470650
  0.718000,  0.454700
  0.720000,  0.428530
  0.722000,  0.380540
  0.724000,  0.330810
  0.726000,  0.271980
  0.728000,  0.203720
  0.730000,  0.128330
  0.732000,  0.050730
  0.734000, -0.014940
  0.736000, -0.081840
  0.738000, -0.134290
  0.740000, -0.181870
  0.742000, -0.225600
  0.744000, -0.263640
  0.746000, -0.299380
  0.748000, -0.333150
  0.750000, -0.369870
  0.752000, -0.414410
  0.754000, -0.473820
  0.756000, -0.534630
  0.758000, -0.597180
  0.760000, -0.656030
  0.762000, -0.703130
  0.764000, -0.732430
  0.766000, -0.753870
  0.768000, -0.754730
  0.770000, -0.750750
  0.772000, -0.740520
  0.774000, -0.729250
  0.776000, -0.726620
  0.778000, -0.737240
  0.780000, -0.768140
  0.782000, -0.800370
  0.784000, -0.846450
  0.786000, -0.893820
  0.788000, -0.932760
  0.790000, -0.973260
  0.792000, -1.004890
  0.794000, -1.026750
  0.796000, -1.042200
  0.798000, -1.046700
  0.800000, -1.043850
  0.802000, -1.030660
  0.804000, -1.015180
  0.806000, -0.998650
  0.808000, -0.982300
  0.810000, -0.966160
  0.812000, -0.947040
  0.814000, -0.927460
  0.816000, -0.908320
  0.818000, -0.886450
  0.820000, -0.868020
  0.822000, -0.849460
  0.824000, -0.830400
  0.826000, -0.810380
  0.828000, -0.792670
  0.830000, -0.775790
  0.832000, -0.760310
  0.834000, -0.754490
  0.836000, -0.742490
  0.838000, -0.730570
  0.840000, -0.734270
  0.842000, -0.724470
  0.844000, -0.719400
  0.846000, -0.706020
  0.848000, -0.684490
  0.850000, -0.659070
  0.852000, -0.627320
  0.854000, -0.583190
  0.856000, -0.538980
  0.858000, -0.493810
  0.860000, -0.453690
  0.862000, -0.421360
  0.864000, -0.399800
  0.866000, -0.395350
  0.868000, -0.401890
  0.870000, -0.416820
  0.872000, -0.431180
  0.874000, -0.446880
  0.876000, -0.456400
  0.878000, -0.460560
  0.880000, -0.448430
  0.882000, -0.427820
  0.884000, -0.406230
  0.886000, -0.379910
  0.888000, -0.352450
  0.890000, -0.325010
  0.892000, -0.298570
  0.894000, -0.263070
  0.896000, -0.236150
  0.898000, -0.211780
  0.900000, -0.186600
  0.902000, -0.157190
  0.904000, -0.134050
  0.906000, -0.118210
  0.908000, -0.105050
  0.910000, -0.095150
  0.912000, -0.086500
  0.914000, -0.083310
  0.916000, -0.080330
  0.918000, -0.075520
  0.920000, -0.064450
  0.922000, -0.049660
  0.924000, -0.027810
  0.926000, -0.005210
  0.928000,  0.028550
  0.930000,  0.056900
  0.932000,  0.087040
  0.934000,  0.117380
  0.936000,  0.149410
  0.938000,  0.176750
  0.940000,  0.206160
  0.942000,  0.224060
  0.944000,  0.235990
  0.946000,  0.241800
  0.948000,  0.231060
  0.950000,  0.210670
  0.952000,  0.181760
  0.954000,  0.141790
  0.956000,  0.103950
  0.958000,  0.070090
  0.960000,  0.045100
  0.962000,  0.030760
  0.964000,  0.021930
  0.966000,  0.020110
  0.968000,  0.019770
  0.970000,  0.029230
  0.972000,  0.031180
  0.974000,  0.030090
  0.976000,  0.030470
  0.978000,  0.023870
  0.980000,  0.007980
  0.982000, -0.013020
  0.984000, -0.041920
  0.986000, -0.075380
  0.988000, -0.112090
  0.990000, -0.154030
  0.992000, -0.191040
  0.994000, -0.229650
  0.996000, -0.257550
  0.998000, -0.285990
  1.000000, -0.310720
