# z (nm)   (kJ/mol)
  0.082000,265.163450
  0.084000,262.741130
  0.086000,260.344440
  0.088000,257.517510
  0.090000,254.913090
  0.092000,252.385680
  0.094000,249.833400
  0.096000,247.219800
  0.098000,244.614130
  0.100000,241.961290
  0.102000,239.217730
  0.104000,236.389470
  0.106000,233.471340
  0.108000,230.434930
  0.110000,227.286370
  0.112000,224.009330
  0.114000,220.599960
  0.116000,217.049550
  0.118000,213.360300
  0.120000,209.532710
  0.122000,205.576110
  0.124000,201.495970
  0.126000,197.295920
  0.128000,192.984050
  0.130000,188.570940
  0.132000,184.070020
  0.134000,179.502960
  0.136000,174.887220
  0.138000,170.249510
  0.140000,165.604970
  0.142000,160.990720
  0.144000,156.424180
  0.146000,151.924350
  0.148000,147.506960
  0.150000,143.192350
  0.152000,139.001120
  0.154000,134.956940
  0.156000,131.069300
  0.158000,127.329380
  0.160000,123.688040
  0.162000,120.077200
  0.164000,116.441390
  0.166000,112.753690
  0.168000,109.034000
  0.170000,105.326780
  0.172000,101.693960
  0.174000, 98.189650
  0.176000, 94.830660
  0.178000, 91.606870
  0.180000, 88.467240
  0.182000, 85.353920
  0.184000, 82.206390
  0.186000, 78.982830
  0.188000, 75.685520
  0.190000, 72.352450
  0.192000, 69.061180
  0.194000, 65.876160
  0.196000, 62.854440
  0.198000, 60.020140
  0.200000, 57.359910
  0.202000, 54.822910
  0.204000, 52.344050
  0.206000, 49.869250
  0.208000, 47.342500
  0.210000, 44.764440
  0.212000, 42.140250
  0.214000, 39.503970
  0.216000, 36.909160
  0.218000, 34.408670
  0.220000, 32.021430
  0.222000, 29.757140
  0.224000, 27.596750
  0.226000, 25.502750
  0.228000, 23.455990
  0.230000, 21.422440
  0.232000, 19.396510
  0.234000, 17.374480
  0.236000, 15.373340
  0.238000, 13.418270
  0.240000, 11.529610
  0.242000,  9.715290
  0.244000,  7.982230
  0.246000,  6.323530
  0.248000,  4.739640
  0.250000,  3.225050
  0.252000,  1.757770
  0.254000,  0.350860
  0.256000, -1.014050
  0.258000, -2.338740
  0.260000, -3.636770
  0.262000, -4.902170
  0.264000, -6.137200
  0.266000, -7.346430
  0.268000, -8.506540
  0.270000, -9.611590
  0.272000,-10.653110
  0.274000,-11.612240
  0.276000,-12.495750
  0.278000,-13.300640
  0.280000,-14.031260
  0.282000,-14.713020
  0.284000,-15.362150
  0.286000,-15.993360
  0.288000,-16.628810
  0.290000,-17.266480
  0.292000,-17.906930
  0.294000,-18.529300
  0.296000,-19.115120
  0.298000,-19.629970
  0.300000,-20.041130
  0.302000,-20.340000
  0.304000,-20.533900
  0.306000,-20.655520
  0.308000,-20.750660
  0.310000,-20.869500
  0.312000,-21.017700
  0.314000,-21.222700
  0.316000,-21.448150
  0.318000,-21.663080
  0.320000,-21.819780
  0.322000,-21.884820
  0.324000,-21.842660
  0.326000,-21.708260
  0.328000,-21.504470
  0.330000,-21.301490
  0.332000,-21.107730
  0.334000,-20.956230
  0.336000,-20.860200
  0.338000,-20.794040
  0.340000,-20.722500
  0.342000,-20.616440
  0.344000,-20.454070
  0.346000,-20.228570
  0.348000,-19.959570
  0.350000,-19.657150
  0.352000,-19.336530
  0.354000,-19.014460
  0.356000,-18.707210
  0.358000,-18.389710
  0.360000,-18.069040
  0.362000,-17.741720
  0.364000,-17.402560
  0.366000,-17.050230
  0.368000,-16.692180
  0.370000,-16.332710
  0.372000,-15.986870
  0.374000,-15.646470
  0.376000,-15.305230
  0.378000,-14.962100
  0.380000,-14.629250
  0.382000,-14.303870
  0.384000,-13.979440
  0.386000,-13.676040
  0.388000,-13.379040
  0.390000,-13.088260
  0.392000,-12.796410
  0.394000,-12.507900
  0.396000,-12.219000
  0.398000,-11.947450
  0.400000,-11.723960
  0.402000,-11.564520
  0.404000,-11.467210
  0.406000,-11.413210
  0.408000,-11.397400
  0.410000,-11.386040
  0.412000,-11.361480
  0.414000,-11.311440
  0.416000,-11.237050
  0.418000,-11.151760
  0.420000,-11.063520
  0.422000,-10.991210
  0.424000,-10.946000
  0.426000,-10.928700
  0.428000,-10.931200
  0.430000,-10.964330
  0.432000,-11.008380
  0.434000,-11.069430
  0.436000,-11.127680
  0.438000,-11.168620
  0.440000,-11.195510
  0.442000,-11.200780
  0.444000,-11.190780
  0.446000,-11.178090
  0.448000,-11.172180
  0.450000,-11.172190
  0.452000,-11.163230
  0.454000,-11.153080
  0.456000,-11.129670
  0.458000,-11.097070
  0.460000,-11.053030
  0.462000,-11.009530
  0.464000,-10.963360
  0.466000,-10.922720
  0.468000,-10.884470
  0.470000,-10.848440
  0.472000,-10.810870
  0.474000,-10.777860
  0.476000,-10.731640
  0.478000,-10.675000
  0.480000,-10.597230
  0.482000,-10.495900
  0.484000,-10.388480
  0.486000,-10.269250
  0.488000,-10.141020
  0.490000,-10.018060
  0.492000, -9.895130
  0.494000, -9.793350
  0.496000, -9.699940
  0.498000, -9.618280
  0.500000, -9.546480
  0.502000, -9.472120
  0.504000, -9.397580
  0.506000, -9.307510
  0.508000, -9.205560
  0.510000, -9.101400
  0.512000, -8.993580
  0.514000, -8.882790
  0.516000, -8.769840
  0.518000, -8.667000
  0.520000, -8.570650
  0.522000, -8.466910
  0.524000, -8.363930
  0.526000, -8.251380
  0.528000, -8.138080
  0.530000, -8.029050
  0.532000, -7.910320
  0.534000, -7.791820
  0.536000, -7.675600
  0.538000, -7.558790
  0.540000, -7.439680
  0.542000, -7.327820
  0.544000, -7.226640
  0.546000, -7.126490
  0.548000, -7.036530
  0.550000, -6.958820
  0.552000, -6.885680
  0.554000, -6.820110
  0.556000, -6.753650
  0.558000, -6.688480
  0.560000, -6.613980
  0.562000, -6.532030
  0.564000, -6.426510
  0.566000, -6.302030
  0.568000, -6.158200
  0.570000, -6.011580
  0.572000, -5.859530
  0.574000, -5.730480
  0.576000, -5.627500
  0.578000, -5.555750
  0.580000, -5.504480
  0.582000, -5.480470
  0.584000, -5.452520
  0.586000, -5.404890
  0.588000, -5.324170
  0.590000, -5.200970
  0.592000, -5.052470
  0.594000, -4.874290
  0.596000, -4.687680
  0.598000, -4.509150
  0.600000, -4.350050
  0.602000, -4.209090
  0.604000, -4.103350
  0.606000, -4.018170
  0.608000, -3.955590
  0.610000, -3.895540
  0.612000, -3.831600
  0.614000, -3.750940
  0.616000, -3.636520
  0.618000, -3.489060
  0.620000, -3.300140
  0.622000, -3.084500
  0.624000, -2.867860
  0.626000, -2.660910
  0.628000, -2.482680
  0.630000, -2.334160
  0.632000, -2.221100
  0.634000, -2.127430
  0.636000, -2.042760
  0.638000, -1.956480
  0.640000, -1.857770
  0.642000, -1.756840
  0.644000, -1.640380
  0.646000, -1.514010
  0.648000, -1.365660
  0.650000, -1.211830
  0.652000, -1.052260
  0.654000, -0.898920
  0.656000, -0.747560
  0.658000, -0.617660
  0.660000, -0.499400
  0.662000, -0.390470
  0.664000, -0.285100
  0.666000, -0.186090
  0.668000, -0.088820
  0.670000,  0.009340
  0.672000,  0.105760
  0.674000,  0.202090
  0.676000,  0.305450
  0.678000,  0.399670
  0.680000,  0.494490
  0.682000,  0.578810
  0.684000,  0.654940
  0.686000,  0.731930
  0.688000,  0.799140
  0.690000,  0.875950
  0.692000,  0.940650
  0.694000,  1.012040
  0.696000,  1.084720
  0.698000,  1.151870
  0.700000,  1.211410
  0.702000,  1.256320
  0.704000,  1.271690
  0.706000,  1.270820
  0.708000,  1.249630
  0.710000,  1.211860
  0.712000,  1.168790
  0.714000,  1.129970
  0.716000,  1.098990
  0.718000,  1.073590
  0.720000,  1.057400
  0.722000,  1.043460
  0.724000,  1.032440
  0.726000,  1.016290
  0.728000,  0.986280
  0.730000,  0.948510
  0.732000,  0.893820
  0.734000,  0.839040
  0.736000,  0.787660
  0.738000,  0.725080
  0.740000,  0.675190
  0.742000,  0.629950
  0.744000,  0.597060
  0.746000,  0.572240
  0.748000,  0.545180
  0.750000,  0.515610
  0.752000,  0.488770
  0.754000,  0.460680
  0.756000,  0.430100
  0.758000,  0.397060
  0.760000,  0.376750
  0.762000,  0.359960
  0.764000,  0.350050
  0.766000,  0.341920
  0.768000,  0.332810
  0.770000,  0.327880
  0.772000,  0.325060
  0.774000,  0.317540
  0.776000,  0.306900
  0.778000,  0.295210
  0.780000,  0.285430
  0.782000,  0.267230
  0.784000,  0.244250
  0.786000,  0.217610
  0.788000,  0.186960
  0.790000,  0.153560
  0.792000,  0.115990
  0.794000,  0.088690
  0.796000,  0.063360
  0.798000,  0.046460
  0.800000,  0.034770
  0.802000,  0.021770
  0.804000,  0.019390
  0.806000,  0.025030
  0.808000,  0.022530
  0.810000,  0.024070
  0.812000,  0.029190
  0.814000,  0.022590
  0.816000,  0.007220
  0.818000, -0.018450
  0.820000, -0.043610
  0.822000, -0.079370
  0.824000, -0.104260
  0.826000, -0.118710
  0.828000, -0.121700
  0.830000, -0.113430
  0.832000, -0.090720
  0.834000, -0.063950
  0.836000, -0.044010
  0.838000, -0.031330
  0.840000, -0.035360
  0.842000, -0.052530
  0.844000, -0.079740
  0.846000, -0.116960
  0.848000, -0.155000
  0.850000, -0.189660
  0.852000, -0.213250
  0.854000, -0.224170
  0.856000, -0.211450
  0.858000, -0.191850
  0.860000, -0.162810
  0.862000, -0.131850
  0.864000, -0.105210
  0.866000, -0.095610
  0.868000, -0.098430
  0.870000, -0.113660
  0.872000, -0.144300
  0.874000, -0.188150
  0.876000, -0.233310
  0.878000, -0.270040
  0.880000, -0.294210
  0.882000, -0.309680
  0.884000, -0.311320
  0.886000, -0.300930
  0.888000, -0.292030
  0.890000, -0.276640
  0.892000, -0.261310
  0.894000, -0.245830
  0.896000, -0.233360
  0.898000, -0.215150
  0.900000, -0.207460
  0.902000, -0.204390
  0.904000, -0.203230
  0.906000, -0.217910
  0.908000, -0.244600
  0.910000, -0.268860
  0.912000, -0.295900
  0.914000, -0.315180
  0.916000, -0.321520
  0.918000, -0.309080
  0.920000, -0.280310
  0.922000, -0.239480
  0.924000, -0.187080
  0.926000, -0.132860
  0.928000, -0.071610
  0.930000, -0.019900
  0.932000,  0.020030
  0.934000,  0.049540
  0.936000,  0.063420
  0.938000,  0.057840
  0.940000,  0.039440
  0.942000,  0.012350
  0.944000, -0.005270
  0.946000, -0.015480
  0.948000, -0.013720
  0.950000, -0.004430
  0.952000,  0.015930
  0.954000,  0.046040
  0.956000,  0.075950
  0.958000,  0.103330
  0.960000,  0.123980
  0.962000,  0.130570
  0.964000,  0.132530
  0.966000,  0.127910
  0.968000,  0.124680
  0.970000,  0.124480
  0.972000,  0.130620
  0.974000,  0.137400
  0.976000,  0.146560
  0.978000,  0.157730
  0.980000,  0.171740
  0.982000,  0.182620
  0.984000,  0.177040
  0.986000,  0.170510
  0.988000,  0.158280
  0.990000,  0.146030
  0.992000,  0.129200
  0.994000,  0.112840
  0.996000,  0.102260
  0.998000,  0.091360
  1.000000,  0.088630
