# z (nm)   (kJ/mol)
  0.076000,265.248570
  0.078000,262.785480
  0.080000,260.093470
  0.082000,257.640850
  0.084000,255.086610
  0.086000,252.524610
  0.088000,249.966400
  0.090000,247.337190
  0.092000,244.707770
  0.094000,242.003610
  0.096000,239.235420
  0.098000,236.384560
  0.100000,233.432610
  0.102000,230.374730
  0.104000,227.192440
  0.106000,223.874000
  0.108000,220.413840
  0.110000,216.810950
  0.112000,213.057130
  0.114000,209.152850
  0.116000,205.101770
  0.118000,200.901290
  0.120000,196.569290
  0.122000,192.123380
  0.124000,187.579870
  0.126000,182.969940
  0.128000,178.322620
  0.130000,173.681650
  0.132000,169.072750
  0.134000,164.526080
  0.136000,160.059130
  0.138000,155.684120
  0.140000,151.396360
  0.142000,147.191370
  0.144000,143.067030
  0.146000,139.015080
  0.148000,135.042790
  0.150000,131.156590
  0.152000,127.373950
  0.154000,123.728890
  0.156000,120.237550
  0.158000,116.910410
  0.160000,113.722870
  0.162000,110.627030
  0.164000,107.554840
  0.166000,104.431360
  0.168000,101.217190
  0.170000, 97.901470
  0.172000, 94.507210
  0.174000, 91.070890
  0.176000, 87.647360
  0.178000, 84.275280
  0.180000, 80.987060
  0.182000, 77.798300
  0.184000, 74.718590
  0.186000, 71.740870
  0.188000, 68.858300
  0.190000, 66.055920
  0.192000, 63.316930
  0.194000, 60.637920
  0.196000, 57.987220
  0.198000, 55.366980
  0.200000, 52.762000
  0.202000, 50.175870
  0.204000, 47.602740
  0.206000, 45.053000
  0.208000, 42.534550
  0.210000, 40.071510
  0.212000, 37.680040
  0.214000, 35.373790
  0.216000, 33.148820
  0.218000, 31.010260
  0.220000, 28.924710
  0.222000, 26.888620
  0.224000, 24.888990
  0.226000, 22.924160
  0.228000, 20.999540
  0.230000, 19.117140
  0.232000, 17.275760
  0.234000, 15.465640
  0.236000, 13.687870
  0.238000, 11.940010
  0.240000, 10.220820
  0.242000,  8.534310
  0.244000,  6.900370
  0.246000,  5.351940
  0.248000,  3.904610
  0.250000,  2.567360
  0.252000,  1.313080
  0.254000,  0.104140
  0.256000, -1.085220
  0.258000, -2.290390
  0.260000, -3.505250
  0.262000, -4.718440
  0.264000, -5.907380
  0.266000, -7.034300
  0.268000, -8.080450
  0.270000, -9.022130
  0.272000, -9.889710
  0.274000,-10.698880
  0.276000,-11.468760
  0.278000,-12.221530
  0.280000,-12.959950
  0.282000,-13.678040
  0.284000,-14.373820
  0.286000,-15.039690
  0.288000,-15.673200
  0.290000,-16.265170
  0.292000,-16.825110
  0.294000,-17.347610
  0.296000,-17.843360
  0.298000,-18.285760
  0.300000,-18.687320
  0.302000,-19.032510
  0.304000,-19.328430
  0.306000,-19.580980
  0.308000,-19.799790
  0.310000,-20.000200
  0.312000,-20.210170
  0.314000,-20.437310
  0.316000,-20.684970
  0.318000,-20.946990
  0.320000,-21.202190
  0.322000,-21.423420
  0.324000,-21.579130
  0.326000,-21.661340
  0.328000,-21.669190
  0.330000,-21.626540
  0.332000,-21.577240
  0.334000,-21.543890
  0.336000,-21.556940
  0.338000,-21.593990
  0.340000,-21.629570
  0.342000,-21.616190
  0.344000,-21.495220
  0.346000,-21.256210
  0.348000,-20.920340
  0.350000,-20.611930
  0.352000,-20.573980
  0.354000,-21.013470
  0.356000,-21.600760
  0.358000,-21.587050
  0.360000,-20.766190
  0.362000,-19.791070
  0.364000,-19.197320
  0.366000,-18.947760
  0.368000,-18.835950
  0.370000,-18.711340
  0.372000,-18.551250
  0.374000,-18.348460
  0.376000,-18.107070
  0.378000,-17.830820
  0.380000,-17.524470
  0.382000,-17.191030
  0.384000,-16.840800
  0.386000,-16.488520
  0.388000,-16.144750
  0.390000,-15.810330
  0.392000,-15.508190
  0.394000,-15.212860
  0.396000,-14.947970
  0.398000,-14.688950
  0.400000,-14.442730
  0.402000,-14.203220
  0.404000,-13.967890
  0.406000,-13.733820
  0.408000,-13.518220
  0.410000,-13.307390
  0.412000,-13.109160
  0.414000,-12.919530
  0.416000,-12.738820
  0.418000,-12.570820
  0.420000,-12.412200
  0.422000,-12.262690
  0.424000,-12.119010
  0.426000,-11.982450
  0.428000,-11.854620
  0.430000,-11.738660
  0.432000,-11.634760
  0.434000,-11.543760
  0.436000,-11.462250
  0.438000,-11.386470
  0.440000,-11.308330
  0.442000,-11.237300
  0.444000,-11.159460
  0.446000,-11.076040
  0.448000,-10.991670
  0.450000,-10.896010
  0.452000,-10.795990
  0.454000,-10.689620
  0.456000,-10.581880
  0.458000,-10.478710
  0.460000,-10.380270
  0.462000,-10.289270
  0.464000,-10.207300
  0.466000,-10.133990
  0.468000,-10.063870
  0.470000,-10.002430
  0.472000, -9.933220
  0.474000, -9.859990
  0.476000, -9.781180
  0.478000, -9.697510
  0.480000, -9.604170
  0.482000, -9.507060
  0.484000, -9.406860
  0.486000, -9.300340
  0.488000, -9.192660
  0.490000, -9.082310
  0.492000, -8.978630
  0.494000, -8.872920
  0.496000, -8.770990
  0.498000, -8.663990
  0.500000, -8.549630
  0.502000, -8.431020
  0.504000, -8.302800
  0.506000, -8.167160
  0.508000, -8.027190
  0.510000, -7.878820
  0.512000, -7.736130
  0.514000, -7.595370
  0.516000, -7.458910
  0.518000, -7.328950
  0.520000, -7.200310
  0.522000, -7.082140
  0.524000, -6.961110
  0.526000, -6.847390
  0.528000, -6.728680
  0.530000, -6.602800
  0.532000, -6.471470
  0.534000, -6.333630
  0.536000, -6.197990
  0.538000, -6.059560
  0.540000, -5.921560
  0.542000, -5.789720
  0.544000, -5.656500
  0.546000, -5.527190
  0.548000, -5.410040
  0.550000, -5.285080
  0.552000, -5.175380
  0.554000, -5.070560
  0.556000, -4.964700
  0.558000, -4.860750
  0.560000, -4.759560
  0.562000, -4.657910
  0.564000, -4.557850
  0.566000, -4.448400
  0.568000, -4.353080
  0.570000, -4.258360
  0.572000, -4.169400
  0.574000, -4.096070
  0.576000, -4.025100
  0.578000, -3.949620
  0.580000, -3.869260
  0.582000, -3.786560
  0.584000, -3.717440
  0.586000, -3.647980
  0.588000, -3.582370
  0.590000, -3.531450
  0.592000, -3.485400
  0.594000, -3.450920
  0.596000, -3.427790
  0.598000, -3.409770
  0.600000, -3.392600
  0.602000, -3.365580
  0.604000, -3.322130
  0.606000, -3.263320
  0.608000, -3.185240
  0.610000, -3.092860
  0.612000, -2.976800
  0.614000, -2.861580
  0.616000, -2.736870
  0.618000, -2.623920
  0.620000, -2.517280
  0.622000, -2.426230
  0.624000, -2.351240
  0.626000, -2.296150
  0.628000, -2.243860
  0.630000, -2.181080
  0.632000, -2.110400
  0.634000, -2.028970
  0.636000, -1.927850
  0.638000, -1.814620
  0.640000, -1.694730
  0.642000, -1.576200
  0.644000, -1.466250
  0.646000, -1.365460
  0.648000, -1.278340
  0.650000, -1.194960
  0.652000, -1.119870
  0.654000, -1.053420
  0.656000, -0.984870
  0.658000, -0.910920
  0.660000, -0.838480
  0.662000, -0.763440
  0.664000, -0.690330
  0.666000, -0.621510
  0.668000, -0.563150
  0.670000, -0.510000
  0.672000, -0.463120
  0.674000, -0.416970
  0.676000, -0.365740
  0.678000, -0.301090
  0.680000, -0.223460
  0.682000, -0.139470
  0.684000, -0.055700
  0.686000,  0.007080
  0.688000,  0.043140
  0.690000,  0.051510
  0.692000,  0.027620
  0.694000, -0.019930
  0.696000, -0.084460
  0.698000, -0.140960
  0.700000, -0.193590
  0.702000, -0.214410
  0.704000, -0.212340
  0.706000, -0.181850
  0.708000, -0.137830
  0.710000, -0.082600
  0.712000, -0.027220
  0.714000,  0.010480
  0.716000,  0.032710
  0.718000,  0.011020
  0.720000, -0.033470
  0.722000, -0.104200
  0.724000, -0.196490
  0.726000, -0.299130
  0.728000, -0.398060
  0.730000, -0.472440
  0.732000, -0.522880
  0.734000, -0.542970
  0.736000, -0.535100
  0.738000, -0.506790
  0.740000, -0.471680
  0.742000, -0.440830
  0.744000, -0.420070
  0.746000, -0.425330
  0.748000, -0.449090
  0.750000, -0.490120
  0.752000, -0.533150
  0.754000, -0.584780
  0.756000, -0.635700
  0.758000, -0.680770
  0.760000, -0.720920
  0.762000, -0.754830
  0.764000, -0.775750
  0.766000, -0.784590
  0.768000, -0.784360
  0.770000, -0.776580
  0.772000, -0.760730
  0.774000, -0.735180
  0.776000, -0.703140
  0.778000, -0.670640
  0.780000, -0.636480
  0.782000, -0.600740
  0.784000, -0.572190
  0.786000, -0.547920
  0.788000, -0.529260
  0.790000, -0.522780
  0.792000, -0.525810
  0.794000, -0.542440
  0.796000, -0.566950
  0.798000, -0.600460
  0.800000, -0.641080
  0.802000, -0.680660
  0.804000, -0.718420
  0.806000, -0.744800
  0.808000, -0.751950
  0.810000, -0.742480
  0.812000, -0.718420
  0.814000, -0.681030
  0.816000, -0.633560
  0.818000, -0.579500
  0.820000, -0.531540
  0.822000, -0.484380
  0.824000, -0.441000
  0.826000, -0.404140
  0.828000, -0.377050
  0.830000, -0.363800
  0.832000, -0.352580
  0.834000, -0.362530
  0.836000, -0.374420
  0.838000, -0.383580
  0.840000, -0.388020
  0.842000, -0.399480
  0.844000, -0.398510
  0.846000, -0.391970
  0.848000, -0.375050
  0.850000, -0.347630
  0.852000, -0.313990
  0.854000, -0.272520
  0.856000, -0.223680
  0.858000, -0.167420
  0.860000, -0.120680
  0.862000, -0.078530
  0.864000, -0.048640
  0.866000, -0.031690
  0.868000, -0.032860
  0.870000, -0.043840
  0.872000, -0.070670
  0.874000, -0.100520
  0.876000, -0.126950
  0.878000, -0.149000
  0.880000, -0.162870
  0.882000, -0.158440
  0.884000, -0.146240
  0.886000, -0.118600
  0.888000, -0.089540
  0.890000, -0.050360
  0.892000, -0.004050
  0.894000,  0.037780
  0.896000,  0.078920
  0.898000,  0.112510
  0.900000,  0.136340
  0.902000,  0.146190
  0.904000,  0.140060
  0.906000,  0.124400
  0.908000,  0.103350
  0.910000,  0.067780
  0.912000,  0.035230
  0.914000,  0.000180
  0.916000, -0.024640
  0.918000, -0.039490
  0.920000, -0.042240
  0.922000, -0.035630
  0.924000, -0.024330
  0.926000, -0.003920
  0.928000,  0.014760
  0.930000,  0.030930
  0.932000,  0.041800
  0.934000,  0.042380
  0.936000,  0.036980
  0.938000,  0.032100
  0.940000,  0.025990
  0.942000,  0.019080
  0.944000,  0.009910
  0.946000,  0.000320
  0.948000, -0.001900
  0.950000, -0.001010
  0.952000,  0.002790
  0.954000,  0.010920
  0.956000,  0.014210
  0.958000,  0.019730
  0.960000,  0.021280
  0.962000,  0.022120
  0.964000,  0.027240
  0.966000,  0.027390
  0.968000,  0.025510
  0.970000,  0.022650
  0.972000,  0.011390
  0.974000,  0.002640
  0.976000, -0.005580
  0.978000, -0.027700
  0.980000, -0.049440
  0.982000, -0.066570
  0.984000, -0.089030
  0.986000, -0.095810
  0.988000, -0.100430
  0.990000, -0.091230
  0.992000, -0.088010
  0.994000, -0.080700
  0.996000, -0.074580
  0.998000, -0.068410
  1.000000, -0.068600
