# z (nm)   (kJ/mol)
  0.096000,280.236370
  0.098000,276.687610
  0.100000,273.926450
  0.102000,270.888910
  0.104000,267.573360
  0.106000,264.422910
  0.108000,261.331120
  0.110000,258.225460
  0.112000,254.964740
  0.114000,251.714340
  0.116000,248.349720
  0.118000,244.879780
  0.120000,241.297280
  0.122000,237.599560
  0.124000,233.795050
  0.126000,229.883230
  0.128000,225.879840
  0.130000,221.801010
  0.132000,217.663430
  0.134000,213.486210
  0.136000,209.284600
  0.138000,205.073140
  0.140000,200.861370
  0.142000,196.661340
  0.144000,192.480670
  0.146000,188.333590
  0.148000,184.219180
  0.150000,180.136710
  0.152000,176.089190
  0.154000,172.069820
  0.156000,168.078220
  0.158000,164.117580
  0.160000,160.191540
  0.162000,156.313160
  0.164000,152.493620
  0.166000,148.749490
  0.168000,145.095210
  0.170000,141.541430
  0.172000,138.091250
  0.174000,134.734950
  0.176000,131.454300
  0.178000,128.234980
  0.180000,125.054210
  0.182000,121.893210
  0.184000,118.735600
  0.186000,115.575390
  0.188000,112.410390
  0.190000,109.247580
  0.192000,106.106290
  0.194000,103.000500
  0.196000, 99.943440
  0.198000, 96.961670
  0.200000, 94.059140
  0.202000, 91.232240
  0.204000, 88.474620
  0.206000, 85.775680
  0.208000, 83.117650
  0.210000, 80.498090
  0.212000, 77.905270
  0.214000, 75.333560
  0.216000, 72.782420
  0.218000, 70.259530
  0.220000, 67.767660
  0.222000, 65.306530
  0.224000, 62.885540
  0.226000, 60.501820
  0.228000, 58.169920
  0.230000, 55.892480
  0.232000, 53.666030
  0.234000, 51.497750
  0.236000, 49.388750
  0.238000, 47.328370
  0.240000, 45.323920
  0.242000, 43.362200
  0.244000, 41.438500
  0.246000, 39.552010
  0.248000, 37.693910
  0.250000, 35.868540
  0.252000, 34.072570
  0.254000, 32.310520
  0.256000, 30.595940
  0.258000, 28.927940
  0.260000, 27.310410
  0.262000, 25.756170
  0.264000, 24.261880
  0.266000, 22.818940
  0.268000, 21.439630
  0.270000, 20.113050
  0.272000, 18.826830
  0.274000, 17.573320
  0.276000, 16.342500
  0.278000, 15.140500
  0.280000, 13.958660
  0.282000, 12.798880
  0.284000, 11.672490
  0.286000, 10.590090
  0.288000,  9.550050
  0.290000,  8.561540
  0.292000,  7.623170
  0.294000,  6.727790
  0.296000,  5.869980
  0.298000,  5.054940
  0.300000,  4.261650
  0.302000,  3.490670
  0.304000,  2.747290
  0.306000,  2.024240
  0.308000,  1.331650
  0.310000,  0.666480
  0.312000,  0.036650
  0.314000, -0.557210
  0.316000, -1.114630
  0.318000, -1.628430
  0.320000, -2.108650
  0.322000, -2.556940
  0.324000, -2.979830
  0.326000, -3.379070
  0.328000, -3.752640
  0.330000, -4.109190
  0.332000, -4.446770
  0.334000, -4.759280
  0.336000, -5.060180
  0.338000, -5.343260
  0.340000, -5.610290
  0.342000, -5.859080
  0.344000, -6.093760
  0.346000, -6.315360
  0.348000, -6.520910
  0.350000, -6.714150
  0.352000, -6.892670
  0.354000, -7.047830
  0.356000, -7.182320
  0.358000, -7.298990
  0.360000, -7.393730
  0.362000, -7.480150
  0.364000, -7.547220
  0.366000, -7.612360
  0.368000, -7.665360
  0.370000, -7.713850
  0.372000, -7.755310
  0.374000, -7.795400
  0.376000, -7.830180
  0.378000, -7.854330
  0.380000, -7.868690
  0.382000, -7.873110
  0.384000, -7.864590
  0.386000, -7.841700
  0.388000, -7.800180
  0.390000, -7.751480
  0.392000, -7.698010
  0.394000, -7.628400
  0.396000, -7.557420
  0.398000, -7.479620
  0.400000, -7.407280
  0.402000, -7.321310
  0.404000, -7.231930
  0.406000, -7.144170
  0.408000, -7.059820
  0.410000, -6.968260
  0.412000, -6.873350
  0.414000, -6.777890
  0.416000, -6.690330
  0.418000, -6.592210
  0.420000, -6.495050
  0.422000, -6.394600
  0.424000, -6.282740
  0.426000, -6.176000
  0.428000, -6.065030
  0.430000, -5.955350
  0.432000, -5.841630
  0.434000, -5.730020
  0.436000, -5.612280
  0.438000, -5.507880
  0.440000, -5.393450
  0.442000, -5.280650
  0.444000, -5.162470
  0.446000, -5.040560
  0.448000, -4.918470
  0.450000, -4.793260
  0.452000, -4.672550
  0.454000, -4.545980
  0.456000, -4.417690
  0.458000, -4.287180
  0.460000, -4.152790
  0.462000, -4.019950
  0.464000, -3.886380
  0.466000, -3.751700
  0.468000, -3.620970
  0.470000, -3.487600
  0.472000, -3.343120
  0.474000, -3.205700
  0.476000, -3.067540
  0.478000, -2.924990
  0.480000, -2.783180
  0.482000, -2.636250
  0.484000, -2.481700
  0.486000, -2.321020
  0.488000, -2.157900
  0.490000, -1.991160
  0.492000, -1.816910
  0.494000, -1.640180
  0.496000, -1.463880
  0.498000, -1.286890
  0.500000, -1.103360
  0.502000, -0.917370
  0.504000, -0.733110
  0.506000, -0.546670
  0.508000, -0.364650
  0.510000, -0.181610
  0.512000,  0.000280
  0.514000,  0.180700
  0.516000,  0.357200
  0.518000,  0.533610
  0.520000,  0.705850
  0.522000,  0.872620
  0.524000,  1.040080
  0.526000,  1.201080
  0.528000,  1.358760
  0.530000,  1.508620
  0.532000,  1.657360
  0.534000,  1.798760
  0.536000,  1.935410
  0.538000,  2.066480
  0.540000,  2.197930
  0.542000,  2.331620
  0.544000,  2.457380
  0.546000,  2.585450
  0.548000,  2.705140
  0.550000,  2.824000
  0.552000,  2.945390
  0.554000,  3.059480
  0.556000,  3.166430
  0.558000,  3.278220
  0.560000,  3.377520
  0.562000,  3.473120
  0.564000,  3.567090
  0.566000,  3.643310
  0.568000,  3.719980
  0.570000,  3.792050
  0.572000,  3.851840
  0.574000,  3.906550
  0.576000,  3.961960
  0.578000,  4.007440
  0.580000,  4.046710
  0.582000,  4.085810
  0.584000,  4.121850
  0.586000,  4.157670
  0.588000,  4.183210
  0.590000,  4.206650
  0.592000,  4.227080
  0.594000,  4.246180
  0.596000,  4.255320
  0.598000,  4.251610
  0.600000,  4.248900
  0.602000,  4.228910
  0.604000,  4.205390
  0.606000,  4.164300
  0.608000,  4.114850
  0.610000,  4.055480
  0.612000,  3.986200
  0.614000,  3.907410
  0.616000,  3.820470
  0.618000,  3.733910
  0.620000,  3.639340
  0.622000,  3.545310
  0.624000,  3.454010
  0.626000,  3.371760
  0.628000,  3.293400
  0.630000,  3.212160
  0.632000,  3.139950
  0.634000,  3.067000
  0.636000,  2.995010
  0.638000,  2.912770
  0.640000,  2.817700
  0.642000,  2.716570
  0.644000,  2.595120
  0.646000,  2.463760
  0.648000,  2.322850
  0.650000,  2.173580
  0.652000,  2.022490
  0.654000,  1.874730
  0.656000,  1.737300
  0.658000,  1.603650
  0.660000,  1.483250
  0.662000,  1.372310
  0.664000,  1.278140
  0.666000,  1.194740
  0.668000,  1.125410
  0.670000,  1.068880
  0.672000,  1.029690
  0.674000,  1.002550
  0.676000,  0.979440
  0.678000,  0.955590
  0.680000,  0.923130
  0.682000,  0.886700
  0.684000,  0.837260
  0.686000,  0.777600
  0.688000,  0.705840
  0.690000,  0.616330
  0.692000,  0.526560
  0.694000,  0.426190
  0.696000,  0.331870
  0.698000,  0.241380
  0.700000,  0.158230
  0.702000,  0.087700
  0.704000,  0.035220
  0.706000, -0.002790
  0.708000, -0.027650
  0.710000, -0.045690
  0.712000, -0.054180
  0.714000, -0.054900
  0.716000, -0.054850
  0.718000, -0.066710
  0.720000, -0.073750
  0.722000, -0.090500
  0.724000, -0.110770
  0.726000, -0.127610
  0.728000, -0.155510
  0.730000, -0.178450
  0.732000, -0.197420
  0.734000, -0.218010
  0.736000, -0.230290
  0.738000, -0.242040
  0.740000, -0.239800
  0.742000, -0.233680
  0.744000, -0.224090
  0.746000, -0.209150
  0.748000, -0.200630
  0.750000, -0.188240
  0.752000, -0.180990
  0.754000, -0.177990
  0.756000, -0.168210
  0.758000, -0.174540
  0.760000, -0.179740
  0.762000, -0.185520
  0.764000, -0.187680
  0.766000, -0.188380
  0.768000, -0.186540
  0.770000, -0.177090
  0.772000, -0.164770
  0.774000, -0.143800
  0.776000, -0.123870
  0.778000, -0.100790
  0.780000, -0.081180
  0.782000, -0.054670
  0.784000, -0.031680
  0.786000, -0.005970
  0.788000,  0.021260
  0.790000,  0.046180
  0.792000,  0.069550
  0.794000,  0.096610
  0.796000,  0.125780
  0.798000,  0.152690
  0.800000,  0.178770
  0.802000,  0.209550
  0.804000,  0.233950
  0.806000,  0.257810
  0.808000,  0.280130
  0.810000,  0.295800
  0.812000,  0.311860
  0.814000,  0.330290
  0.816000,  0.345870
  0.818000,  0.361960
  0.820000,  0.372210
  0.822000,  0.382570
  0.824000,  0.402090
  0.826000,  0.414780
  0.828000,  0.426260
  0.830000,  0.446510
  0.832000,  0.464720
  0.834000,  0.484580
  0.836000,  0.506190
  0.838000,  0.526410
  0.840000,  0.547650
  0.842000,  0.570540
  0.844000,  0.593200
  0.846000,  0.609330
  0.848000,  0.630250
  0.850000,  0.639930
  0.852000,  0.649150
  0.854000,  0.657170
  0.856000,  0.665610
  0.858000,  0.676320
  0.860000,  0.687800
  0.862000,  0.694250
  0.864000,  0.696210
  0.866000,  0.704220
  0.868000,  0.713740
  0.870000,  0.727730
  0.872000,  0.739370
  0.874000,  0.744800
  0.876000,  0.750570
  0.878000,  0.751770
  0.880000,  0.752270
  0.882000,  0.745930
  0.884000,  0.734470
  0.886000,  0.715850
  0.888000,  0.698790
  0.890000,  0.678740
  0.892000,  0.661570
  0.894000,  0.638560
  0.896000,  0.613840
  0.898000,  0.591560
  0.900000,  0.566500
  0.902000,  0.546910
  0.904000,  0.525380
  0.906000,  0.507220
  0.908000,  0.492570
  0.910000,  0.474800
  0.912000,  0.448490
  0.914000,  0.428450
  0.916000,  0.408360
  0.918000,  0.391700
  0.920000,  0.371560
  0.922000,  0.355520
  0.924000,  0.338280
  0.926000,  0.316700
  0.928000,  0.290530
  0.930000,  0.268980
  0.932000,  0.243720
  0.934000,  0.218520
  0.936000,  0.188670
  0.938000,  0.157270
  0.940000,  0.120630
  0.942000,  0.085510
  0.944000,  0.054060
  0.946000,  0.021330
  0.948000, -0.008180
  0.950000, -0.034500
  0.952000, -0.064830
  0.954000, -0.087470
  0.956000, -0.114850
  0.958000, -0.134370
  0.960000, -0.155290
  0.962000, -0.177050
  0.964000, -0.194130
  0.966000, -0.212490
  0.968000, -0.229540
  0.970000, -0.250180
  0.972000, -0.268320
  0.974000, -0.282780
  0.976000, -0.303850
  0.978000, -0.316530
  0.980000, -0.332470
  0.982000, -0.346770
  0.984000, -0.358320
  0.986000, -0.370750
  0.988000, -0.386070
  0.990000, -0.401110
  0.992000, -0.416850
  0.994000, -0.429180
  0.996000, -0.446210
  0.998000, -0.461100
  1.000000, -0.471970
