# z (nm)   (kJ/mol)
  0.223000, 10.716800
  0.225000, 10.282200
  0.227000,  9.832600
  0.229000,  9.393600
  0.231000,  8.941200
  0.233000,  8.487800
  0.235000,  8.037500
  0.237000,  7.570000
  0.239000,  7.113100
  0.241000,  6.662300
  0.243000,  6.201000
  0.245000,  5.750100
  0.247000,  5.294700
  0.249000,  4.831300
  0.251000,  4.371700
  0.253000,  3.918800
  0.255000,  3.474900
  0.257000,  3.028900
  0.259000,  2.591200
  0.261000,  2.163500
  0.263000,  1.734900
  0.265000,  1.315000
  0.267000,  0.903800
  0.269000,  0.499900
  0.271000,  0.105400
  0.273000, -0.282900
  0.275000, -0.662200
  0.277000, -1.032100
  0.279000, -1.391700
  0.281000, -1.740400
  0.283000, -2.080500
  0.285000, -2.414800
  0.287000, -2.742200
  0.289000, -3.056200
  0.291000, -3.357900
  0.293000, -3.652600
  0.295000, -3.935000
  0.297000, -4.207400
  0.299000, -4.470600
  0.301000, -4.720400
  0.303000, -4.957500
  0.305000, -5.183100
  0.307000, -5.398300
  0.309000, -5.602500
  0.311000, -5.796200
  0.313000, -5.979100
  0.315000, -6.150000
  0.317000, -6.309500
  0.319000, -6.458900
  0.321000, -6.597700
  0.323000, -6.724800
  0.325000, -6.841500
  0.327000, -6.948500
  0.329000, -7.044900
  0.331000, -7.131300
  0.333000, -7.207800
  0.335000, -7.274600
  0.337000, -7.332000
  0.339000, -7.380000
  0.341000, -7.418600
  0.343000, -7.449300
  0.345000, -7.473400
  0.347000, -7.490100
  0.349000, -7.498800
  0.351000, -7.499500
  0.353000, -7.493600
  0.355000, -7.481200
  0.357000, -7.462800
  0.359000, -7.437500
  0.361000, -7.405000
  0.363000, -7.368100
  0.365000, -7.327500
  0.367000, -7.281900
  0.369000, -7.231500
  0.371000, -7.177600
  0.373000, -7.119600
  0.375000, -7.057500
  0.377000, -6.992100
  0.379000, -6.923500
  0.381000, -6.851500
  0.383000, -6.776800
  0.385000, -6.699600
  0.387000, -6.619700
  0.389000, -6.537200
  0.391000, -6.452600
  0.393000, -6.365900
  0.395000, -6.277000
  0.397000, -6.185900
  0.399000, -6.092700
  0.401000, -5.997700
  0.403000, -5.901000
  0.405000, -5.802800
  0.407000, -5.703000
  0.409000, -5.601800
  0.411000, -5.498800
  0.413000, -5.394500
  0.415000, -5.288800
  0.417000, -5.181500
  0.419000, -5.073000
  0.421000, -4.963300
  0.423000, -4.852300
  0.425000, -4.740100
  0.427000, -4.626600
  0.429000, -4.512100
  0.431000, -4.396300
  0.433000, -4.279800
  0.435000, -4.162600
  0.437000, -4.044800
  0.439000, -3.926200
  0.441000, -3.806900
  0.443000, -3.687000
  0.445000, -3.566700
  0.447000, -3.445800
  0.449000, -3.324900
  0.451000, -3.203700
  0.453000, -3.082400
  0.455000, -2.961400
  0.457000, -2.840500
  0.459000, -2.719900
  0.461000, -2.599700
  0.463000, -2.479700
  0.465000, -2.360000
  0.467000, -2.241100
  0.469000, -2.122800
  0.471000, -2.005400
  0.473000, -1.889000
  0.475000, -1.773400
  0.477000, -1.658800
  0.479000, -1.545600
  0.481000, -1.433400
  0.483000, -1.322500
  0.485000, -1.213000
  0.487000, -1.105200
  0.489000, -0.999200
  0.491000, -0.894900
  0.493000, -0.792000
  0.495000, -0.690900
  0.497000, -0.592000
  0.499000, -0.494900
  0.501000, -0.399500
  0.503000, -0.306000
  0.505000, -0.214800
  0.507000, -0.125700
  0.509000, -0.038400
  0.511000,  0.047000
  0.513000,  0.130100
  0.515000,  0.210600
  0.517000,  0.288600
  0.519000,  0.364800
  0.521000,  0.438900
  0.523000,  0.510200
  0.525000,  0.579400
  0.527000,  0.645900
  0.529000,  0.709100
  0.531000,  0.770000
  0.533000,  0.828400
  0.535000,  0.884300
  0.537000,  0.937500
  0.539000,  0.988000
  0.541000,  1.036100
  0.543000,  1.081200
  0.545000,  1.123300
  0.547000,  1.162600
  0.549000,  1.199100
  0.551000,  1.232900
  0.553000,  1.264100
  0.555000,  1.292500
  0.557000,  1.318300
  0.559000,  1.341200
  0.561000,  1.361000
  0.563000,  1.378100
  0.565000,  1.392400
  0.567000,  1.404000
  0.569000,  1.413000
  0.571000,  1.419300
  0.573000,  1.422900
  0.575000,  1.423800
  0.577000,  1.422300
  0.579000,  1.418300
  0.581000,  1.411600
  0.583000,  1.402500
  0.585000,  1.391000
  0.587000,  1.377500
  0.589000,  1.361900
  0.591000,  1.343900
  0.593000,  1.323900
  0.595000,  1.301900
  0.597000,  1.277700
  0.599000,  1.251600
  0.601000,  1.223900
  0.603000,  1.194800
  0.605000,  1.164300
  0.607000,  1.132200
  0.609000,  1.098500
  0.611000,  1.063900
  0.613000,  1.028100
  0.615000,  0.991000
  0.617000,  0.953600
  0.619000,  0.915500
  0.621000,  0.876400
  0.623000,  0.836500
  0.625000,  0.796300
  0.627000,  0.756000
  0.629000,  0.715500
  0.631000,  0.674800
  0.633000,  0.633400
  0.635000,  0.592200
  0.637000,  0.551600
  0.639000,  0.510900
  0.641000,  0.470000
  0.643000,  0.429500
  0.645000,  0.389900
  0.647000,  0.350700
  0.649000,  0.311900
  0.651000,  0.273800
  0.653000,  0.236100
  0.655000,  0.199200
  0.657000,  0.163400
  0.659000,  0.128200
  0.661000,  0.093800
  0.663000,  0.060300
  0.665000,  0.027800
  0.667000, -0.003800
  0.669000, -0.034300
  0.671000, -0.063700
  0.673000, -0.092000
  0.675000, -0.119200
  0.677000, -0.145300
  0.679000, -0.170300
  0.681000, -0.194000
  0.683000, -0.216500
  0.685000, -0.237700
  0.687000, -0.257900
  0.689000, -0.276800
  0.691000, -0.294500
  0.693000, -0.311300
  0.695000, -0.326700
  0.697000, -0.340800
  0.699000, -0.353900
  0.701000, -0.365800
  0.703000, -0.376600
  0.705000, -0.386300
  0.707000, -0.394800
  0.709000, -0.402400
  0.711000, -0.409000
  0.713000, -0.414500
  0.715000, -0.419000
  0.717000, -0.422400
  0.719000, -0.424800
  0.721000, -0.426300
  0.723000, -0.426700
  0.725000, -0.426300
  0.727000, -0.424800
  0.729000, -0.422200
  0.731000, -0.419000
  0.733000, -0.415200
  0.735000, -0.410500
  0.737000, -0.405000
  0.739000, -0.398800
  0.741000, -0.391700
  0.743000, -0.384100
  0.745000, -0.375800
  0.747000, -0.366900
  0.749000, -0.357300
  0.751000, -0.347100
  0.753000, -0.336600
  0.755000, -0.325600
  0.757000, -0.314100
  0.759000, -0.302300
  0.761000, -0.290000
  0.763000, -0.277300
  0.765000, -0.264400
  0.767000, -0.251100
  0.769000, -0.237400
  0.771000, -0.223600
  0.773000, -0.209700
  0.775000, -0.195800
  0.777000, -0.181500
  0.779000, -0.167000
  0.781000, -0.152300
  0.783000, -0.137600
  0.785000, -0.122800
  0.787000, -0.108000
  0.789000, -0.093200
  0.791000, -0.078500
  0.793000, -0.063700
  0.795000, -0.049000
  0.797000, -0.034400
  0.799000, -0.019900
  0.801000, -0.005600
  0.803000,  0.008700
  0.805000,  0.022800
  0.807000,  0.036800
  0.809000,  0.050700
  0.811000,  0.064400
  0.813000,  0.077800
  0.815000,  0.091100
  0.817000,  0.104200
  0.819000,  0.117000
  0.821000,  0.129500
  0.823000,  0.141800
  0.825000,  0.153700
  0.827000,  0.165300
  0.829000,  0.176600
  0.831000,  0.187500
  0.833000,  0.198200
  0.835000,  0.208400
  0.837000,  0.218300
  0.839000,  0.227600
  0.841000,  0.236600
  0.843000,  0.245300
  0.845000,  0.253500
  0.847000,  0.261100
  0.849000,  0.268400
  0.851000,  0.275200
  0.853000,  0.281500
  0.855000,  0.287300
  0.857000,  0.292600
  0.859000,  0.297400
  0.861000,  0.301600
  0.863000,  0.305400
  0.865000,  0.308600
  0.867000,  0.311200
  0.869000,  0.313300
  0.871000,  0.315000
  0.873000,  0.316100
  0.875000,  0.316600
  0.877000,  0.316600
  0.879000,  0.316100
  0.881000,  0.315100
  0.883000,  0.313700
  0.885000,  0.311700
  0.887000,  0.309100
  0.889000,  0.306100
  0.891000,  0.302800
  0.893000,  0.299000
  0.895000,  0.294700
  0.897000,  0.290100
  0.899000,  0.284900
  0.901000,  0.279400
  0.903000,  0.273600
  0.905000,  0.267400
  0.907000,  0.261000
  0.909000,  0.254300
  0.911000,  0.247300
  0.913000,  0.240000
  0.915000,  0.232500
  0.917000,  0.224800
  0.919000,  0.216900
  0.921000,  0.209100
  0.923000,  0.201200
  0.925000,  0.192900
  0.927000,  0.184800
  0.929000,  0.176600
  0.931000,  0.168400
  0.933000,  0.160000
  0.935000,  0.151600
  0.937000,  0.143200
  0.939000,  0.134900
  0.941000,  0.126600
  0.943000,  0.118300
  0.945000,  0.110000
  0.947000,  0.101900
  0.949000,  0.093900
  0.951000,  0.086000
  0.953000,  0.078300
  0.955000,  0.070700
  0.957000,  0.063300
  0.959000,  0.055900
  0.961000,  0.048700
  0.963000,  0.041700
  0.965000,  0.034700
  0.967000,  0.027900
  0.969000,  0.021400
  0.971000,  0.015000
  0.973000,  0.008700
  0.975000,  0.002600
  0.977000, -0.003100
  0.979000, -0.008800
  0.981000, -0.014500
  0.983000, -0.020200
  0.985000, -0.025500
  0.987000, -0.030500
  0.989000, -0.035500
  0.991000, -0.040300
  0.993000, -0.045000
  0.995000, -0.049500
  0.997000, -0.053900
  0.999000, -0.057900
  1.001000, -0.061800
  1.003000, -0.065500
  1.005000, -0.069100
  1.007000, -0.072500
  1.009000, -0.076000
  1.011000, -0.079200
  1.013000, -0.082300
  1.015000, -0.085100
  1.017000, -0.087700
  1.019000, -0.090200
  1.021000, -0.092500
  1.023000, -0.094600
  1.025000, -0.096600
  1.027000, -0.098500
  1.029000, -0.100200
  1.031000, -0.101700
  1.033000, -0.102900
  1.035000, -0.104000
  1.037000, -0.104900
  1.039000, -0.105700
  1.041000, -0.106300
  1.043000, -0.106700
  1.045000, -0.106900
  1.047000, -0.106900
  1.049000, -0.106700
  1.051000, -0.106500
  1.053000, -0.105900
  1.055000, -0.105200
  1.057000, -0.104300
  1.059000, -0.103100
  1.061000, -0.101800
  1.063000, -0.100500
  1.065000, -0.098900
  1.067000, -0.097200
  1.069000, -0.095300
  1.071000, -0.093300
  1.073000, -0.091200
  1.075000, -0.088900
  1.077000, -0.086500
  1.079000, -0.084000
  1.081000, -0.081500
  1.083000, -0.078800
  1.085000, -0.075900
  1.087000, -0.073000
  1.089000, -0.070100
  1.091000, -0.067100
  1.093000, -0.064100
  1.095000, -0.061000
  1.097000, -0.057900
  1.099000, -0.054700
  1.101000, -0.051500
  1.103000, -0.048300
  1.105000, -0.045000
  1.107000, -0.041900
  1.109000, -0.038700
  1.111000, -0.035600
  1.113000, -0.032500
  1.115000, -0.029400
  1.117000, -0.026400
  1.119000, -0.023400
  1.121000, -0.020500
  1.123000, -0.017600
  1.125000, -0.014700
  1.127000, -0.011900
  1.129000, -0.009200
  1.131000, -0.006700
  1.133000, -0.004100
  1.135000, -0.001700
  1.137000,  0.000700
  1.139000,  0.003000
  1.141000,  0.005200
  1.143000,  0.007300
  1.145000,  0.009400
  1.147000,  0.011500
  1.149000,  0.013500
  1.151000,  0.015400
  1.153000,  0.017300
  1.155000,  0.018900
  1.157000,  0.020500
  1.159000,  0.022000
  1.161000,  0.023500
  1.163000,  0.025100
  1.165000,  0.026500
  1.167000,  0.027700
  1.169000,  0.028800
  1.171000,  0.029900
  1.173000,  0.031000
  1.175000,  0.032000
  1.177000,  0.032900
  1.179000,  0.033700
  1.181000,  0.034400
  1.183000,  0.035000
  1.185000,  0.035500
  1.187000,  0.035900
  1.189000,  0.036200
  1.191000,  0.036700
  1.193000,  0.037000
  1.195000,  0.037300
  1.197000,  0.037300
  1.199000,  0.037200
  1.201000,  0.037100
  1.203000,  0.037000
  1.205000,  0.036800
  1.207000,  0.036600
  1.209000,  0.036200
  1.211000,  0.035700
  1.213000,  0.035100
  1.215000,  0.034300
  1.217000,  0.033400
  1.219000,  0.032400
  1.221000,  0.031400
  1.223000,  0.030400
  1.225000,  0.029300
  1.227000,  0.028100
  1.229000,  0.026800
  1.231000,  0.025400
  1.233000,  0.024000
  1.235000,  0.022500
  1.237000,  0.021000
  1.239000,  0.019600
  1.241000,  0.018100
  1.243000,  0.016500
  1.245000,  0.015100
  1.247000,  0.013600
  1.249000,  0.012100
  1.251000,  0.010600
  1.253000,  0.009200
  1.255000,  0.007700
  1.257000,  0.006300
  1.259000,  0.005000
  1.261000,  0.003700
  1.263000,  0.002500
  1.265000,  0.001200
  1.267000,  0.000100
  1.269000, -0.001000
  1.271000, -0.002000
  1.273000, -0.002900
  1.275000, -0.003800
  1.277000, -0.004700
  1.279000, -0.005500
  1.281000, -0.006300
  1.283000, -0.007100
  1.285000, -0.007800
  1.287000, -0.008300
  1.289000, -0.008800
  1.291000, -0.009400
  1.293000, -0.010000
  1.295000, -0.010500
  1.297000, -0.010900
  1.299000, -0.011300
  1.301000, -0.011700
  1.303000, -0.012100
  1.305000, -0.012400
  1.307000, -0.012700
  1.309000, -0.013000
  1.311000, -0.013200
  1.313000, -0.013500
  1.315000, -0.013800
  1.317000, -0.014200
  1.319000, -0.014700
  1.321000, -0.015100
  1.323000, -0.015500
  1.325000, -0.016000
  1.327000, -0.016300
  1.329000, -0.016500
  1.331000, -0.016800
  1.333000, -0.017000
  1.335000, -0.017200
  1.337000, -0.017400
  1.339000, -0.017700
  1.341000, -0.017700
  1.343000, -0.017800
  1.345000, -0.017800
  1.347000, -0.017700
  1.349000, -0.017600
  1.351000, -0.017400
  1.353000, -0.017200
  1.355000, -0.016900
  1.357000, -0.016600
  1.359000, -0.016200
  1.361000, -0.015900
  1.363000, -0.015300
  1.365000, -0.014700
  1.367000, -0.014100
  1.369000, -0.013300
  1.371000, -0.012600
  1.373000, -0.012100
  1.375000, -0.011200
  1.377000, -0.010200
  1.379000, -0.009000
  1.381000, -0.007900
  1.383000, -0.006800
  1.385000, -0.005900
  1.387000, -0.005100
  1.389000, -0.004200
  1.391000, -0.003700
  1.393000, -0.003400
  1.395000, -0.003100
  1.397000, -0.003000
  1.399000, -0.003200
