# z (nm)   (kJ/mol)
  0.313000, 10.549400
  0.315000, 10.037500
  0.317000,  9.509500
  0.319000,  8.987400
  0.321000,  8.481300
  0.323000,  7.967900
  0.325000,  7.459500
  0.327000,  6.965900
  0.329000,  6.464100
  0.331000,  5.958600
  0.333000,  5.457100
  0.335000,  4.956600
  0.337000,  4.460700
  0.339000,  3.977600
  0.341000,  3.499400
  0.343000,  3.027700
  0.345000,  2.564900
  0.347000,  2.106200
  0.349000,  1.660500
  0.351000,  1.226400
  0.353000,  0.799700
  0.355000,  0.383300
  0.357000, -0.020200
  0.359000, -0.415400
  0.361000, -0.800600
  0.363000, -1.172900
  0.365000, -1.531700
  0.367000, -1.877300
  0.369000, -2.213500
  0.371000, -2.536200
  0.373000, -2.846300
  0.375000, -3.143800
  0.377000, -3.425600
  0.379000, -3.697800
  0.381000, -3.959000
  0.383000, -4.209500
  0.385000, -4.448300
  0.387000, -4.673100
  0.389000, -4.887000
  0.391000, -5.087900
  0.393000, -5.276300
  0.395000, -5.452400
  0.397000, -5.616600
  0.399000, -5.770300
  0.401000, -5.912500
  0.403000, -6.042700
  0.405000, -6.162300
  0.407000, -6.271600
  0.409000, -6.369400
  0.411000, -6.456400
  0.413000, -6.533600
  0.415000, -6.600000
  0.417000, -6.656300
  0.419000, -6.703300
  0.421000, -6.740900
  0.423000, -6.769000
  0.425000, -6.788400
  0.427000, -6.799800
  0.429000, -6.802700
  0.431000, -6.797700
  0.433000, -6.784600
  0.435000, -6.763100
  0.437000, -6.736500
  0.439000, -6.704500
  0.441000, -6.666400
  0.443000, -6.622000
  0.445000, -6.570700
  0.447000, -6.514300
  0.449000, -6.452800
  0.451000, -6.386300
  0.453000, -6.315800
  0.455000, -6.241200
  0.457000, -6.162500
  0.459000, -6.080700
  0.461000, -5.994900
  0.463000, -5.905500
  0.465000, -5.813700
  0.467000, -5.719400
  0.469000, -5.622300
  0.471000, -5.522700
  0.473000, -5.421700
  0.475000, -5.319200
  0.477000, -5.215100
  0.479000, -5.109600
  0.481000, -5.002900
  0.483000, -4.895700
  0.485000, -4.787800
  0.487000, -4.679000
  0.489000, -4.569500
  0.491000, -4.459400
  0.493000, -4.349100
  0.495000, -4.239000
  0.497000, -4.128900
  0.499000, -4.019300
  0.501000, -3.910400
  0.503000, -3.801600
  0.505000, -3.693500
  0.507000, -3.586200
  0.509000, -3.479700
  0.511000, -3.373900
  0.513000, -3.269100
  0.515000, -3.165700
  0.517000, -3.063400
  0.519000, -2.962100
  0.521000, -2.862500
  0.523000, -2.764800
  0.525000, -2.668700
  0.527000, -2.574300
  0.529000, -2.482100
  0.531000, -2.392000
  0.533000, -2.303700
  0.535000, -2.217700
  0.537000, -2.133700
  0.539000, -2.052100
  0.541000, -1.972700
  0.543000, -1.895500
  0.545000, -1.821100
  0.547000, -1.749300
  0.549000, -1.680100
  0.551000, -1.613400
  0.553000, -1.549700
  0.555000, -1.489300
  0.557000, -1.431400
  0.559000, -1.375800
  0.561000, -1.322700
  0.563000, -1.272200
  0.565000, -1.224300
  0.567000, -1.179000
  0.569000, -1.136600
  0.571000, -1.097300
  0.573000, -1.060800
  0.575000, -1.027300
  0.577000, -0.996100
  0.579000, -0.967200
  0.581000, -0.941300
  0.583000, -0.918300
  0.585000, -0.898100
  0.587000, -0.880000
  0.589000, -0.864200
  0.591000, -0.851500
  0.593000, -0.841100
  0.595000, -0.833200
  0.597000, -0.827800
  0.599000, -0.825200
  0.601000, -0.824800
  0.603000, -0.826100
  0.605000, -0.829700
  0.607000, -0.835600
  0.609000, -0.843500
  0.611000, -0.854000
  0.613000, -0.866900
  0.615000, -0.881600
  0.617000, -0.898000
  0.619000, -0.916200
  0.621000, -0.936800
  0.623000, -0.959400
  0.625000, -0.983600
  0.627000, -1.009400
  0.629000, -1.036900
  0.631000, -1.066300
  0.633000, -1.097800
  0.635000, -1.130600
  0.637000, -1.164200
  0.639000, -1.199300
  0.641000, -1.235700
  0.643000, -1.273400
  0.645000, -1.312300
  0.647000, -1.352200
  0.649000, -1.393100
  0.651000, -1.434700
  0.653000, -1.477100
  0.655000, -1.520200
  0.657000, -1.564000
  0.659000, -1.608000
  0.661000, -1.652400
  0.663000, -1.697200
  0.665000, -1.742200
  0.667000, -1.787300
  0.669000, -1.832100
  0.671000, -1.876700
  0.673000, -1.921200
  0.675000, -1.965300
  0.677000, -2.009000
  0.679000, -2.052100
  0.681000, -2.094600
  0.683000, -2.136300
  0.685000, -2.177100
  0.687000, -2.217100
  0.689000, -2.256300
  0.691000, -2.294000
  0.693000, -2.330600
  0.695000, -2.366100
  0.697000, -2.400100
  0.699000, -2.432800
  0.701000, -2.464200
  0.703000, -2.494000
  0.705000, -2.522200
  0.707000, -2.548600
  0.709000, -2.573500
  0.711000, -2.596600
  0.713000, -2.617800
  0.715000, -2.637300
  0.717000, -2.655100
  0.719000, -2.671200
  0.721000, -2.685200
  0.723000, -2.697500
  0.725000, -2.708000
  0.727000, -2.716700
  0.729000, -2.723600
  0.731000, -2.728700
  0.733000, -2.732000
  0.735000, -2.733600
  0.737000, -2.733300
  0.739000, -2.731400
  0.741000, -2.727900
  0.743000, -2.722800
  0.745000, -2.715900
  0.747000, -2.707200
  0.749000, -2.697100
  0.751000, -2.685400
  0.753000, -2.671900
  0.755000, -2.657000
  0.757000, -2.640900
  0.759000, -2.623500
  0.761000, -2.604700
  0.763000, -2.584400
  0.765000, -2.562700
  0.767000, -2.540100
  0.769000, -2.516500
  0.771000, -2.491800
  0.773000, -2.466000
  0.775000, -2.439200
  0.777000, -2.411500
  0.779000, -2.382900
  0.781000, -2.353500
  0.783000, -2.323200
  0.785000, -2.292200
  0.787000, -2.260500
  0.789000, -2.228100
  0.791000, -2.195000
  0.793000, -2.161400
  0.795000, -2.127200
  0.797000, -2.092500
  0.799000, -2.057400
  0.801000, -2.021800
  0.803000, -1.985800
  0.805000, -1.949400
  0.807000, -1.912800
  0.809000, -1.876000
  0.811000, -1.838800
  0.813000, -1.801400
  0.815000, -1.763800
  0.817000, -1.726200
  0.819000, -1.688400
  0.821000, -1.650500
  0.823000, -1.612700
  0.825000, -1.574800
  0.827000, -1.537100
  0.829000, -1.499300
  0.831000, -1.461500
  0.833000, -1.423800
  0.835000, -1.386200
  0.837000, -1.348700
  0.839000, -1.311500
  0.841000, -1.274600
  0.843000, -1.237900
  0.845000, -1.201500
  0.847000, -1.165400
  0.849000, -1.129600
  0.851000, -1.094300
  0.853000, -1.059200
  0.855000, -1.024500
  0.857000, -0.990200
  0.859000, -0.956400
  0.861000, -0.923000
  0.863000, -0.889900
  0.865000, -0.857600
  0.867000, -0.825900
  0.869000, -0.794700
  0.871000, -0.764100
  0.873000, -0.734100
  0.875000, -0.704500
  0.877000, -0.675400
  0.879000, -0.647100
  0.881000, -0.619600
  0.883000, -0.592600
  0.885000, -0.566300
  0.887000, -0.540600
  0.889000, -0.515600
  0.891000, -0.491400
  0.893000, -0.467900
  0.895000, -0.445000
  0.897000, -0.422900
  0.899000, -0.401400
  0.901000, -0.380600
  0.903000, -0.360700
  0.905000, -0.341700
  0.907000, -0.323400
  0.909000, -0.305600
  0.911000, -0.288500
  0.913000, -0.272400
  0.915000, -0.257000
  0.917000, -0.242300
  0.919000, -0.228200
  0.921000, -0.215100
  0.923000, -0.202700
  0.925000, -0.191000
  0.927000, -0.179900
  0.929000, -0.169500
  0.931000, -0.159700
  0.933000, -0.150700
  0.935000, -0.142300
  0.937000, -0.134600
  0.939000, -0.127700
  0.941000, -0.121400
  0.943000, -0.115600
  0.945000, -0.110300
  0.947000, -0.105700
  0.949000, -0.101600
  0.951000, -0.098100
  0.953000, -0.095200
  0.955000, -0.092800
  0.957000, -0.091000
  0.959000, -0.089600
  0.961000, -0.088700
  0.963000, -0.088200
  0.965000, -0.088200
  0.967000, -0.088800
  0.969000, -0.089700
  0.971000, -0.090800
  0.973000, -0.092400
  0.975000, -0.094400
  0.977000, -0.096700
  0.979000, -0.099100
  0.981000, -0.101800
  0.983000, -0.104800
  0.985000, -0.108100
  0.987000, -0.111600
  0.989000, -0.115100
  0.991000, -0.118900
  0.993000, -0.122800
  0.995000, -0.126700
  0.997000, -0.130900
  0.999000, -0.135300
  1.001000, -0.139700
  1.003000, -0.144100
  1.005000, -0.148600
  1.007000, -0.153000
  1.009000, -0.157400
  1.011000, -0.162000
  1.013000, -0.166600
  1.015000, -0.171000
  1.017000, -0.175500
  1.019000, -0.179800
  1.021000, -0.184200
  1.023000, -0.188500
  1.025000, -0.192500
  1.027000, -0.196500
  1.029000, -0.200400
  1.031000, -0.204300
  1.033000, -0.208000
  1.035000, -0.211500
  1.037000, -0.215100
  1.039000, -0.218500
  1.041000, -0.221800
  1.043000, -0.224800
  1.045000, -0.227600
  1.047000, -0.230300
  1.049000, -0.232900
  1.051000, -0.235500
  1.053000, -0.237900
  1.055000, -0.240000
  1.057000, -0.241700
  1.059000, -0.243400
  1.061000, -0.245000
  1.063000, -0.246300
  1.065000, -0.247400
  1.067000, -0.248300
  1.069000, -0.249000
  1.071000, -0.249400
  1.073000, -0.249700
  1.075000, -0.249900
  1.077000, -0.249700
  1.079000, -0.249400
  1.081000, -0.248800
  1.083000, -0.248100
  1.085000, -0.247200
  1.087000, -0.246200
  1.089000, -0.245000
  1.091000, -0.243500
  1.093000, -0.241800
  1.095000, -0.240100
  1.097000, -0.238200
  1.099000, -0.236000
  1.101000, -0.233600
  1.103000, -0.231100
  1.105000, -0.228300
  1.107000, -0.225500
  1.109000, -0.222500
  1.111000, -0.219300
  1.113000, -0.215900
  1.115000, -0.212400
  1.117000, -0.208800
  1.119000, -0.205000
  1.121000, -0.201100
  1.123000, -0.197100
  1.125000, -0.192900
  1.127000, -0.188800
  1.129000, -0.184600
  1.131000, -0.180300
  1.133000, -0.176000
  1.135000, -0.171600
  1.137000, -0.167200
  1.139000, -0.162700
  1.141000, -0.158100
  1.143000, -0.153500
  1.145000, -0.148700
  1.147000, -0.144100
  1.149000, -0.139400
  1.151000, -0.134800
  1.153000, -0.130100
  1.155000, -0.125500
  1.157000, -0.120800
  1.159000, -0.116000
  1.161000, -0.111300
  1.163000, -0.106700
  1.165000, -0.102000
  1.167000, -0.097400
  1.169000, -0.092800
  1.171000, -0.088200
  1.173000, -0.083600
  1.175000, -0.079100
  1.177000, -0.074600
  1.179000, -0.070000
  1.181000, -0.065500
  1.183000, -0.061100
  1.185000, -0.056900
  1.187000, -0.052700
  1.189000, -0.048500
  1.191000, -0.044400
  1.193000, -0.040300
  1.195000, -0.036300
  1.197000, -0.032200
  1.199000, -0.028300
  1.201000, -0.024400
  1.203000, -0.020600
  1.205000, -0.016800
  1.207000, -0.013200
  1.209000, -0.009700
  1.211000, -0.006200
  1.213000, -0.002800
  1.215000,  0.000400
  1.217000,  0.003700
  1.219000,  0.006800
  1.221000,  0.009800
  1.223000,  0.012800
  1.225000,  0.015800
  1.227000,  0.018500
  1.229000,  0.021100
  1.231000,  0.023600
  1.233000,  0.025800
  1.235000,  0.028100
  1.237000,  0.030100
  1.239000,  0.032000
  1.241000,  0.033800
  1.243000,  0.035500
  1.245000,  0.037000
  1.247000,  0.038300
  1.249000,  0.039500
  1.251000,  0.040400
  1.253000,  0.041100
  1.255000,  0.041600
  1.257000,  0.041900
  1.259000,  0.042200
  1.261000,  0.042300
  1.263000,  0.042200
  1.265000,  0.041900
  1.267000,  0.041400
  1.269000,  0.040700
  1.271000,  0.039800
  1.273000,  0.038800
  1.275000,  0.037600
  1.277000,  0.036200
  1.279000,  0.034600
  1.281000,  0.032900
  1.283000,  0.031000
  1.285000,  0.029000
  1.287000,  0.026800
  1.289000,  0.024500
  1.291000,  0.022000
  1.293000,  0.019300
  1.295000,  0.016600
  1.297000,  0.013600
  1.299000,  0.010700
  1.301000,  0.007800
  1.303000,  0.004800
  1.305000,  0.001800
  1.307000, -0.001400
  1.309000, -0.004500
  1.311000, -0.007600
  1.313000, -0.010600
  1.315000, -0.013700
  1.317000, -0.016700
  1.319000, -0.019700
  1.321000, -0.022700
  1.323000, -0.025400
  1.325000, -0.027800
  1.327000, -0.030100
  1.329000, -0.032200
  1.331000, -0.034300
  1.333000, -0.036200
  1.335000, -0.038100
  1.337000, -0.039600
  1.339000, -0.040900
  1.341000, -0.042100
  1.343000, -0.043200
  1.345000, -0.043700
  1.347000, -0.044000
  1.349000, -0.044100
  1.351000, -0.043900
  1.353000, -0.043500
  1.355000, -0.042800
  1.357000, -0.041900
  1.359000, -0.040800
  1.361000, -0.039500
  1.363000, -0.038000
  1.365000, -0.036200
  1.367000, -0.034200
  1.369000, -0.032000
  1.371000, -0.029600
  1.373000, -0.027000
  1.375000, -0.024200
  1.377000, -0.021200
  1.379000, -0.018100
  1.381000, -0.015100
  1.383000, -0.011900
  1.385000, -0.008600
  1.387000, -0.005400
  1.389000, -0.002300
  1.391000,  0.000800
  1.393000,  0.003900
  1.395000,  0.006500
  1.397000,  0.008800
  1.399000,  0.010800
