# z (nm)   (kJ/mol)
  0.273000, 20.637200
  0.275000, 20.431600
  0.277000, 20.228400
  0.279000, 20.014500
  0.281000, 19.787400
  0.283000, 19.555200
  0.285000, 19.315400
  0.287000, 19.085900
  0.289000, 18.853200
  0.291000, 18.600800
  0.293000, 18.319400
  0.295000, 18.020300
  0.297000, 17.725300
  0.299000, 17.426200
  0.301000, 17.108900
  0.303000, 16.777900
  0.305000, 16.431900
  0.307000, 16.080300
  0.309000, 15.729900
  0.311000, 15.369400
  0.313000, 14.995000
  0.315000, 14.614600
  0.317000, 14.232100
  0.319000, 13.838500
  0.321000, 13.434800
  0.323000, 13.026800
  0.325000, 12.612700
  0.327000, 12.193400
  0.329000, 11.764500
  0.331000, 11.329400
  0.333000, 10.888400
  0.335000, 10.438200
  0.337000,  9.983200
  0.339000,  9.527900
  0.341000,  9.073700
  0.343000,  8.615900
  0.345000,  8.159500
  0.347000,  7.705300
  0.349000,  7.244400
  0.351000,  6.788800
  0.353000,  6.337200
  0.355000,  5.886100
  0.357000,  5.444000
  0.359000,  5.005500
  0.361000,  4.569600
  0.363000,  4.133500
  0.365000,  3.696900
  0.367000,  3.269400
  0.369000,  2.855500
  0.371000,  2.446900
  0.373000,  2.038700
  0.375000,  1.640500
  0.377000,  1.252400
  0.379000,  0.872100
  0.381000,  0.499300
  0.383000,  0.131900
  0.385000, -0.226200
  0.387000, -0.575300
  0.389000, -0.917900
  0.391000, -1.251600
  0.393000, -1.574000
  0.395000, -1.885600
  0.397000, -2.187000
  0.399000, -2.478100
  0.401000, -2.757900
  0.403000, -3.029500
  0.405000, -3.293000
  0.407000, -3.545200
  0.409000, -3.783500
  0.411000, -4.009100
  0.413000, -4.223700
  0.415000, -4.426600
  0.417000, -4.618700
  0.419000, -4.799700
  0.421000, -4.969300
  0.423000, -5.127400
  0.425000, -5.273600
  0.427000, -5.407800
  0.429000, -5.530600
  0.431000, -5.642100
  0.433000, -5.743000
  0.435000, -5.832900
  0.437000, -5.910700
  0.439000, -5.977700
  0.441000, -6.034900
  0.443000, -6.080400
  0.445000, -6.116800
  0.447000, -6.143900
  0.449000, -6.160500
  0.451000, -6.167800
  0.453000, -6.165300
  0.455000, -6.153700
  0.457000, -6.133000
  0.459000, -6.104400
  0.461000, -6.067200
  0.463000, -6.020700
  0.465000, -5.967700
  0.467000, -5.908400
  0.469000, -5.841800
  0.471000, -5.768900
  0.473000, -5.690800
  0.475000, -5.607500
  0.477000, -5.518800
  0.479000, -5.425500
  0.481000, -5.327200
  0.483000, -5.224600
  0.485000, -5.118500
  0.487000, -5.009000
  0.489000, -4.896500
  0.491000, -4.781900
  0.493000, -4.665400
  0.495000, -4.545900
  0.497000, -4.424700
  0.499000, -4.302400
  0.501000, -4.179400
  0.503000, -4.056200
  0.505000, -3.932500
  0.507000, -3.808400
  0.509000, -3.684500
  0.511000, -3.560700
  0.513000, -3.437700
  0.515000, -3.315600
  0.517000, -3.194900
  0.519000, -3.075600
  0.521000, -2.957400
  0.523000, -2.841000
  0.525000, -2.726700
  0.527000, -2.614200
  0.529000, -2.503700
  0.531000, -2.395600
  0.533000, -2.290100
  0.535000, -2.187300
  0.537000, -2.087000
  0.539000, -1.989500
  0.541000, -1.895000
  0.543000, -1.803000
  0.545000, -1.713900
  0.547000, -1.628200
  0.549000, -1.545900
  0.551000, -1.466400
  0.553000, -1.389700
  0.555000, -1.316100
  0.557000, -1.245800
  0.559000, -1.178600
  0.561000, -1.114600
  0.563000, -1.053600
  0.565000, -0.995100
  0.567000, -0.939500
  0.569000, -0.887300
  0.571000, -0.837800
  0.573000, -0.790700
  0.575000, -0.746600
  0.577000, -0.705300
  0.579000, -0.666700
  0.581000, -0.630600
  0.583000, -0.596900
  0.585000, -0.565500
  0.587000, -0.536200
  0.589000, -0.509000
  0.591000, -0.484100
  0.593000, -0.460800
  0.595000, -0.439100
  0.597000, -0.419300
  0.599000, -0.401400
  0.601000, -0.384800
  0.603000, -0.369700
  0.605000, -0.356300
  0.607000, -0.344300
  0.609000, -0.333200
  0.611000, -0.323300
  0.613000, -0.314500
  0.615000, -0.306700
  0.617000, -0.299800
  0.619000, -0.293900
  0.621000, -0.289000
  0.623000, -0.284600
  0.625000, -0.280800
  0.627000, -0.277700
  0.629000, -0.275100
  0.631000, -0.272700
  0.633000, -0.270900
  0.635000, -0.269700
  0.637000, -0.269000
  0.639000, -0.268600
  0.641000, -0.268500
  0.643000, -0.268600
  0.645000, -0.269100
  0.647000, -0.269800
  0.649000, -0.270800
  0.651000, -0.272000
  0.653000, -0.273400
  0.655000, -0.275000
  0.657000, -0.276800
  0.659000, -0.279000
  0.661000, -0.281400
  0.663000, -0.283900
  0.665000, -0.286500
  0.667000, -0.289200
  0.669000, -0.291800
  0.671000, -0.294500
  0.673000, -0.297300
  0.675000, -0.300200
  0.677000, -0.303100
  0.679000, -0.305900
  0.681000, -0.308800
  0.683000, -0.311800
  0.685000, -0.315000
  0.687000, -0.318100
  0.689000, -0.321300
  0.691000, -0.324700
  0.693000, -0.328100
  0.695000, -0.331300
  0.697000, -0.334500
  0.699000, -0.337900
  0.701000, -0.341100
  0.703000, -0.344300
  0.705000, -0.347200
  0.707000, -0.350100
  0.709000, -0.353100
  0.711000, -0.355900
  0.713000, -0.358800
  0.715000, -0.361700
  0.717000, -0.364600
  0.719000, -0.367300
  0.721000, -0.369800
  0.723000, -0.372200
  0.725000, -0.374300
  0.727000, -0.376200
  0.729000, -0.377900
  0.731000, -0.379500
  0.733000, -0.380900
  0.735000, -0.382300
  0.737000, -0.383500
  0.739000, -0.384400
  0.741000, -0.385100
  0.743000, -0.385700
  0.745000, -0.385800
  0.747000, -0.385500
  0.749000, -0.385000
  0.751000, -0.384200
  0.753000, -0.383200
  0.755000, -0.381700
  0.757000, -0.379900
  0.759000, -0.377900
  0.761000, -0.375700
  0.763000, -0.373000
  0.765000, -0.370000
  0.767000, -0.366800
  0.769000, -0.363100
  0.771000, -0.359200
  0.773000, -0.354700
  0.775000, -0.349900
  0.777000, -0.344900
  0.779000, -0.339600
  0.781000, -0.333900
  0.783000, -0.327900
  0.785000, -0.321700
  0.787000, -0.315100
  0.789000, -0.308100
  0.791000, -0.301000
  0.793000, -0.293800
  0.795000, -0.286200
  0.797000, -0.278200
  0.799000, -0.269900
  0.801000, -0.261500
  0.803000, -0.252900
  0.805000, -0.244000
  0.807000, -0.235000
  0.809000, -0.225800
  0.811000, -0.216600
  0.813000, -0.207200
  0.815000, -0.197700
  0.817000, -0.188000
  0.819000, -0.178300
  0.821000, -0.168700
  0.823000, -0.158900
  0.825000, -0.149200
  0.827000, -0.139500
  0.829000, -0.129900
  0.831000, -0.120400
  0.833000, -0.110900
  0.835000, -0.101500
  0.837000, -0.092200
  0.839000, -0.083000
  0.841000, -0.073900
  0.843000, -0.065100
  0.845000, -0.056400
  0.847000, -0.047900
  0.849000, -0.039600
  0.851000, -0.031600
  0.853000, -0.023800
  0.855000, -0.016200
  0.857000, -0.008900
  0.859000, -0.001800
  0.861000,  0.005000
  0.863000,  0.011600
  0.865000,  0.017900
  0.867000,  0.024000
  0.869000,  0.029800
  0.871000,  0.035300
  0.873000,  0.040600
  0.875000,  0.045600
  0.877000,  0.050400
  0.879000,  0.054900
  0.881000,  0.059100
  0.883000,  0.063000
  0.885000,  0.066600
  0.887000,  0.069900
  0.889000,  0.072900
  0.891000,  0.075700
  0.893000,  0.078300
  0.895000,  0.080700
  0.897000,  0.083000
  0.899000,  0.085000
  0.901000,  0.086800
  0.903000,  0.088200
  0.905000,  0.089600
  0.907000,  0.090900
  0.909000,  0.091900
  0.911000,  0.092700
  0.913000,  0.093300
  0.915000,  0.093800
  0.917000,  0.094000
  0.919000,  0.094200
  0.921000,  0.094300
  0.923000,  0.094200
  0.925000,  0.094200
  0.927000,  0.094100
  0.929000,  0.093600
  0.931000,  0.093100
  0.933000,  0.092600
  0.935000,  0.092100
  0.937000,  0.091600
  0.939000,  0.090900
  0.941000,  0.090100
  0.943000,  0.089200
  0.945000,  0.088400
  0.947000,  0.087500
  0.949000,  0.086500
  0.951000,  0.085600
  0.953000,  0.084600
  0.955000,  0.083600
  0.957000,  0.082600
  0.959000,  0.081500
  0.961000,  0.080500
  0.963000,  0.079500
  0.965000,  0.078400
  0.967000,  0.077200
  0.969000,  0.076000
  0.971000,  0.074800
  0.973000,  0.073700
  0.975000,  0.072600
  0.977000,  0.071300
  0.979000,  0.070000
  0.981000,  0.068700
  0.983000,  0.067200
  0.985000,  0.065700
  0.987000,  0.064100
  0.989000,  0.062500
  0.991000,  0.061000
  0.993000,  0.059400
  0.995000,  0.057800
  0.997000,  0.056200
  0.999000,  0.054500
  1.001000,  0.052800
  1.003000,  0.051100
  1.005000,  0.049300
  1.007000,  0.047500
  1.009000,  0.045700
  1.011000,  0.043800
  1.013000,  0.041800
  1.015000,  0.040000
  1.017000,  0.038000
  1.019000,  0.036000
  1.021000,  0.034000
  1.023000,  0.032100
  1.025000,  0.030100
  1.027000,  0.028300
  1.029000,  0.026400
  1.031000,  0.024500
  1.033000,  0.022700
  1.035000,  0.021000
  1.037000,  0.019200
  1.039000,  0.017600
  1.041000,  0.016000
  1.043000,  0.014500
  1.045000,  0.013000
  1.047000,  0.011500
  1.049000,  0.010100
  1.051000,  0.008900
  1.053000,  0.007900
  1.055000,  0.007000
  1.057000,  0.006200
  1.059000,  0.005500
  1.061000,  0.004900
  1.063000,  0.004600
  1.065000,  0.004300
  1.067000,  0.004100
  1.069000,  0.004000
  1.071000,  0.004000
  1.073000,  0.004300
  1.075000,  0.004700
  1.077000,  0.005300
  1.079000,  0.006000
  1.081000,  0.006800
  1.083000,  0.007900
  1.085000,  0.009000
  1.087000,  0.010300
  1.089000,  0.011700
  1.091000,  0.013200
  1.093000,  0.014800
  1.095000,  0.016400
  1.097000,  0.018300
  1.099000,  0.020200
  1.101000,  0.022100
  1.103000,  0.024100
  1.105000,  0.026200
  1.107000,  0.028400
  1.109000,  0.030500
  1.111000,  0.032600
  1.113000,  0.034800
  1.115000,  0.037000
  1.117000,  0.039100
  1.119000,  0.041200
  1.121000,  0.043300
  1.123000,  0.045300
  1.125000,  0.047300
  1.127000,  0.049200
  1.129000,  0.051000
  1.131000,  0.052700
  1.133000,  0.054300
  1.135000,  0.055800
  1.137000,  0.057200
  1.139000,  0.058500
  1.141000,  0.059700
  1.143000,  0.060700
  1.145000,  0.061700
  1.147000,  0.062500
  1.149000,  0.063200
  1.151000,  0.064000
  1.153000,  0.064600
  1.155000,  0.065000
  1.157000,  0.065300
  1.159000,  0.065400
  1.161000,  0.065500
  1.163000,  0.065500
  1.165000,  0.065400
  1.167000,  0.065100
  1.169000,  0.064700
  1.171000,  0.064300
  1.173000,  0.063800
  1.175000,  0.063100
  1.177000,  0.062400
  1.179000,  0.061600
  1.181000,  0.060800
  1.183000,  0.059900
  1.185000,  0.058900
  1.187000,  0.057900
  1.189000,  0.056700
  1.191000,  0.055500
  1.193000,  0.054400
  1.195000,  0.053200
  1.197000,  0.051800
  1.199000,  0.050500
  1.201000,  0.049300
  1.203000,  0.047900
  1.205000,  0.046400
  1.207000,  0.044900
  1.209000,  0.043500
  1.211000,  0.042200
  1.213000,  0.040700
  1.215000,  0.039000
  1.217000,  0.037200
  1.219000,  0.035400
  1.221000,  0.033400
  1.223000,  0.031600
  1.225000,  0.029800
  1.227000,  0.028000
  1.229000,  0.026200
  1.231000,  0.024400
  1.233000,  0.022300
  1.235000,  0.020100
  1.237000,  0.017900
  1.239000,  0.015800
  1.241000,  0.013600
  1.243000,  0.011500
  1.245000,  0.009300
  1.247000,  0.007000
  1.249000,  0.004700
  1.251000,  0.002400
  1.253000,  0.000200
  1.255000, -0.002100
  1.257000, -0.004400
  1.259000, -0.006600
  1.261000, -0.008800
  1.263000, -0.010700
  1.265000, -0.012700
  1.267000, -0.014800
  1.269000, -0.016800
  1.271000, -0.018700
  1.273000, -0.020500
  1.275000, -0.022300
  1.277000, -0.024100
  1.279000, -0.025800
  1.281000, -0.027300
  1.283000, -0.028700
  1.285000, -0.030100
  1.287000, -0.031200
  1.289000, -0.032400
  1.291000, -0.033600
  1.293000, -0.034500
  1.295000, -0.035100
  1.297000, -0.035500
  1.299000, -0.035900
  1.301000, -0.036300
  1.303000, -0.036600
  1.305000, -0.036600
  1.307000, -0.036500
  1.309000, -0.036400
  1.311000, -0.036300
  1.313000, -0.035900
  1.315000, -0.035400
  1.317000, -0.034900
  1.319000, -0.034300
  1.321000, -0.033500
  1.323000, -0.032600
  1.325000, -0.031700
  1.327000, -0.030800
  1.329000, -0.029600
  1.331000, -0.028400
  1.333000, -0.027000
  1.335000, -0.025600
  1.337000, -0.024000
  1.339000, -0.022100
  1.341000, -0.020200
  1.343000, -0.018100
  1.345000, -0.015900
  1.347000, -0.013800
  1.349000, -0.011700
  1.351000, -0.009500
  1.353000, -0.007000
  1.355000, -0.004600
  1.357000, -0.002200
  1.359000,  0.000200
  1.361000,  0.002800
  1.363000,  0.005400
  1.365000,  0.008100
  1.367000,  0.010500
  1.369000,  0.013000
  1.371000,  0.015500
  1.373000,  0.018200
  1.375000,  0.020800
  1.377000,  0.023500
  1.379000,  0.026300
  1.381000,  0.028900
  1.383000,  0.031300
  1.385000,  0.033600
  1.387000,  0.036000
  1.389000,  0.038500
  1.391000,  0.040800
  1.393000,  0.042800
  1.395000,  0.044700
  1.397000,  0.046300
  1.399000,  0.047400
