# z (nm)   (kJ/mol)
  0.239000,  8.289900
  0.241000,  7.757000
  0.243000,  7.234000
  0.245000,  6.744900
  0.247000,  6.229200
  0.249000,  5.691700
  0.251000,  5.150500
  0.253000,  4.612000
  0.255000,  4.086400
  0.257000,  3.568200
  0.259000,  3.043900
  0.261000,  2.519900
  0.263000,  2.003500
  0.265000,  1.492600
  0.267000,  0.992000
  0.269000,  0.501900
  0.271000,  0.020800
  0.273000, -0.454300
  0.275000, -0.924700
  0.277000, -1.388400
  0.279000, -1.841200
  0.281000, -2.290700
  0.283000, -2.732400
  0.285000, -3.155900
  0.287000, -3.567400
  0.289000, -3.968800
  0.291000, -4.355600
  0.293000, -4.726800
  0.295000, -5.088900
  0.297000, -5.439200
  0.299000, -5.776400
  0.301000, -6.102600
  0.303000, -6.417700
  0.305000, -6.724100
  0.307000, -7.019100
  0.309000, -7.299700
  0.311000, -7.566300
  0.313000, -7.820300
  0.315000, -8.063600
  0.317000, -8.294300
  0.319000, -8.511300
  0.321000, -8.716100
  0.323000, -8.909700
  0.325000, -9.091000
  0.327000, -9.259300
  0.329000, -9.415700
  0.331000, -9.560800
  0.333000, -9.693500
  0.335000, -9.814500
  0.337000, -9.924200
  0.339000,-10.021800
  0.341000,-10.108300
  0.343000,-10.184300
  0.345000,-10.250600
  0.347000,-10.307100
  0.349000,-10.353000
  0.351000,-10.389400
  0.353000,-10.416700
  0.355000,-10.433700
  0.357000,-10.442600
  0.359000,-10.444800
  0.361000,-10.438800
  0.363000,-10.424800
  0.365000,-10.403000
  0.367000,-10.374500
  0.369000,-10.340900
  0.371000,-10.301600
  0.373000,-10.257500
  0.375000,-10.208300
  0.377000,-10.153900
  0.379000,-10.094900
  0.381000,-10.032500
  0.383000, -9.966600
  0.385000, -9.897500
  0.387000, -9.825300
  0.389000, -9.750500
  0.391000, -9.673000
  0.393000, -9.592800
  0.395000, -9.510200
  0.397000, -9.425700
  0.399000, -9.339900
  0.401000, -9.252100
  0.403000, -9.162800
  0.405000, -9.071800
  0.407000, -8.979600
  0.409000, -8.886700
  0.411000, -8.792300
  0.413000, -8.696800
  0.415000, -8.600700
  0.417000, -8.504000
  0.419000, -8.406000
  0.421000, -8.306500
  0.423000, -8.206200
  0.425000, -8.105300
  0.427000, -8.003900
  0.429000, -7.901500
  0.431000, -7.798000
  0.433000, -7.694100
  0.435000, -7.589600
  0.437000, -7.483800
  0.439000, -7.377000
  0.441000, -7.269400
  0.443000, -7.160900
  0.445000, -7.051500
  0.447000, -6.940900
  0.449000, -6.829200
  0.451000, -6.716600
  0.453000, -6.602900
  0.455000, -6.488300
  0.457000, -6.372900
  0.459000, -6.256500
  0.461000, -6.139000
  0.463000, -6.020400
  0.465000, -5.901000
  0.467000, -5.780700
  0.469000, -5.659700
  0.471000, -5.537800
  0.473000, -5.415200
  0.475000, -5.291700
  0.477000, -5.167500
  0.479000, -5.042600
  0.481000, -4.916900
  0.483000, -4.790600
  0.485000, -4.663800
  0.487000, -4.536600
  0.489000, -4.408900
  0.491000, -4.281300
  0.493000, -4.153500
  0.495000, -4.025300
  0.497000, -3.897200
  0.499000, -3.769000
  0.501000, -3.641000
  0.503000, -3.513300
  0.505000, -3.386200
  0.507000, -3.259300
  0.509000, -3.132400
  0.511000, -3.006600
  0.513000, -2.882600
  0.515000, -2.759700
  0.517000, -2.637600
  0.519000, -2.516600
  0.521000, -2.396300
  0.523000, -2.277400
  0.525000, -2.160500
  0.527000, -2.045200
  0.529000, -1.931700
  0.531000, -1.819900
  0.533000, -1.710100
  0.535000, -1.602200
  0.537000, -1.496600
  0.539000, -1.393100
  0.541000, -1.292000
  0.543000, -1.193500
  0.545000, -1.097700
  0.547000, -1.004400
  0.549000, -0.913400
  0.551000, -0.825100
  0.553000, -0.739800
  0.555000, -0.657100
  0.557000, -0.577300
  0.559000, -0.500500
  0.561000, -0.426800
  0.563000, -0.356000
  0.565000, -0.288100
  0.567000, -0.223100
  0.569000, -0.161300
  0.571000, -0.102600
  0.573000, -0.047000
  0.575000,  0.005600
  0.577000,  0.055200
  0.579000,  0.101600
  0.581000,  0.145100
  0.583000,  0.185600
  0.585000,  0.223200
  0.587000,  0.258000
  0.589000,  0.289700
  0.591000,  0.318400
  0.593000,  0.344300
  0.595000,  0.367700
  0.597000,  0.388500
  0.599000,  0.406400
  0.601000,  0.421700
  0.603000,  0.434500
  0.605000,  0.445000
  0.607000,  0.453000
  0.609000,  0.458500
  0.611000,  0.461900
  0.613000,  0.463500
  0.615000,  0.463000
  0.617000,  0.460400
  0.619000,  0.455600
  0.621000,  0.448900
  0.623000,  0.440800
  0.625000,  0.431200
  0.627000,  0.419400
  0.629000,  0.406100
  0.631000,  0.391400
  0.633000,  0.375500
  0.635000,  0.358600
  0.637000,  0.340700
  0.639000,  0.321700
  0.641000,  0.301500
  0.643000,  0.280400
  0.645000,  0.258700
  0.647000,  0.236200
  0.649000,  0.212900
  0.651000,  0.189300
  0.653000,  0.165300
  0.655000,  0.140800
  0.657000,  0.116100
  0.659000,  0.091300
  0.661000,  0.066100
  0.663000,  0.041000
  0.665000,  0.015800
  0.667000, -0.009700
  0.669000, -0.035000
  0.671000, -0.060300
  0.673000, -0.085600
  0.675000, -0.110700
  0.677000, -0.135300
  0.679000, -0.159400
  0.681000, -0.183200
  0.683000, -0.206700
  0.685000, -0.229600
  0.687000, -0.252000
  0.689000, -0.274100
  0.691000, -0.295600
  0.693000, -0.316300
  0.695000, -0.336400
  0.697000, -0.355900
  0.699000, -0.374600
  0.701000, -0.392800
  0.703000, -0.410300
  0.705000, -0.427000
  0.707000, -0.443000
  0.709000, -0.458300
  0.711000, -0.472900
  0.713000, -0.486600
  0.715000, -0.499500
  0.717000, -0.511700
  0.719000, -0.523200
  0.721000, -0.533800
  0.723000, -0.543500
  0.725000, -0.552500
  0.727000, -0.560600
  0.729000, -0.568100
  0.731000, -0.574700
  0.733000, -0.580600
  0.735000, -0.585800
  0.737000, -0.590300
  0.739000, -0.593900
  0.741000, -0.596600
  0.743000, -0.598600
  0.745000, -0.600000
  0.747000, -0.600500
  0.749000, -0.600300
  0.751000, -0.599500
  0.753000, -0.598000
  0.755000, -0.595700
  0.757000, -0.592800
  0.759000, -0.589300
  0.761000, -0.585100
  0.763000, -0.580300
  0.765000, -0.574700
  0.767000, -0.568400
  0.769000, -0.561700
  0.771000, -0.554600
  0.773000, -0.546800
  0.775000, -0.538400
  0.777000, -0.529500
  0.779000, -0.520100
  0.781000, -0.510300
  0.783000, -0.500000
  0.785000, -0.489200
  0.787000, -0.478100
  0.789000, -0.466600
  0.791000, -0.454600
  0.793000, -0.442100
  0.795000, -0.429200
  0.797000, -0.416100
  0.799000, -0.402700
  0.801000, -0.389200
  0.803000, -0.375300
  0.805000, -0.361200
  0.807000, -0.346700
  0.809000, -0.332200
  0.811000, -0.317500
  0.813000, -0.302700
  0.815000, -0.288000
  0.817000, -0.273100
  0.819000, -0.258100
  0.821000, -0.243200
  0.823000, -0.228200
  0.825000, -0.213200
  0.827000, -0.198300
  0.829000, -0.183600
  0.831000, -0.168900
  0.833000, -0.154400
  0.835000, -0.140000
  0.837000, -0.125900
  0.839000, -0.112000
  0.841000, -0.098300
  0.843000, -0.084800
  0.845000, -0.071600
  0.847000, -0.058700
  0.849000, -0.046100
  0.851000, -0.033900
  0.853000, -0.022200
  0.855000, -0.010700
  0.857000,  0.000500
  0.859000,  0.011200
  0.861000,  0.021600
  0.863000,  0.031500
  0.865000,  0.041100
  0.867000,  0.050200
  0.869000,  0.058800
  0.871000,  0.067000
  0.873000,  0.074800
  0.875000,  0.082100
  0.877000,  0.089000
  0.879000,  0.095400
  0.881000,  0.101400
  0.883000,  0.106900
  0.885000,  0.112100
  0.887000,  0.116800
  0.889000,  0.121000
  0.891000,  0.124800
  0.893000,  0.128300
  0.895000,  0.131300
  0.897000,  0.133900
  0.899000,  0.136100
  0.901000,  0.137700
  0.903000,  0.139000
  0.905000,  0.139800
  0.907000,  0.140200
  0.909000,  0.140200
  0.911000,  0.140100
  0.913000,  0.139700
  0.915000,  0.139100
  0.917000,  0.138100
  0.919000,  0.136700
  0.921000,  0.135000
  0.923000,  0.133100
  0.925000,  0.130900
  0.927000,  0.128300
  0.929000,  0.125400
  0.931000,  0.122400
  0.933000,  0.119100
  0.935000,  0.115700
  0.937000,  0.112000
  0.939000,  0.108100
  0.941000,  0.104100
  0.943000,  0.100000
  0.945000,  0.095800
  0.947000,  0.091400
  0.949000,  0.086700
  0.951000,  0.081900
  0.953000,  0.077000
  0.955000,  0.072000
  0.957000,  0.066900
  0.959000,  0.061800
  0.961000,  0.056700
  0.963000,  0.051400
  0.965000,  0.046100
  0.967000,  0.040800
  0.969000,  0.035500
  0.971000,  0.030200
  0.973000,  0.024800
  0.975000,  0.019400
  0.977000,  0.014100
  0.979000,  0.008800
  0.981000,  0.003700
  0.983000, -0.001600
  0.985000, -0.006700
  0.987000, -0.011700
  0.989000, -0.016700
  0.991000, -0.021700
  0.993000, -0.026600
  0.995000, -0.031300
  0.997000, -0.035900
  0.999000, -0.040500
  1.001000, -0.044900
  1.003000, -0.049200
  1.005000, -0.053200
  1.007000, -0.057100
  1.009000, -0.060800
  1.011000, -0.064400
  1.013000, -0.067700
  1.015000, -0.070800
  1.017000, -0.073800
  1.019000, -0.076700
  1.021000, -0.079400
  1.023000, -0.081900
  1.025000, -0.084200
  1.027000, -0.086400
  1.029000, -0.088300
  1.031000, -0.090000
  1.033000, -0.091400
  1.035000, -0.092800
  1.037000, -0.094000
  1.039000, -0.095000
  1.041000, -0.095800
  1.043000, -0.096500
  1.045000, -0.097000
  1.047000, -0.097400
  1.049000, -0.097600
  1.051000, -0.097700
  1.053000, -0.097700
  1.055000, -0.097400
  1.057000, -0.097000
  1.059000, -0.096500
  1.061000, -0.095800
  1.063000, -0.095000
  1.065000, -0.094000
  1.067000, -0.093000
  1.069000, -0.091800
  1.071000, -0.090600
  1.073000, -0.089300
  1.075000, -0.087900
  1.077000, -0.086600
  1.079000, -0.085100
  1.081000, -0.083500
  1.083000, -0.081800
  1.085000, -0.080000
  1.087000, -0.078100
  1.089000, -0.076200
  1.091000, -0.074300
  1.093000, -0.072400
  1.095000, -0.070400
  1.097000, -0.068400
  1.099000, -0.066500
  1.101000, -0.064600
  1.103000, -0.062500
  1.105000, -0.060500
  1.107000, -0.058400
  1.109000, -0.056400
  1.111000, -0.054400
  1.113000, -0.052200
  1.115000, -0.050100
  1.117000, -0.047900
  1.119000, -0.045900
  1.121000, -0.043900
  1.123000, -0.041800
  1.125000, -0.039600
  1.127000, -0.037400
  1.129000, -0.035200
  1.131000, -0.033100
  1.133000, -0.031000
  1.135000, -0.028800
  1.137000, -0.026700
  1.139000, -0.024500
  1.141000, -0.022400
  1.143000, -0.020300
  1.145000, -0.018200
  1.147000, -0.016100
  1.149000, -0.014100
  1.151000, -0.012100
  1.153000, -0.010100
  1.155000, -0.008200
  1.157000, -0.006300
  1.159000, -0.004400
  1.161000, -0.002600
  1.163000, -0.000900
  1.165000,  0.000800
  1.167000,  0.002400
  1.169000,  0.003900
  1.171000,  0.005300
  1.173000,  0.006700
  1.175000,  0.008000
  1.177000,  0.009300
  1.179000,  0.010400
  1.181000,  0.011600
  1.183000,  0.012600
  1.185000,  0.013500
  1.187000,  0.014200
  1.189000,  0.014900
  1.191000,  0.015400
  1.193000,  0.015800
  1.195000,  0.016200
  1.197000,  0.016500
  1.199000,  0.016800
  1.201000,  0.017000
  1.203000,  0.016900
  1.205000,  0.016800
  1.207000,  0.016600
  1.209000,  0.016300
  1.211000,  0.016100
  1.213000,  0.015700
  1.215000,  0.015200
  1.217000,  0.014600
  1.219000,  0.013800
  1.221000,  0.013200
  1.223000,  0.012400
  1.225000,  0.011500
  1.227000,  0.010600
  1.229000,  0.009600
  1.231000,  0.008600
  1.233000,  0.007500
  1.235000,  0.006300
  1.237000,  0.005200
  1.239000,  0.004000
  1.241000,  0.002800
  1.243000,  0.001600
  1.245000,  0.000300
  1.247000, -0.000900
  1.249000, -0.002200
  1.251000, -0.003500
  1.253000, -0.004900
  1.255000, -0.006200
  1.257000, -0.007400
  1.259000, -0.008700
  1.261000, -0.010100
  1.263000, -0.011400
  1.265000, -0.012700
  1.267000, -0.013900
  1.269000, -0.015000
  1.271000, -0.016200
  1.273000, -0.017300
  1.275000, -0.018300
  1.277000, -0.019300
  1.279000, -0.020300
  1.281000, -0.021300
  1.283000, -0.022100
  1.285000, -0.023000
  1.287000, -0.023700
  1.289000, -0.024400
  1.291000, -0.025100
  1.293000, -0.025700
  1.295000, -0.026100
  1.297000, -0.026500
  1.299000, -0.026800
  1.301000, -0.027100
  1.303000, -0.027300
  1.305000, -0.027500
  1.307000, -0.027600
  1.309000, -0.027500
  1.311000, -0.027400
  1.313000, -0.027200
  1.315000, -0.027000
  1.317000, -0.026500
  1.319000, -0.026000
  1.321000, -0.025400
  1.323000, -0.024700
  1.325000, -0.024000
  1.327000, -0.023100
  1.329000, -0.022200
  1.331000, -0.021200
  1.333000, -0.020000
  1.335000, -0.018800
  1.337000, -0.017400
  1.339000, -0.016000
  1.341000, -0.014400
  1.343000, -0.012700
  1.345000, -0.011000
  1.347000, -0.009100
  1.349000, -0.007000
  1.351000, -0.004800
  1.353000, -0.002500
  1.355000, -0.000100
  1.357000,  0.002400
  1.359000,  0.005000
  1.361000,  0.007700
  1.363000,  0.010400
  1.365000,  0.013200
  1.367000,  0.016100
  1.369000,  0.019200
  1.371000,  0.022300
  1.373000,  0.025600
  1.375000,  0.028900
  1.377000,  0.032300
  1.379000,  0.035800
  1.381000,  0.039300
  1.383000,  0.042800
  1.385000,  0.046200
  1.387000,  0.049400
  1.389000,  0.052500
  1.391000,  0.055400
  1.393000,  0.058100
  1.395000,  0.060600
  1.397000,  0.062800
  1.399000,  0.064500
