# z (nm)   (kJ/mol)
  0.301000, 10.228200
  0.303000,  9.470300
  0.305000,  8.702600
  0.307000,  7.920900
  0.309000,  7.132100
  0.311000,  6.327100
  0.313000,  5.511800
  0.315000,  4.690600
  0.317000,  3.872000
  0.319000,  3.062600
  0.321000,  2.252400
  0.323000,  1.443200
  0.325000,  0.646900
  0.327000, -0.129300
  0.329000, -0.899800
  0.331000, -1.667900
  0.333000, -2.422100
  0.335000, -3.160300
  0.337000, -3.887600
  0.339000, -4.606900
  0.341000, -5.305400
  0.343000, -5.996100
  0.345000, -6.684500
  0.347000, -7.365200
  0.349000, -8.057400
  0.351000, -8.753000
  0.353000, -9.448500
  0.355000,-10.140900
  0.357000,-10.824100
  0.359000,-11.498900
  0.361000,-12.166700
  0.363000,-12.822300
  0.365000,-13.458400
  0.367000,-14.078000
  0.369000,-14.678700
  0.371000,-15.262100
  0.373000,-15.825400
  0.375000,-16.364700
  0.377000,-16.886500
  0.379000,-17.389800
  0.381000,-17.870000
  0.383000,-18.325500
  0.385000,-18.763900
  0.387000,-19.184700
  0.389000,-19.582600
  0.391000,-19.959100
  0.393000,-20.315400
  0.395000,-20.652300
  0.397000,-20.967700
  0.399000,-21.262000
  0.401000,-21.535900
  0.403000,-21.789600
  0.405000,-22.024700
  0.407000,-22.242700
  0.409000,-22.443400
  0.411000,-22.625600
  0.413000,-22.789400
  0.415000,-22.936200
  0.417000,-23.065500
  0.419000,-23.177000
  0.421000,-23.274100
  0.423000,-23.355700
  0.425000,-23.421600
  0.427000,-23.473800
  0.429000,-23.512100
  0.431000,-23.537800
  0.433000,-23.550800
  0.435000,-23.552600
  0.437000,-23.542900
  0.439000,-23.520800
  0.441000,-23.487600
  0.443000,-23.443700
  0.445000,-23.393100
  0.447000,-23.336800
  0.449000,-23.272100
  0.451000,-23.197900
  0.453000,-23.117200
  0.455000,-23.032600
  0.457000,-22.941200
  0.459000,-22.843900
  0.461000,-22.742800
  0.463000,-22.637500
  0.465000,-22.529800
  0.467000,-22.418500
  0.469000,-22.302500
  0.471000,-22.183300
  0.473000,-22.062000
  0.475000,-21.938300
  0.477000,-21.811400
  0.479000,-21.682900
  0.481000,-21.553000
  0.483000,-21.420700
  0.485000,-21.285600
  0.487000,-21.148700
  0.489000,-21.010600
  0.491000,-20.870100
  0.493000,-20.726900
  0.495000,-20.582400
  0.497000,-20.436100
  0.499000,-20.286400
  0.501000,-20.134100
  0.503000,-19.979400
  0.505000,-19.822000
  0.507000,-19.662500
  0.509000,-19.500400
  0.511000,-19.335400
  0.513000,-19.167000
  0.515000,-18.995500
  0.517000,-18.820400
  0.519000,-18.642400
  0.521000,-18.461700
  0.523000,-18.277700
  0.525000,-18.090800
  0.527000,-17.900500
  0.529000,-17.707400
  0.531000,-17.511300
  0.533000,-17.312000
  0.535000,-17.110100
  0.537000,-16.905000
  0.539000,-16.696800
  0.541000,-16.486000
  0.543000,-16.272800
  0.545000,-16.057500
  0.547000,-15.840300
  0.549000,-15.621100
  0.551000,-15.399900
  0.553000,-15.177000
  0.555000,-14.953000
  0.557000,-14.727500
  0.559000,-14.500300
  0.561000,-14.272500
  0.563000,-14.044200
  0.565000,-13.815100
  0.567000,-13.585700
  0.569000,-13.356400
  0.571000,-13.126700
  0.573000,-12.897300
  0.575000,-12.668300
  0.577000,-12.440100
  0.579000,-12.212700
  0.581000,-11.986200
  0.583000,-11.761200
  0.585000,-11.537600
  0.587000,-11.315900
  0.589000,-11.095900
  0.591000,-10.877000
  0.593000,-10.659900
  0.595000,-10.445000
  0.597000,-10.232100
  0.599000,-10.021700
  0.601000, -9.813800
  0.603000, -9.607900
  0.605000, -9.404200
  0.607000, -9.203300
  0.609000, -9.005300
  0.611000, -8.810300
  0.613000, -8.617800
  0.615000, -8.428100
  0.617000, -8.241800
  0.619000, -8.057300
  0.621000, -7.875800
  0.623000, -7.698200
  0.625000, -7.523400
  0.627000, -7.351800
  0.629000, -7.183300
  0.631000, -7.018300
  0.633000, -6.856100
  0.635000, -6.696500
  0.637000, -6.540300
  0.639000, -6.387200
  0.641000, -6.237800
  0.643000, -6.091000
  0.645000, -5.947500
  0.647000, -5.807700
  0.649000, -5.670900
  0.651000, -5.537000
  0.653000, -5.405900
  0.655000, -5.279100
  0.657000, -5.156200
  0.659000, -5.036000
  0.661000, -4.919200
  0.663000, -4.805200
  0.665000, -4.694400
  0.667000, -4.586500
  0.669000, -4.482200
  0.671000, -4.380900
  0.673000, -4.282200
  0.675000, -4.187100
  0.677000, -4.095700
  0.679000, -4.008600
  0.681000, -3.924200
  0.683000, -3.841800
  0.685000, -3.762700
  0.687000, -3.686400
  0.689000, -3.613000
  0.691000, -3.542700
  0.693000, -3.475000
  0.695000, -3.409800
  0.697000, -3.347800
  0.699000, -3.288400
  0.701000, -3.231000
  0.703000, -3.176900
  0.705000, -3.125800
  0.707000, -3.076900
  0.709000, -3.030300
  0.711000, -2.986100
  0.713000, -2.944200
  0.715000, -2.904500
  0.717000, -2.866700
  0.719000, -2.831200
  0.721000, -2.797500
  0.723000, -2.765500
  0.725000, -2.735300
  0.727000, -2.706400
  0.729000, -2.679100
  0.731000, -2.653500
  0.733000, -2.629100
  0.735000, -2.606100
  0.737000, -2.584700
  0.739000, -2.564400
  0.741000, -2.545100
  0.743000, -2.526900
  0.745000, -2.509800
  0.747000, -2.493600
  0.749000, -2.477900
  0.751000, -2.462800
  0.753000, -2.448600
  0.755000, -2.435000
  0.757000, -2.421800
  0.759000, -2.409200
  0.761000, -2.397100
  0.763000, -2.385200
  0.765000, -2.373600
  0.767000, -2.362400
  0.769000, -2.351300
  0.771000, -2.340300
  0.773000, -2.329400
  0.775000, -2.318600
  0.777000, -2.307700
  0.779000, -2.296800
  0.781000, -2.286200
  0.783000, -2.275700
  0.785000, -2.264900
  0.787000, -2.254000
  0.789000, -2.243100
  0.791000, -2.231900
  0.793000, -2.220400
  0.795000, -2.208700
  0.797000, -2.197000
  0.799000, -2.184900
  0.801000, -2.172500
  0.803000, -2.159500
  0.805000, -2.146400
  0.807000, -2.133000
  0.809000, -2.119200
  0.811000, -2.105200
  0.813000, -2.090900
  0.815000, -2.076300
  0.817000, -2.061500
  0.819000, -2.046400
  0.821000, -2.031000
  0.823000, -2.015000
  0.825000, -1.998500
  0.827000, -1.981600
  0.829000, -1.964500
  0.831000, -1.947000
  0.833000, -1.929100
  0.835000, -1.910800
  0.837000, -1.892300
  0.839000, -1.873700
  0.841000, -1.854600
  0.843000, -1.835400
  0.845000, -1.816000
  0.847000, -1.796500
  0.849000, -1.776700
  0.851000, -1.756500
  0.853000, -1.736200
  0.855000, -1.715700
  0.857000, -1.694900
  0.859000, -1.674000
  0.861000, -1.653200
  0.863000, -1.632200
  0.865000, -1.611200
  0.867000, -1.589800
  0.869000, -1.567900
  0.871000, -1.546100
  0.873000, -1.524400
  0.875000, -1.502300
  0.877000, -1.480300
  0.879000, -1.458400
  0.881000, -1.436900
  0.883000, -1.415400
  0.885000, -1.393800
  0.887000, -1.372100
  0.889000, -1.350200
  0.891000, -1.328400
  0.893000, -1.306900
  0.895000, -1.285200
  0.897000, -1.263600
  0.899000, -1.242000
  0.901000, -1.220400
  0.903000, -1.199100
  0.905000, -1.178200
  0.907000, -1.157500
  0.909000, -1.136500
  0.911000, -1.115300
  0.913000, -1.094200
  0.915000, -1.073800
  0.917000, -1.053600
  0.919000, -1.033300
  0.921000, -1.013000
  0.923000, -0.992700
  0.925000, -0.972600
  0.927000, -0.952500
  0.929000, -0.932800
  0.931000, -0.913500
  0.933000, -0.894200
  0.935000, -0.875000
  0.937000, -0.856100
  0.939000, -0.837300
  0.941000, -0.818900
  0.943000, -0.800700
  0.945000, -0.782700
  0.947000, -0.765400
  0.949000, -0.748100
  0.951000, -0.730800
  0.953000, -0.714000
  0.955000, -0.697700
  0.957000, -0.681600
  0.959000, -0.665900
  0.961000, -0.650400
  0.963000, -0.635300
  0.965000, -0.620600
  0.967000, -0.606200
  0.969000, -0.592200
  0.971000, -0.578500
  0.973000, -0.565600
  0.975000, -0.553100
  0.977000, -0.540800
  0.979000, -0.528700
  0.981000, -0.517000
  0.983000, -0.505700
  0.985000, -0.495000
  0.987000, -0.484500
  0.989000, -0.474600
  0.991000, -0.465300
  0.993000, -0.456400
  0.995000, -0.447700
  0.997000, -0.439600
  0.999000, -0.432000
  1.001000, -0.424800
  1.003000, -0.417900
  1.005000, -0.411400
  1.007000, -0.405100
  1.009000, -0.399100
  1.011000, -0.393600
  1.013000, -0.388500
  1.015000, -0.383500
  1.017000, -0.379000
  1.019000, -0.374700
  1.021000, -0.370900
  1.023000, -0.367500
  1.025000, -0.364300
  1.027000, -0.361200
  1.029000, -0.358300
  1.031000, -0.355500
  1.033000, -0.352700
  1.035000, -0.350100
  1.037000, -0.347900
  1.039000, -0.345900
  1.041000, -0.344100
  1.043000, -0.342100
  1.045000, -0.340300
  1.047000, -0.338600
  1.049000, -0.336900
  1.051000, -0.335100
  1.053000, -0.333400
  1.055000, -0.331800
  1.057000, -0.330300
  1.059000, -0.328800
  1.061000, -0.327200
  1.063000, -0.325700
  1.065000, -0.324100
  1.067000, -0.322400
  1.069000, -0.320800
  1.071000, -0.319100
  1.073000, -0.317500
  1.075000, -0.315900
  1.077000, -0.314200
  1.079000, -0.312600
  1.081000, -0.311000
  1.083000, -0.309200
  1.085000, -0.307400
  1.087000, -0.305500
  1.089000, -0.303600
  1.091000, -0.301800
  1.093000, -0.299800
  1.095000, -0.297700
  1.097000, -0.295600
  1.099000, -0.293400
  1.101000, -0.291300
  1.103000, -0.289200
  1.105000, -0.287000
  1.107000, -0.284600
  1.109000, -0.282300
  1.111000, -0.280300
  1.113000, -0.278100
  1.115000, -0.275900
  1.117000, -0.273900
  1.119000, -0.272100
  1.121000, -0.270100
  1.123000, -0.268100
  1.125000, -0.266000
  1.127000, -0.264100
  1.129000, -0.262200
  1.131000, -0.260300
  1.133000, -0.258400
  1.135000, -0.256400
  1.137000, -0.254500
  1.139000, -0.252600
  1.141000, -0.250800
  1.143000, -0.248800
  1.145000, -0.246800
  1.147000, -0.244900
  1.149000, -0.243000
  1.151000, -0.241100
  1.153000, -0.239100
  1.155000, -0.237300
  1.157000, -0.235300
  1.159000, -0.233200
  1.161000, -0.231400
  1.163000, -0.229600
  1.165000, -0.227600
  1.167000, -0.225600
  1.169000, -0.223600
  1.171000, -0.221500
  1.173000, -0.219400
  1.175000, -0.217300
  1.177000, -0.215000
  1.179000, -0.212700
  1.181000, -0.210400
  1.183000, -0.207900
  1.185000, -0.205400
  1.187000, -0.202900
  1.189000, -0.200300
  1.191000, -0.197500
  1.193000, -0.194500
  1.195000, -0.191600
  1.197000, -0.188600
  1.199000, -0.185400
  1.201000, -0.182200
  1.203000, -0.178900
  1.205000, -0.175600
  1.207000, -0.172200
  1.209000, -0.168800
  1.211000, -0.165300
  1.213000, -0.161800
  1.215000, -0.158300
  1.217000, -0.154700
  1.219000, -0.151000
  1.221000, -0.147300
  1.223000, -0.143500
  1.225000, -0.139800
  1.227000, -0.136100
  1.229000, -0.132400
  1.231000, -0.128600
  1.233000, -0.124800
  1.235000, -0.120900
  1.237000, -0.117100
  1.239000, -0.113400
  1.241000, -0.109600
  1.243000, -0.105800
  1.245000, -0.102000
  1.247000, -0.098100
  1.249000, -0.094300
  1.251000, -0.090500
  1.253000, -0.086700
  1.255000, -0.083000
  1.257000, -0.079300
  1.259000, -0.075500
  1.261000, -0.071800
  1.263000, -0.068000
  1.265000, -0.064300
  1.267000, -0.060700
  1.269000, -0.057000
  1.271000, -0.053400
  1.273000, -0.049800
  1.275000, -0.046300
  1.277000, -0.042800
  1.279000, -0.039200
  1.281000, -0.035600
  1.283000, -0.032100
  1.285000, -0.028500
  1.287000, -0.025000
  1.289000, -0.021300
  1.291000, -0.017600
  1.293000, -0.013800
  1.295000, -0.010100
  1.297000, -0.006400
  1.299000, -0.002600
  1.301000,  0.001100
  1.303000,  0.004800
  1.305000,  0.008600
  1.307000,  0.012400
  1.309000,  0.016400
  1.311000,  0.020300
  1.313000,  0.024300
  1.315000,  0.028300
  1.317000,  0.032300
  1.319000,  0.036300
  1.321000,  0.040400
  1.323000,  0.044600
  1.325000,  0.048800
  1.327000,  0.053100
  1.329000,  0.057400
  1.331000,  0.061800
  1.333000,  0.066100
  1.335000,  0.070300
  1.337000,  0.074400
  1.339000,  0.078600
  1.341000,  0.082800
  1.343000,  0.086900
  1.345000,  0.090900
  1.347000,  0.095100
  1.349000,  0.099100
  1.351000,  0.102900
  1.353000,  0.106800
  1.355000,  0.110700
  1.357000,  0.114600
  1.359000,  0.118500
  1.361000,  0.122300
  1.363000,  0.126000
  1.365000,  0.129400
  1.367000,  0.132900
  1.369000,  0.136400
  1.371000,  0.139900
  1.373000,  0.143300
  1.375000,  0.146600
  1.377000,  0.149900
  1.379000,  0.152900
  1.381000,  0.155700
  1.383000,  0.158400
  1.385000,  0.161200
  1.387000,  0.163600
  1.389000,  0.165600
  1.391000,  0.167500
  1.393000,  0.168900
  1.395000,  0.170000
  1.397000,  0.170900
  1.399000,  0.171600
