# z (nm)   (kJ/mol)
  0.261000,  3.772900
  0.267000,  2.298800
  0.269000,  1.549300
  0.271000,  0.780600
  0.273000,  0.064300
  0.275000, -0.647900
  0.277000, -1.376400
  0.279000, -2.105500
  0.281000, -2.830200
  0.283000, -3.540100
  0.285000, -4.241800
  0.287000, -4.937300
  0.289000, -5.631200
  0.291000, -6.313900
  0.293000, -6.975800
  0.295000, -7.612800
  0.297000, -8.231100
  0.299000, -8.837200
  0.301000, -9.428800
  0.303000,-10.001800
  0.305000,-10.553700
  0.307000,-11.088500
  0.309000,-11.605400
  0.311000,-12.102200
  0.313000,-12.581700
  0.315000,-13.038300
  0.317000,-13.473800
  0.319000,-13.890200
  0.321000,-14.283700
  0.323000,-14.658100
  0.325000,-15.013100
  0.327000,-15.348500
  0.329000,-15.663900
  0.331000,-15.958000
  0.333000,-16.232200
  0.335000,-16.485000
  0.337000,-16.716800
  0.339000,-16.929300
  0.341000,-17.120900
  0.343000,-17.292700
  0.345000,-17.445600
  0.347000,-17.578500
  0.349000,-17.691900
  0.351000,-17.786400
  0.353000,-17.861900
  0.355000,-17.920600
  0.357000,-17.962800
  0.359000,-17.987800
  0.361000,-17.999300
  0.363000,-17.997400
  0.365000,-17.979400
  0.367000,-17.947900
  0.369000,-17.905900
  0.371000,-17.850000
  0.373000,-17.779900
  0.375000,-17.698400
  0.377000,-17.606600
  0.379000,-17.505200
  0.381000,-17.395400
  0.383000,-17.278400
  0.385000,-17.155100
  0.387000,-17.027600
  0.389000,-16.895700
  0.391000,-16.756400
  0.393000,-16.612300
  0.395000,-16.466400
  0.397000,-16.317700
  0.399000,-16.166700
  0.401000,-16.014400
  0.403000,-15.861400
  0.405000,-15.706300
  0.407000,-15.550200
  0.409000,-15.393800
  0.411000,-15.237400
  0.413000,-15.081300
  0.415000,-14.925300
  0.417000,-14.770000
  0.419000,-14.615800
  0.421000,-14.462500
  0.423000,-14.310500
  0.425000,-14.159600
  0.427000,-14.009700
  0.429000,-13.861100
  0.431000,-13.713700
  0.433000,-13.567300
  0.435000,-13.422500
  0.437000,-13.278600
  0.439000,-13.135000
  0.441000,-12.992500
  0.443000,-12.851000
  0.445000,-12.710700
  0.447000,-12.571000
  0.449000,-12.432300
  0.451000,-12.295100
  0.453000,-12.158500
  0.455000,-12.022700
  0.457000,-11.887700
  0.459000,-11.753000
  0.461000,-11.618400
  0.463000,-11.483900
  0.465000,-11.349900
  0.467000,-11.216400
  0.469000,-11.083700
  0.471000,-10.951100
  0.473000,-10.818100
  0.475000,-10.685200
  0.477000,-10.552200
  0.479000,-10.419000
  0.481000,-10.286500
  0.483000,-10.154200
  0.485000,-10.022000
  0.487000, -9.889000
  0.489000, -9.755200
  0.491000, -9.622000
  0.493000, -9.489300
  0.495000, -9.356300
  0.497000, -9.223200
  0.499000, -9.090800
  0.501000, -8.958200
  0.503000, -8.825400
  0.505000, -8.692500
  0.507000, -8.559500
  0.509000, -8.426600
  0.511000, -8.293700
  0.513000, -8.160500
  0.515000, -8.027200
  0.517000, -7.894000
  0.519000, -7.760800
  0.521000, -7.627400
  0.523000, -7.494100
  0.525000, -7.360700
  0.527000, -7.227300
  0.529000, -7.093900
  0.531000, -6.960300
  0.533000, -6.826700
  0.535000, -6.693300
  0.537000, -6.560100
  0.539000, -6.426800
  0.541000, -6.293500
  0.543000, -6.160100
  0.545000, -6.026800
  0.547000, -5.893500
  0.549000, -5.760500
  0.551000, -5.627900
  0.553000, -5.495400
  0.555000, -5.363500
  0.557000, -5.231900
  0.559000, -5.100500
  0.561000, -4.969300
  0.563000, -4.839100
  0.565000, -4.709700
  0.567000, -4.580800
  0.569000, -4.452900
  0.571000, -4.326000
  0.573000, -4.199400
  0.575000, -4.073500
  0.577000, -3.948900
  0.579000, -3.825700
  0.581000, -3.703600
  0.583000, -3.583200
  0.585000, -3.463800
  0.587000, -3.345500
  0.589000, -3.229100
  0.591000, -3.114700
  0.593000, -3.002200
  0.595000, -2.891500
  0.597000, -2.782300
  0.599000, -2.675300
  0.601000, -2.571000
  0.603000, -2.468600
  0.605000, -2.368200
  0.607000, -2.270500
  0.609000, -2.175600
  0.611000, -2.082900
  0.613000, -1.992900
  0.615000, -1.906100
  0.617000, -1.821700
  0.619000, -1.739600
  0.621000, -1.660300
  0.623000, -1.584000
  0.625000, -1.510800
  0.627000, -1.440500
  0.629000, -1.373200
  0.631000, -1.308500
  0.633000, -1.246600
  0.635000, -1.187800
  0.637000, -1.131900
  0.639000, -1.079300
  0.641000, -1.029800
  0.643000, -0.983100
  0.645000, -0.939500
  0.647000, -0.898500
  0.649000, -0.860200
  0.651000, -0.824700
  0.653000, -0.791700
  0.655000, -0.761200
  0.657000, -0.733600
  0.659000, -0.708500
  0.661000, -0.685600
  0.663000, -0.665000
  0.665000, -0.646500
  0.667000, -0.630500
  0.669000, -0.617000
  0.671000, -0.605000
  0.673000, -0.595000
  0.675000, -0.586900
  0.677000, -0.580500
  0.679000, -0.575900
  0.681000, -0.572800
  0.683000, -0.570900
  0.685000, -0.570200
  0.687000, -0.571000
  0.689000, -0.573000
  0.691000, -0.576000
  0.693000, -0.579900
  0.695000, -0.584900
  0.697000, -0.590700
  0.699000, -0.597300
  0.701000, -0.604500
  0.703000, -0.612200
  0.705000, -0.620400
  0.707000, -0.629100
  0.709000, -0.637800
  0.711000, -0.646900
  0.713000, -0.656300
  0.715000, -0.665900
  0.717000, -0.675700
  0.719000, -0.685500
  0.721000, -0.695300
  0.723000, -0.705000
  0.725000, -0.714700
  0.727000, -0.724200
  0.729000, -0.733400
  0.731000, -0.742300
  0.733000, -0.750900
  0.735000, -0.759100
  0.737000, -0.767100
  0.739000, -0.775000
  0.741000, -0.782700
  0.743000, -0.789900
  0.745000, -0.797000
  0.747000, -0.803500
  0.749000, -0.809500
  0.751000, -0.815200
  0.753000, -0.820200
  0.755000, -0.824800
  0.757000, -0.829000
  0.759000, -0.832800
  0.761000, -0.836200
  0.763000, -0.839100
  0.765000, -0.841500
  0.767000, -0.843500
  0.769000, -0.845200
  0.771000, -0.846400
  0.773000, -0.847100
  0.775000, -0.847200
  0.777000, -0.847000
  0.779000, -0.846400
  0.781000, -0.845300
  0.783000, -0.843700
  0.785000, -0.841700
  0.787000, -0.839200
  0.789000, -0.836400
  0.791000, -0.833200
  0.793000, -0.829500
  0.795000, -0.825300
  0.797000, -0.820800
  0.799000, -0.815800
  0.801000, -0.810300
  0.803000, -0.804700
  0.805000, -0.798600
  0.807000, -0.791800
  0.809000, -0.784800
  0.811000, -0.777300
  0.813000, -0.769400
  0.815000, -0.761300
  0.817000, -0.752700
  0.819000, -0.743900
  0.821000, -0.734600
  0.823000, -0.724900
  0.825000, -0.714700
  0.827000, -0.704300
  0.829000, -0.693600
  0.831000, -0.682600
  0.833000, -0.671300
  0.835000, -0.659800
  0.837000, -0.648100
  0.839000, -0.636100
  0.841000, -0.624000
  0.843000, -0.611600
  0.845000, -0.599000
  0.847000, -0.586000
  0.849000, -0.572900
  0.851000, -0.559700
  0.853000, -0.546400
  0.855000, -0.532900
  0.857000, -0.519400
  0.859000, -0.505900
  0.861000, -0.492400
  0.863000, -0.478800
  0.865000, -0.465300
  0.867000, -0.451800
  0.869000, -0.438200
  0.871000, -0.424800
  0.873000, -0.411600
  0.875000, -0.398500
  0.877000, -0.385300
  0.879000, -0.372200
  0.881000, -0.359400
  0.883000, -0.346700
  0.885000, -0.334100
  0.887000, -0.321800
  0.889000, -0.309700
  0.891000, -0.297900
  0.893000, -0.286400
  0.895000, -0.275100
  0.897000, -0.264100
  0.899000, -0.253400
  0.901000, -0.242800
  0.903000, -0.232600
  0.905000, -0.222800
  0.907000, -0.213200
  0.909000, -0.203700
  0.911000, -0.194700
  0.913000, -0.185900
  0.915000, -0.177500
  0.917000, -0.169300
  0.919000, -0.161400
  0.921000, -0.153900
  0.923000, -0.146900
  0.925000, -0.140000
  0.927000, -0.133500
  0.929000, -0.127200
  0.931000, -0.121200
  0.933000, -0.115500
  0.935000, -0.110300
  0.937000, -0.105500
  0.939000, -0.101000
  0.941000, -0.096500
  0.943000, -0.092300
  0.945000, -0.088600
  0.947000, -0.085200
  0.949000, -0.082100
  0.951000, -0.079300
  0.953000, -0.076700
  0.955000, -0.074500
  0.957000, -0.072400
  0.959000, -0.070700
  0.961000, -0.069300
  0.963000, -0.068200
  0.965000, -0.067400
  0.967000, -0.066800
  0.969000, -0.066500
  0.971000, -0.066300
  0.973000, -0.066400
  0.975000, -0.066700
  0.977000, -0.067100
  0.979000, -0.067700
  0.981000, -0.068700
  0.983000, -0.069900
  0.985000, -0.071200
  0.987000, -0.072600
  0.989000, -0.074200
  0.991000, -0.075900
  0.993000, -0.077800
  0.995000, -0.079800
  0.997000, -0.082000
  0.999000, -0.084400
  1.001000, -0.086800
  1.003000, -0.089300
  1.005000, -0.092000
  1.007000, -0.094700
  1.009000, -0.097500
  1.011000, -0.100400
  1.013000, -0.103200
  1.015000, -0.105900
  1.017000, -0.108700
  1.019000, -0.111400
  1.021000, -0.114400
  1.023000, -0.117300
  1.025000, -0.120200
  1.027000, -0.123100
  1.029000, -0.126000
  1.031000, -0.128900
  1.033000, -0.131500
  1.035000, -0.134100
  1.037000, -0.136600
  1.039000, -0.139200
  1.041000, -0.141700
  1.043000, -0.144000
  1.045000, -0.146300
  1.047000, -0.148400
  1.049000, -0.150400
  1.051000, -0.152300
  1.053000, -0.154100
  1.055000, -0.155800
  1.057000, -0.157400
  1.059000, -0.159000
  1.061000, -0.160400
  1.063000, -0.161600
  1.065000, -0.162700
  1.067000, -0.163800
  1.069000, -0.164700
  1.071000, -0.165400
  1.073000, -0.165900
  1.075000, -0.166300
  1.077000, -0.166600
  1.079000, -0.166800
  1.081000, -0.166800
  1.083000, -0.166800
  1.085000, -0.166800
  1.087000, -0.166600
  1.089000, -0.166300
  1.091000, -0.165900
  1.093000, -0.165500
  1.095000, -0.164900
  1.097000, -0.164200
  1.099000, -0.163500
  1.101000, -0.162800
  1.103000, -0.161900
  1.105000, -0.161000
  1.107000, -0.160100
  1.109000, -0.159100
  1.111000, -0.158100
  1.113000, -0.157000
  1.115000, -0.155800
  1.117000, -0.154700
  1.119000, -0.153500
  1.121000, -0.152400
  1.123000, -0.151300
  1.125000, -0.150200
  1.127000, -0.149000
  1.129000, -0.147600
  1.131000, -0.146200
  1.133000, -0.144900
  1.135000, -0.143500
  1.137000, -0.142100
  1.139000, -0.140700
  1.141000, -0.139200
  1.143000, -0.137700
  1.145000, -0.136200
  1.147000, -0.134600
  1.149000, -0.133000
  1.151000, -0.131400
  1.153000, -0.129900
  1.155000, -0.128200
  1.157000, -0.126400
  1.159000, -0.124500
  1.161000, -0.122600
  1.163000, -0.120700
  1.165000, -0.118800
  1.167000, -0.117000
  1.169000, -0.115000
  1.171000, -0.112900
  1.173000, -0.110700
  1.175000, -0.108500
  1.177000, -0.106200
  1.179000, -0.103900
  1.181000, -0.101600
  1.183000, -0.099300
  1.185000, -0.096900
  1.187000, -0.094500
  1.189000, -0.092200
  1.191000, -0.089900
  1.193000, -0.087500
  1.195000, -0.085100
  1.197000, -0.082600
  1.199000, -0.080000
  1.201000, -0.077500
  1.203000, -0.074900
  1.205000, -0.072400
  1.207000, -0.070000
  1.209000, -0.067500
  1.211000, -0.064900
  1.213000, -0.062300
  1.215000, -0.059800
  1.217000, -0.057300
  1.219000, -0.054900
  1.221000, -0.052400
  1.223000, -0.049800
  1.225000, -0.047300
  1.227000, -0.044800
  1.229000, -0.042400
  1.231000, -0.040100
  1.233000, -0.037800
  1.235000, -0.035500
  1.237000, -0.033100
  1.239000, -0.030800
  1.241000, -0.028400
  1.243000, -0.026000
  1.245000, -0.023500
  1.247000, -0.021200
  1.249000, -0.019000
  1.251000, -0.016800
  1.253000, -0.014400
  1.255000, -0.012300
  1.257000, -0.010200
  1.259000, -0.008000
  1.261000, -0.005800
  1.263000, -0.003700
  1.265000, -0.001600
  1.267000,  0.000300
  1.269000,  0.002200
  1.271000,  0.004100
  1.273000,  0.006000
  1.275000,  0.007800
  1.277000,  0.009500
  1.279000,  0.011000
  1.281000,  0.012400
  1.283000,  0.013700
  1.285000,  0.015000
  1.287000,  0.016300
  1.289000,  0.017400
  1.291000,  0.018400
  1.293000,  0.019300
  1.295000,  0.020200
  1.297000,  0.020900
  1.299000,  0.021500
  1.301000,  0.022000
  1.303000,  0.022400
  1.305000,  0.022700
  1.307000,  0.022900
  1.309000,  0.022900
  1.311000,  0.022800
  1.313000,  0.022700
  1.315000,  0.022500
  1.317000,  0.022200
  1.319000,  0.021800
  1.321000,  0.021400
  1.323000,  0.020900
  1.325000,  0.020200
  1.327000,  0.019600
  1.329000,  0.018900
  1.331000,  0.018300
  1.333000,  0.017600
  1.335000,  0.016900
  1.337000,  0.016200
  1.339000,  0.015500
  1.341000,  0.014900
  1.343000,  0.014300
  1.345000,  0.013800
  1.347000,  0.013400
  1.349000,  0.013200
  1.351000,  0.013000
  1.353000,  0.012900
  1.355000,  0.013000
  1.357000,  0.013200
  1.359000,  0.013500
  1.361000,  0.014000
  1.363000,  0.014600
  1.365000,  0.015500
  1.367000,  0.016600
  1.369000,  0.017700
  1.371000,  0.019000
  1.373000,  0.020500
  1.375000,  0.022000
  1.377000,  0.023700
  1.379000,  0.025600
  1.381000,  0.027500
  1.383000,  0.029700
  1.385000,  0.032000
  1.387000,  0.034500
  1.389000,  0.037000
  1.391000,  0.039400
  1.393000,  0.041600
  1.395000,  0.043800
  1.397000,  0.046000
  1.399000,  0.048300
