# z (nm)   (kJ/mol)
  0.263000, -1.175600
  0.265000, -1.659800
  0.267000, -2.086500
  0.269000, -2.507000
  0.271000, -2.976200
  0.273000, -3.442900
  0.275000, -3.893500
  0.277000, -4.339600
  0.279000, -4.792900
  0.281000, -5.246700
  0.283000, -5.698900
  0.285000, -6.147300
  0.287000, -6.585000
  0.289000, -7.017600
  0.291000, -7.450500
  0.293000, -7.878200
  0.295000, -8.299100
  0.297000, -8.710700
  0.299000, -9.113000
  0.301000, -9.509400
  0.303000, -9.897000
  0.305000,-10.276600
  0.307000,-10.647500
  0.309000,-11.006100
  0.311000,-11.353400
  0.313000,-11.688800
  0.315000,-12.014600
  0.317000,-12.330500
  0.319000,-12.630200
  0.321000,-12.917000
  0.323000,-13.192600
  0.325000,-13.454400
  0.327000,-13.702000
  0.329000,-13.935800
  0.331000,-14.155000
  0.333000,-14.360100
  0.335000,-14.551400
  0.337000,-14.728600
  0.339000,-14.891700
  0.341000,-15.041200
  0.343000,-15.177300
  0.345000,-15.299700
  0.347000,-15.408900
  0.349000,-15.505000
  0.351000,-15.588400
  0.353000,-15.660500
  0.355000,-15.719500
  0.357000,-15.765400
  0.359000,-15.800200
  0.361000,-15.826000
  0.363000,-15.840000
  0.365000,-15.843200
  0.367000,-15.840300
  0.369000,-15.827800
  0.371000,-15.806000
  0.373000,-15.773900
  0.375000,-15.732300
  0.377000,-15.683700
  0.379000,-15.628300
  0.381000,-15.567800
  0.383000,-15.502400
  0.385000,-15.431600
  0.387000,-15.355800
  0.389000,-15.275500
  0.391000,-15.189300
  0.393000,-15.099900
  0.395000,-15.008300
  0.397000,-14.913400
  0.399000,-14.816000
  0.401000,-14.715400
  0.403000,-14.611800
  0.405000,-14.506600
  0.407000,-14.400000
  0.409000,-14.292700
  0.411000,-14.185300
  0.413000,-14.076800
  0.415000,-13.967300
  0.417000,-13.857700
  0.419000,-13.747600
  0.421000,-13.636900
  0.423000,-13.525900
  0.425000,-13.414900
  0.427000,-13.304500
  0.429000,-13.194400
  0.431000,-13.083800
  0.433000,-12.972900
  0.435000,-12.862700
  0.437000,-12.752500
  0.439000,-12.642400
  0.441000,-12.532400
  0.443000,-12.422200
  0.445000,-12.312000
  0.447000,-12.201600
  0.449000,-12.090900
  0.451000,-11.980100
  0.453000,-11.869800
  0.455000,-11.759500
  0.457000,-11.648800
  0.459000,-11.538000
  0.461000,-11.426300
  0.463000,-11.314300
  0.465000,-11.202100
  0.467000,-11.089300
  0.469000,-10.976000
  0.471000,-10.862100
  0.473000,-10.747700
  0.475000,-10.632800
  0.477000,-10.517300
  0.479000,-10.401200
  0.481000,-10.284700
  0.483000,-10.167800
  0.485000,-10.049900
  0.487000, -9.931500
  0.489000, -9.812300
  0.491000, -9.692400
  0.493000, -9.571700
  0.495000, -9.450500
  0.497000, -9.328900
  0.499000, -9.206400
  0.501000, -9.082900
  0.503000, -8.958500
  0.505000, -8.833500
  0.507000, -8.707700
  0.509000, -8.581100
  0.511000, -8.454100
  0.513000, -8.326400
  0.515000, -8.197800
  0.517000, -8.068800
  0.519000, -7.939300
  0.521000, -7.809000
  0.523000, -7.678200
  0.525000, -7.546800
  0.527000, -7.414700
  0.529000, -7.282000
  0.531000, -7.148800
  0.533000, -7.015200
  0.535000, -6.881200
  0.537000, -6.746900
  0.539000, -6.612800
  0.541000, -6.478400
  0.543000, -6.343400
  0.545000, -6.208300
  0.547000, -6.073500
  0.549000, -5.938700
  0.551000, -5.803800
  0.553000, -5.669400
  0.555000, -5.534900
  0.557000, -5.400900
  0.559000, -5.267500
  0.561000, -5.134700
  0.563000, -5.002200
  0.565000, -4.870200
  0.567000, -4.739100
  0.569000, -4.608400
  0.571000, -4.479000
  0.573000, -4.350700
  0.575000, -4.223400
  0.577000, -4.097200
  0.579000, -3.972100
  0.581000, -3.848500
  0.583000, -3.726300
  0.585000, -3.605900
  0.587000, -3.487200
  0.589000, -3.370800
  0.591000, -3.256300
  0.593000, -3.143600
  0.595000, -3.032800
  0.597000, -2.923800
  0.599000, -2.816900
  0.601000, -2.712500
  0.603000, -2.611200
  0.605000, -2.512400
  0.607000, -2.415800
  0.609000, -2.321500
  0.611000, -2.230500
  0.613000, -2.142600
  0.615000, -2.056700
  0.617000, -1.973400
  0.619000, -1.893100
  0.621000, -1.815600
  0.623000, -1.740800
  0.625000, -1.668700
  0.627000, -1.599800
  0.629000, -1.533400
  0.631000, -1.469600
  0.633000, -1.408800
  0.635000, -1.350700
  0.637000, -1.295600
  0.639000, -1.243600
  0.641000, -1.194000
  0.643000, -1.147000
  0.645000, -1.102500
  0.647000, -1.061000
  0.649000, -1.022500
  0.651000, -0.986300
  0.653000, -0.952500
  0.655000, -0.920900
  0.657000, -0.892000
  0.659000, -0.865500
  0.661000, -0.841200
  0.663000, -0.819000
  0.665000, -0.799400
  0.667000, -0.782100
  0.669000, -0.766300
  0.671000, -0.751800
  0.673000, -0.739400
  0.675000, -0.728700
  0.677000, -0.719400
  0.679000, -0.711900
  0.681000, -0.706100
  0.683000, -0.702000
  0.685000, -0.699400
  0.687000, -0.697700
  0.689000, -0.696700
  0.691000, -0.697300
  0.693000, -0.698700
  0.695000, -0.701000
  0.697000, -0.704200
  0.699000, -0.708100
  0.701000, -0.712400
  0.703000, -0.717000
  0.705000, -0.722200
  0.707000, -0.727900
  0.709000, -0.734000
  0.711000, -0.740600
  0.713000, -0.747500
  0.715000, -0.754400
  0.717000, -0.761700
  0.719000, -0.769100
  0.721000, -0.776400
  0.723000, -0.783600
  0.725000, -0.790700
  0.727000, -0.797900
  0.729000, -0.805000
  0.731000, -0.811800
  0.733000, -0.818400
  0.735000, -0.824600
  0.737000, -0.830700
  0.739000, -0.836600
  0.741000, -0.842000
  0.743000, -0.846900
  0.745000, -0.851700
  0.747000, -0.856000
  0.749000, -0.859800
  0.751000, -0.863300
  0.753000, -0.866500
  0.755000, -0.868900
  0.757000, -0.871000
  0.759000, -0.872600
  0.761000, -0.873600
  0.763000, -0.874100
  0.765000, -0.874100
  0.767000, -0.873900
  0.769000, -0.873200
  0.771000, -0.872100
  0.773000, -0.870300
  0.775000, -0.867900
  0.777000, -0.865000
  0.779000, -0.861600
  0.781000, -0.857700
  0.783000, -0.853200
  0.785000, -0.847900
  0.787000, -0.842300
  0.789000, -0.836100
  0.791000, -0.829600
  0.793000, -0.822900
  0.795000, -0.815100
  0.797000, -0.806800
  0.799000, -0.798500
  0.801000, -0.789400
  0.803000, -0.780100
  0.805000, -0.770800
  0.807000, -0.760800
  0.809000, -0.750000
  0.811000, -0.738800
  0.813000, -0.727500
  0.815000, -0.716200
  0.817000, -0.704700
  0.819000, -0.693000
  0.821000, -0.680700
  0.823000, -0.668000
  0.825000, -0.655100
  0.827000, -0.642200
  0.829000, -0.629300
  0.831000, -0.616200
  0.833000, -0.602600
  0.835000, -0.589000
  0.837000, -0.575400
  0.839000, -0.561400
  0.841000, -0.547600
  0.843000, -0.533600
  0.845000, -0.519300
  0.847000, -0.504700
  0.849000, -0.489900
  0.851000, -0.475100
  0.853000, -0.460700
  0.855000, -0.446500
  0.857000, -0.432300
  0.859000, -0.417800
  0.861000, -0.403000
  0.863000, -0.388400
  0.865000, -0.374100
  0.867000, -0.359900
  0.869000, -0.345700
  0.871000, -0.331600
  0.873000, -0.317500
  0.875000, -0.303700
  0.877000, -0.290100
  0.879000, -0.276600
  0.881000, -0.263300
  0.883000, -0.250100
  0.885000, -0.236900
  0.887000, -0.223900
  0.889000, -0.211300
  0.891000, -0.198900
  0.893000, -0.186600
  0.895000, -0.174700
  0.897000, -0.162900
  0.899000, -0.151200
  0.901000, -0.139900
  0.903000, -0.128800
  0.905000, -0.118000
  0.907000, -0.107500
  0.909000, -0.097400
  0.911000, -0.087600
  0.913000, -0.078100
  0.915000, -0.068800
  0.917000, -0.059900
  0.919000, -0.051100
  0.921000, -0.042700
  0.923000, -0.034700
  0.925000, -0.026900
  0.927000, -0.019500
  0.929000, -0.012400
  0.931000, -0.005600
  0.933000,  0.001100
  0.935000,  0.007200
  0.937000,  0.013000
  0.939000,  0.018600
  0.941000,  0.023800
  0.943000,  0.028600
  0.945000,  0.033200
  0.947000,  0.037600
  0.949000,  0.041500
  0.951000,  0.045100
  0.953000,  0.048400
  0.955000,  0.051400
  0.957000,  0.054000
  0.959000,  0.056300
  0.961000,  0.058400
  0.963000,  0.060300
  0.965000,  0.061900
  0.967000,  0.063100
  0.969000,  0.064200
  0.971000,  0.065000
  0.973000,  0.065400
  0.975000,  0.065700
  0.977000,  0.065800
  0.979000,  0.065600
  0.981000,  0.065200
  0.983000,  0.064500
  0.985000,  0.063600
  0.987000,  0.062300
  0.989000,  0.060900
  0.991000,  0.059400
  0.993000,  0.057600
  0.995000,  0.055600
  0.997000,  0.053500
  0.999000,  0.051300
  1.001000,  0.048900
  1.003000,  0.046100
  1.005000,  0.043200
  1.007000,  0.040100
  1.009000,  0.036900
  1.011000,  0.033600
  1.013000,  0.029900
  1.015000,  0.026200
  1.017000,  0.022600
  1.019000,  0.018900
  1.021000,  0.014900
  1.023000,  0.010600
  1.025000,  0.006100
  1.027000,  0.001500
  1.029000, -0.003100
  1.031000, -0.007900
  1.033000, -0.012500
  1.035000, -0.017200
  1.037000, -0.022000
  1.039000, -0.026900
  1.041000, -0.031600
  1.043000, -0.036400
  1.045000, -0.041300
  1.047000, -0.046200
  1.049000, -0.051100
  1.051000, -0.056000
  1.053000, -0.060800
  1.055000, -0.065400
  1.057000, -0.069800
  1.059000, -0.074000
  1.061000, -0.078600
  1.063000, -0.083300
  1.065000, -0.087400
  1.067000, -0.091400
  1.069000, -0.095000
  1.071000, -0.098300
  1.073000, -0.101700
  1.075000, -0.104900
  1.077000, -0.107900
  1.079000, -0.110700
  1.081000, -0.113300
  1.083000, -0.115800
  1.085000, -0.118100
  1.087000, -0.120000
  1.089000, -0.121600
  1.091000, -0.122900
  1.093000, -0.124200
  1.095000, -0.125000
  1.097000, -0.125600
  1.099000, -0.126000
  1.101000, -0.126000
  1.103000, -0.125900
  1.105000, -0.125600
  1.107000, -0.125000
  1.109000, -0.124200
  1.111000, -0.123200
  1.113000, -0.121900
  1.115000, -0.120400
  1.117000, -0.118700
  1.119000, -0.117000
  1.121000, -0.115000
  1.123000, -0.112900
  1.125000, -0.110700
  1.127000, -0.108400
  1.129000, -0.106000
  1.131000, -0.103600
  1.133000, -0.101100
  1.135000, -0.098400
  1.137000, -0.095700
  1.139000, -0.093100
  1.141000, -0.090500
  1.143000, -0.087900
  1.145000, -0.085200
  1.147000, -0.082500
  1.149000, -0.079900
  1.151000, -0.077300
  1.153000, -0.074700
  1.155000, -0.072200
  1.157000, -0.069700
  1.159000, -0.067300
  1.161000, -0.065200
  1.163000, -0.063100
  1.165000, -0.061100
  1.167000, -0.059200
  1.169000, -0.057400
  1.171000, -0.055900
  1.173000, -0.054400
  1.175000, -0.052800
  1.177000, -0.051500
  1.179000, -0.050400
  1.181000, -0.049400
  1.183000, -0.048400
  1.185000, -0.047700
  1.187000, -0.047000
  1.189000, -0.046200
  1.191000, -0.045500
  1.193000, -0.044900
  1.195000, -0.044500
  1.197000, -0.044200
  1.199000, -0.043900
  1.201000, -0.043700
  1.203000, -0.043500
  1.205000, -0.043400
  1.207000, -0.043200
  1.209000, -0.042800
  1.211000, -0.042600
  1.213000, -0.042600
  1.215000, -0.042500
  1.217000, -0.042300
  1.219000, -0.042100
  1.221000, -0.041900
  1.223000, -0.041700
  1.225000, -0.041500
  1.227000, -0.041100
  1.229000, -0.040600
  1.231000, -0.040200
  1.233000, -0.039600
  1.235000, -0.038900
  1.237000, -0.038000
  1.239000, -0.037000
  1.241000, -0.036000
  1.243000, -0.034800
  1.245000, -0.033500
  1.247000, -0.032100
  1.249000, -0.030800
  1.251000, -0.029300
  1.253000, -0.027600
  1.255000, -0.025800
  1.257000, -0.024000
  1.259000, -0.022100
  1.261000, -0.020200
  1.263000, -0.018200
  1.265000, -0.016100
  1.267000, -0.013900
  1.269000, -0.011800
  1.271000, -0.009600
  1.273000, -0.007400
  1.275000, -0.005000
  1.277000, -0.002800
  1.279000, -0.000500
  1.281000,  0.001800
  1.283000,  0.004100
  1.285000,  0.006400
  1.287000,  0.008600
  1.289000,  0.010900
  1.291000,  0.013000
  1.293000,  0.015100
  1.295000,  0.017200
  1.297000,  0.019300
  1.299000,  0.021300
  1.301000,  0.023300
  1.303000,  0.025200
  1.305000,  0.027000
  1.307000,  0.028800
  1.309000,  0.030400
  1.311000,  0.032000
  1.313000,  0.033400
  1.315000,  0.034500
  1.317000,  0.035400
  1.319000,  0.036400
  1.321000,  0.037400
  1.323000,  0.038100
  1.325000,  0.038600
  1.327000,  0.038800
  1.329000,  0.039000
  1.331000,  0.039100
  1.333000,  0.039200
  1.335000,  0.039300
  1.337000,  0.039200
  1.339000,  0.039000
  1.341000,  0.038600
  1.343000,  0.038000
  1.345000,  0.037200
  1.347000,  0.036400
  1.349000,  0.035500
  1.351000,  0.034300
  1.353000,  0.033000
  1.355000,  0.031600
  1.357000,  0.030200
  1.359000,  0.028600
  1.361000,  0.026800
  1.363000,  0.025000
  1.365000,  0.023100
  1.367000,  0.021200
  1.369000,  0.019100
  1.371000,  0.016900
  1.373000,  0.014500
  1.375000,  0.012200
  1.377000,  0.009700
  1.379000,  0.007100
  1.381000,  0.004400
  1.383000,  0.001700
  1.385000, -0.001000
  1.387000, -0.004000
  1.389000, -0.007200
  1.391000, -0.010500
  1.393000, -0.013700
  1.395000, -0.016900
  1.397000, -0.020400
  1.399000, -0.024000
