# z (nm)   (kJ/mol)
  0.271000,  3.680500
  0.273000,  3.049800
  0.275000,  2.360600
  0.277000,  1.640500
  0.279000,  0.952600
  0.281000,  0.274500
  0.283000, -0.403500
  0.285000, -1.076100
  0.287000, -1.764300
  0.289000, -2.431500
  0.291000, -3.096400
  0.293000, -3.754800
  0.295000, -4.397300
  0.297000, -5.042500
  0.299000, -5.678000
  0.301000, -6.305100
  0.303000, -6.926300
  0.305000, -7.532400
  0.307000, -8.131500
  0.309000, -8.722600
  0.311000, -9.296800
  0.313000, -9.854100
  0.315000,-10.398100
  0.317000,-10.925100
  0.319000,-11.433700
  0.321000,-11.926400
  0.323000,-12.404700
  0.325000,-12.864500
  0.327000,-13.304800
  0.329000,-13.728000
  0.331000,-14.135700
  0.333000,-14.524400
  0.335000,-14.892800
  0.337000,-15.241900
  0.339000,-15.572200
  0.341000,-15.883800
  0.343000,-16.174400
  0.345000,-16.445300
  0.347000,-16.697500
  0.349000,-16.930500
  0.351000,-17.144500
  0.353000,-17.339400
  0.355000,-17.515300
  0.357000,-17.672400
  0.359000,-17.811400
  0.361000,-17.932900
  0.363000,-18.036200
  0.365000,-18.122900
  0.367000,-18.194000
  0.369000,-18.248500
  0.371000,-18.287600
  0.373000,-18.311600
  0.375000,-18.320700
  0.377000,-18.317700
  0.379000,-18.302000
  0.381000,-18.273000
  0.383000,-18.233100
  0.385000,-18.182900
  0.387000,-18.121200
  0.389000,-18.050900
  0.391000,-17.973800
  0.393000,-17.888400
  0.395000,-17.793700
  0.397000,-17.693100
  0.399000,-17.587800
  0.401000,-17.476500
  0.403000,-17.360600
  0.405000,-17.240000
  0.407000,-17.115200
  0.409000,-16.986700
  0.411000,-16.855600
  0.413000,-16.722700
  0.415000,-16.587800
  0.417000,-16.451100
  0.419000,-16.312600
  0.421000,-16.172800
  0.423000,-16.032000
  0.425000,-15.890400
  0.427000,-15.748400
  0.429000,-15.605900
  0.431000,-15.463200
  0.433000,-15.320500
  0.435000,-15.177600
  0.437000,-15.034600
  0.439000,-14.891800
  0.441000,-14.749000
  0.443000,-14.606200
  0.445000,-14.463200
  0.447000,-14.320000
  0.449000,-14.176700
  0.451000,-14.033200
  0.453000,-13.889700
  0.455000,-13.746400
  0.457000,-13.603600
  0.459000,-13.460600
  0.461000,-13.317000
  0.463000,-13.173400
  0.465000,-13.029500
  0.467000,-12.885800
  0.469000,-12.741800
  0.471000,-12.597400
  0.473000,-12.452700
  0.475000,-12.307600
  0.477000,-12.162200
  0.479000,-12.016800
  0.481000,-11.870900
  0.483000,-11.724400
  0.485000,-11.577600
  0.487000,-11.430200
  0.489000,-11.282400
  0.491000,-11.134700
  0.493000,-10.986700
  0.495000,-10.838300
  0.497000,-10.689600
  0.499000,-10.540700
  0.501000,-10.391800
  0.503000,-10.242600
  0.505000,-10.093000
  0.507000, -9.943300
  0.509000, -9.793600
  0.511000, -9.643900
  0.513000, -9.494000
  0.515000, -9.343900
  0.517000, -9.193700
  0.519000, -9.043500
  0.521000, -8.893300
  0.523000, -8.743100
  0.525000, -8.592900
  0.527000, -8.442400
  0.529000, -8.291800
  0.531000, -8.141000
  0.533000, -7.990100
  0.535000, -7.839200
  0.537000, -7.688400
  0.539000, -7.537400
  0.541000, -7.386200
  0.543000, -7.234900
  0.545000, -7.083600
  0.547000, -6.932700
  0.549000, -6.781500
  0.551000, -6.630100
  0.553000, -6.479200
  0.555000, -6.328100
  0.557000, -6.176800
  0.559000, -6.025700
  0.561000, -5.874900
  0.563000, -5.724100
  0.565000, -5.573700
  0.567000, -5.423600
  0.569000, -5.273000
  0.571000, -5.122900
  0.573000, -4.973300
  0.575000, -4.824300
  0.577000, -4.675900
  0.579000, -4.528400
  0.581000, -4.382500
  0.583000, -4.237000
  0.585000, -4.091800
  0.587000, -3.947100
  0.589000, -3.803700
  0.591000, -3.661900
  0.593000, -3.521600
  0.595000, -3.382700
  0.597000, -3.244800
  0.599000, -3.108900
  0.601000, -2.975100
  0.603000, -2.843500
  0.605000, -2.713800
  0.607000, -2.586200
  0.609000, -2.460400
  0.611000, -2.336700
  0.613000, -2.215700
  0.615000, -2.096600
  0.617000, -1.979700
  0.619000, -1.866000
  0.621000, -1.756000
  0.623000, -1.649100
  0.625000, -1.544900
  0.627000, -1.443900
  0.629000, -1.346200
  0.631000, -1.251900
  0.633000, -1.160500
  0.635000, -1.072400
  0.637000, -0.987300
  0.639000, -0.905600
  0.641000, -0.828100
  0.643000, -0.754300
  0.645000, -0.683800
  0.647000, -0.616800
  0.649000, -0.553600
  0.651000, -0.493800
  0.653000, -0.437800
  0.655000, -0.385800
  0.657000, -0.337100
  0.659000, -0.291800
  0.661000, -0.250000
  0.663000, -0.211800
  0.665000, -0.177000
  0.667000, -0.145300
  0.669000, -0.116900
  0.671000, -0.091500
  0.673000, -0.069200
  0.675000, -0.049900
  0.677000, -0.033400
  0.679000, -0.019900
  0.681000, -0.008700
  0.683000, -0.000100
  0.685000,  0.005900
  0.687000,  0.009900
  0.689000,  0.011800
  0.691000,  0.011100
  0.693000,  0.008400
  0.695000,  0.004000
  0.697000, -0.002200
  0.699000, -0.010100
  0.701000, -0.019700
  0.703000, -0.030700
  0.705000, -0.042600
  0.707000, -0.055700
  0.709000, -0.070100
  0.711000, -0.085200
  0.713000, -0.100900
  0.715000, -0.117500
  0.717000, -0.134800
  0.719000, -0.152600
  0.721000, -0.171100
  0.723000, -0.189800
  0.725000, -0.208300
  0.727000, -0.227100
  0.729000, -0.246200
  0.731000, -0.265400
  0.733000, -0.284400
  0.735000, -0.303100
  0.737000, -0.321700
  0.739000, -0.340100
  0.741000, -0.358600
  0.743000, -0.376600
  0.745000, -0.394100
  0.747000, -0.411400
  0.749000, -0.428500
  0.751000, -0.445000
  0.753000, -0.460700
  0.755000, -0.475800
  0.757000, -0.490400
  0.759000, -0.504400
  0.761000, -0.517700
  0.763000, -0.530500
  0.765000, -0.542700
  0.767000, -0.554100
  0.769000, -0.564900
  0.771000, -0.575300
  0.773000, -0.584900
  0.775000, -0.593800
  0.777000, -0.602100
  0.779000, -0.609700
  0.781000, -0.616600
  0.783000, -0.622900
  0.785000, -0.628500
  0.787000, -0.633300
  0.789000, -0.637500
  0.791000, -0.641100
  0.793000, -0.644200
  0.795000, -0.646500
  0.797000, -0.648100
  0.799000, -0.649400
  0.801000, -0.650100
  0.803000, -0.650000
  0.805000, -0.649400
  0.807000, -0.648300
  0.809000, -0.646500
  0.811000, -0.644100
  0.813000, -0.641100
  0.815000, -0.637600
  0.817000, -0.633500
  0.819000, -0.628800
  0.821000, -0.623700
  0.823000, -0.618100
  0.825000, -0.612000
  0.827000, -0.605400
  0.829000, -0.598400
  0.831000, -0.591100
  0.833000, -0.583600
  0.835000, -0.575400
  0.837000, -0.566600
  0.839000, -0.557300
  0.841000, -0.547600
  0.843000, -0.537800
  0.845000, -0.527700
  0.847000, -0.517000
  0.849000, -0.505900
  0.851000, -0.494500
  0.853000, -0.482700
  0.855000, -0.470800
  0.857000, -0.458600
  0.859000, -0.446000
  0.861000, -0.433200
  0.863000, -0.420100
  0.865000, -0.406900
  0.867000, -0.393700
  0.869000, -0.380700
  0.871000, -0.367500
  0.873000, -0.354100
  0.875000, -0.340600
  0.877000, -0.327200
  0.879000, -0.313600
  0.881000, -0.299800
  0.883000, -0.286400
  0.885000, -0.273100
  0.887000, -0.259600
  0.889000, -0.246000
  0.891000, -0.232400
  0.893000, -0.219100
  0.895000, -0.206200
  0.897000, -0.193400
  0.899000, -0.180500
  0.901000, -0.167900
  0.903000, -0.155600
  0.905000, -0.143600
  0.907000, -0.131700
  0.909000, -0.120000
  0.911000, -0.108800
  0.913000, -0.097700
  0.915000, -0.087000
  0.917000, -0.076500
  0.919000, -0.066600
  0.921000, -0.057000
  0.923000, -0.047700
  0.925000, -0.038600
  0.927000, -0.029900
  0.929000, -0.021600
  0.931000, -0.013500
  0.933000, -0.006000
  0.935000,  0.001100
  0.937000,  0.008000
  0.939000,  0.014400
  0.941000,  0.020500
  0.943000,  0.026100
  0.945000,  0.031300
  0.947000,  0.036300
  0.949000,  0.040800
  0.951000,  0.044900
  0.953000,  0.048700
  0.955000,  0.052000
  0.957000,  0.055000
  0.959000,  0.057700
  0.961000,  0.060000
  0.963000,  0.061900
  0.965000,  0.063500
  0.967000,  0.064600
  0.969000,  0.065400
  0.971000,  0.066000
  0.973000,  0.066300
  0.975000,  0.066400
  0.977000,  0.066300
  0.979000,  0.065900
  0.981000,  0.065200
  0.983000,  0.064200
  0.985000,  0.062800
  0.987000,  0.061100
  0.989000,  0.059100
  0.991000,  0.057000
  0.993000,  0.054800
  0.995000,  0.052500
  0.997000,  0.049900
  0.999000,  0.047100
  1.001000,  0.044200
  1.003000,  0.041100
  1.005000,  0.038000
  1.007000,  0.034700
  1.009000,  0.031000
  1.011000,  0.027100
  1.013000,  0.023200
  1.015000,  0.019400
  1.017000,  0.015300
  1.019000,  0.011100
  1.021000,  0.006900
  1.023000,  0.002800
  1.025000, -0.001500
  1.027000, -0.005900
  1.029000, -0.010300
  1.031000, -0.014700
  1.033000, -0.019300
  1.035000, -0.023900
  1.037000, -0.028400
  1.039000, -0.032900
  1.041000, -0.037500
  1.043000, -0.042000
  1.045000, -0.046400
  1.047000, -0.050700
  1.049000, -0.055100
  1.051000, -0.059500
  1.053000, -0.063800
  1.055000, -0.067900
  1.057000, -0.072000
  1.059000, -0.076000
  1.061000, -0.080100
  1.063000, -0.083900
  1.065000, -0.087700
  1.067000, -0.091300
  1.069000, -0.094800
  1.071000, -0.098200
  1.073000, -0.101400
  1.075000, -0.104400
  1.077000, -0.107400
  1.079000, -0.110200
  1.081000, -0.112900
  1.083000, -0.115500
  1.085000, -0.117900
  1.087000, -0.120000
  1.089000, -0.122000
  1.091000, -0.123900
  1.093000, -0.125600
  1.095000, -0.127300
  1.097000, -0.128800
  1.099000, -0.130100
  1.101000, -0.131300
  1.103000, -0.132300
  1.105000, -0.133300
  1.107000, -0.133900
  1.109000, -0.134300
  1.111000, -0.134700
  1.113000, -0.134800
  1.115000, -0.134800
  1.117000, -0.134600
  1.119000, -0.134300
  1.121000, -0.134000
  1.123000, -0.133700
  1.125000, -0.133200
  1.127000, -0.132500
  1.129000, -0.131600
  1.131000, -0.130500
  1.133000, -0.129500
  1.135000, -0.128400
  1.137000, -0.127300
  1.139000, -0.126100
  1.141000, -0.124900
  1.143000, -0.123600
  1.145000, -0.122200
  1.147000, -0.120800
  1.149000, -0.119400
  1.151000, -0.117900
  1.153000, -0.116400
  1.155000, -0.114700
  1.157000, -0.113000
  1.159000, -0.111200
  1.161000, -0.109400
  1.163000, -0.107600
  1.165000, -0.105700
  1.167000, -0.103700
  1.169000, -0.101800
  1.171000, -0.099900
  1.173000, -0.097900
  1.175000, -0.096000
  1.177000, -0.094100
  1.179000, -0.092100
  1.181000, -0.089900
  1.183000, -0.087900
  1.185000, -0.086000
  1.187000, -0.084000
  1.189000, -0.082000
  1.191000, -0.080000
  1.193000, -0.078000
  1.195000, -0.076100
  1.197000, -0.074300
  1.199000, -0.072300
  1.201000, -0.070400
  1.203000, -0.068300
  1.205000, -0.066300
  1.207000, -0.064300
  1.209000, -0.062400
  1.211000, -0.060600
  1.213000, -0.058800
  1.215000, -0.056900
  1.217000, -0.055100
  1.219000, -0.053200
  1.221000, -0.051300
  1.223000, -0.049400
  1.225000, -0.047500
  1.227000, -0.045400
  1.229000, -0.043400
  1.231000, -0.041300
  1.233000, -0.039300
  1.235000, -0.037300
  1.237000, -0.035300
  1.239000, -0.033200
  1.241000, -0.031200
  1.243000, -0.029200
  1.245000, -0.027200
  1.247000, -0.025200
  1.249000, -0.023100
  1.251000, -0.021000
  1.253000, -0.019000
  1.255000, -0.017000
  1.257000, -0.015000
  1.259000, -0.013000
  1.261000, -0.011000
  1.263000, -0.009100
  1.265000, -0.007200
  1.267000, -0.005300
  1.269000, -0.003500
  1.271000, -0.001600
  1.273000,  0.000200
  1.275000,  0.002000
  1.277000,  0.003700
  1.279000,  0.005300
  1.281000,  0.006800
  1.283000,  0.008200
  1.285000,  0.009700
  1.287000,  0.011000
  1.289000,  0.012300
  1.291000,  0.013500
  1.293000,  0.014600
  1.295000,  0.015600
  1.297000,  0.016900
  1.299000,  0.017900
  1.301000,  0.018600
  1.303000,  0.019300
  1.305000,  0.019900
  1.307000,  0.020400
  1.309000,  0.020800
  1.311000,  0.021200
  1.313000,  0.021600
  1.315000,  0.021800
  1.317000,  0.022100
  1.319000,  0.022200
  1.321000,  0.022300
  1.323000,  0.022400
  1.325000,  0.022500
  1.327000,  0.022500
  1.329000,  0.022600
  1.331000,  0.022500
  1.333000,  0.022500
  1.335000,  0.022400
  1.337000,  0.022300
  1.339000,  0.022200
  1.341000,  0.022000
  1.343000,  0.022000
  1.345000,  0.021900
  1.347000,  0.021900
  1.349000,  0.021900
  1.351000,  0.022100
  1.353000,  0.022300
  1.355000,  0.022400
  1.357000,  0.022600
  1.359000,  0.022900
  1.361000,  0.023200
  1.363000,  0.023600
  1.365000,  0.024200
  1.367000,  0.024700
  1.369000,  0.025300
  1.371000,  0.025800
  1.373000,  0.026400
  1.375000,  0.027000
  1.377000,  0.027700
  1.379000,  0.028400
  1.381000,  0.028900
  1.383000,  0.029400
  1.385000,  0.029800
  1.387000,  0.030200
  1.389000,  0.030600
  1.391000,  0.030700
  1.393000,  0.030600
  1.395000,  0.030400
  1.397000,  0.030000
  1.399000,  0.029300
