# z (nm)   (kJ/mol)
  0.253000, -3.996000
  0.257000, -5.647600
  0.259000, -6.479300
  0.261000, -7.284800
  0.263000, -8.078600
  0.265000, -8.885700
  0.267000, -9.684000
  0.269000,-10.459100
  0.271000,-11.234000
  0.273000,-12.006400
  0.275000,-12.761700
  0.277000,-13.502000
  0.279000,-14.226000
  0.281000,-14.931900
  0.283000,-15.621700
  0.285000,-16.294500
  0.287000,-16.941300
  0.289000,-17.563100
  0.291000,-18.164600
  0.293000,-18.741200
  0.295000,-19.296700
  0.297000,-19.826500
  0.299000,-20.330000
  0.301000,-20.807400
  0.303000,-21.256800
  0.305000,-21.679700
  0.307000,-22.077700
  0.309000,-22.448100
  0.311000,-22.793700
  0.313000,-23.115000
  0.315000,-23.406200
  0.317000,-23.669200
  0.319000,-23.908600
  0.321000,-24.124100
  0.323000,-24.313400
  0.325000,-24.478100
  0.327000,-24.619800
  0.329000,-24.737500
  0.331000,-24.830600
  0.333000,-24.899200
  0.335000,-24.945400
  0.337000,-24.970600
  0.339000,-24.974400
  0.341000,-24.957400
  0.343000,-24.921400
  0.345000,-24.868100
  0.347000,-24.798100
  0.349000,-24.711400
  0.351000,-24.608900
  0.353000,-24.491400
  0.355000,-24.360300
  0.357000,-24.216400
  0.359000,-24.061200
  0.361000,-23.896500
  0.363000,-23.721700
  0.365000,-23.537900
  0.367000,-23.346500
  0.369000,-23.148300
  0.371000,-22.943900
  0.373000,-22.734000
  0.375000,-22.519500
  0.377000,-22.300900
  0.379000,-22.078400
  0.381000,-21.853300
  0.383000,-21.626500
  0.385000,-21.398400
  0.387000,-21.169000
  0.389000,-20.938500
  0.391000,-20.707900
  0.393000,-20.477800
  0.395000,-20.248400
  0.397000,-20.019500
  0.399000,-19.791400
  0.401000,-19.564900
  0.403000,-19.340000
  0.405000,-19.116900
  0.407000,-18.895600
  0.409000,-18.676400
  0.411000,-18.460000
  0.413000,-18.246600
  0.415000,-18.035700
  0.417000,-17.827600
  0.419000,-17.622300
  0.421000,-17.419700
  0.423000,-17.220400
  0.425000,-17.024800
  0.427000,-16.832700
  0.429000,-16.643900
  0.431000,-16.458600
  0.433000,-16.276600
  0.435000,-16.097500
  0.437000,-15.922500
  0.439000,-15.752000
  0.441000,-15.585300
  0.443000,-15.422100
  0.445000,-15.262700
  0.447000,-15.106600
  0.449000,-14.953800
  0.451000,-14.804700
  0.453000,-14.658900
  0.455000,-14.516400
  0.457000,-14.377200
  0.459000,-14.241800
  0.461000,-14.109800
  0.463000,-13.980600
  0.465000,-13.854500
  0.467000,-13.731400
  0.469000,-13.610800
  0.471000,-13.492900
  0.473000,-13.377600
  0.475000,-13.264200
  0.477000,-13.153100
  0.479000,-13.044500
  0.481000,-12.937700
  0.483000,-12.832500
  0.485000,-12.729000
  0.487000,-12.627100
  0.489000,-12.526200
  0.491000,-12.426000
  0.493000,-12.326800
  0.495000,-12.228600
  0.497000,-12.130700
  0.499000,-12.032600
  0.501000,-11.934600
  0.503000,-11.836900
  0.505000,-11.739000
  0.507000,-11.640600
  0.509000,-11.541300
  0.511000,-11.441000
  0.513000,-11.339800
  0.515000,-11.237500
  0.517000,-11.133700
  0.519000,-11.028800
  0.521000,-10.922400
  0.523000,-10.814100
  0.525000,-10.704400
  0.527000,-10.593000
  0.529000,-10.479600
  0.531000,-10.364400
  0.533000,-10.247300
  0.535000,-10.127900
  0.537000,-10.006900
  0.539000, -9.883800
  0.541000, -9.758300
  0.543000, -9.630900
  0.545000, -9.501300
  0.547000, -9.370000
  0.549000, -9.236900
  0.551000, -9.101800
  0.553000, -8.964500
  0.555000, -8.825400
  0.557000, -8.684400
  0.559000, -8.541900
  0.561000, -8.397400
  0.563000, -8.251000
  0.565000, -8.103100
  0.567000, -7.953200
  0.569000, -7.802100
  0.571000, -7.649900
  0.573000, -7.496200
  0.575000, -7.341400
  0.577000, -7.185600
  0.579000, -7.029000
  0.581000, -6.871200
  0.583000, -6.712400
  0.585000, -6.552700
  0.587000, -6.392200
  0.589000, -6.231500
  0.591000, -6.070400
  0.593000, -5.908400
  0.595000, -5.746300
  0.597000, -5.584700
  0.599000, -5.423000
  0.601000, -5.261700
  0.603000, -5.101900
  0.605000, -4.942800
  0.607000, -4.784100
  0.609000, -4.625900
  0.611000, -4.467200
  0.613000, -4.309500
  0.615000, -4.153700
  0.617000, -3.999100
  0.619000, -3.846300
  0.621000, -3.693900
  0.623000, -3.542800
  0.625000, -3.394300
  0.627000, -3.248600
  0.629000, -3.105700
  0.631000, -2.964800
  0.633000, -2.825400
  0.635000, -2.687300
  0.637000, -2.551800
  0.639000, -2.418600
  0.641000, -2.288400
  0.643000, -2.161300
  0.645000, -2.037000
  0.647000, -1.915800
  0.649000, -1.797800
  0.651000, -1.683100
  0.653000, -1.571000
  0.655000, -1.463100
  0.657000, -1.358800
  0.659000, -1.257200
  0.661000, -1.159200
  0.663000, -1.064800
  0.665000, -0.974300
  0.667000, -0.888000
  0.669000, -0.805300
  0.671000, -0.725700
  0.673000, -0.649400
  0.675000, -0.577300
  0.677000, -0.508900
  0.679000, -0.444000
  0.681000, -0.383000
  0.683000, -0.325600
  0.685000, -0.271400
  0.687000, -0.220500
  0.689000, -0.173100
  0.691000, -0.129300
  0.693000, -0.089000
  0.695000, -0.052000
  0.697000, -0.018200
  0.699000,  0.012600
  0.701000,  0.040400
  0.703000,  0.065400
  0.705000,  0.087600
  0.707000,  0.106700
  0.709000,  0.123200
  0.711000,  0.137300
  0.713000,  0.149100
  0.715000,  0.158900
  0.717000,  0.166300
  0.719000,  0.171200
  0.721000,  0.173800
  0.723000,  0.174600
  0.725000,  0.173700
  0.727000,  0.171200
  0.729000,  0.167200
  0.731000,  0.161600
  0.733000,  0.154600
  0.735000,  0.146100
  0.737000,  0.136800
  0.739000,  0.126500
  0.741000,  0.114800
  0.743000,  0.102300
  0.745000,  0.089300
  0.747000,  0.075400
  0.749000,  0.060700
  0.751000,  0.045800
  0.753000,  0.030300
  0.755000,  0.014300
  0.757000, -0.002000
  0.759000, -0.018600
  0.761000, -0.035600
  0.763000, -0.052900
  0.765000, -0.070200
  0.767000, -0.087800
  0.769000, -0.105400
  0.771000, -0.123100
  0.773000, -0.141000
  0.775000, -0.158800
  0.777000, -0.176400
  0.779000, -0.193800
  0.781000, -0.211200
  0.783000, -0.228500
  0.785000, -0.245500
  0.787000, -0.262200
  0.789000, -0.278500
  0.791000, -0.294800
  0.793000, -0.310900
  0.795000, -0.326600
  0.797000, -0.341900
  0.799000, -0.356600
  0.801000, -0.371000
  0.803000, -0.384900
  0.805000, -0.398500
  0.807000, -0.411800
  0.809000, -0.424500
  0.811000, -0.436800
  0.813000, -0.448700
  0.815000, -0.460300
  0.817000, -0.471600
  0.819000, -0.482100
  0.821000, -0.492100
  0.823000, -0.501600
  0.825000, -0.510500
  0.827000, -0.518900
  0.829000, -0.526900
  0.831000, -0.534200
  0.833000, -0.541100
  0.835000, -0.547400
  0.837000, -0.552900
  0.839000, -0.557800
  0.841000, -0.562100
  0.843000, -0.566000
  0.845000, -0.569200
  0.847000, -0.571800
  0.849000, -0.573700
  0.851000, -0.575100
  0.853000, -0.575900
  0.855000, -0.576000
  0.857000, -0.575600
  0.859000, -0.574500
  0.861000, -0.572800
  0.863000, -0.570400
  0.865000, -0.567300
  0.867000, -0.563800
  0.869000, -0.559600
  0.871000, -0.554800
  0.873000, -0.549500
  0.875000, -0.543700
  0.877000, -0.537300
  0.879000, -0.530500
  0.881000, -0.523100
  0.883000, -0.515200
  0.885000, -0.506600
  0.887000, -0.497500
  0.889000, -0.488000
  0.891000, -0.477900
  0.893000, -0.467400
  0.895000, -0.456600
  0.897000, -0.445500
  0.899000, -0.434000
  0.901000, -0.422000
  0.903000, -0.409700
  0.905000, -0.397000
  0.907000, -0.384200
  0.909000, -0.371100
  0.911000, -0.357800
  0.913000, -0.344200
  0.915000, -0.330400
  0.917000, -0.316500
  0.919000, -0.302500
  0.921000, -0.288200
  0.923000, -0.273900
  0.925000, -0.259600
  0.927000, -0.245300
  0.929000, -0.230900
  0.931000, -0.216600
  0.933000, -0.202300
  0.935000, -0.187900
  0.937000, -0.173500
  0.939000, -0.159200
  0.941000, -0.145200
  0.943000, -0.131300
  0.945000, -0.117500
  0.947000, -0.103900
  0.949000, -0.090400
  0.951000, -0.077300
  0.953000, -0.064500
  0.955000, -0.051900
  0.957000, -0.039600
  0.959000, -0.027400
  0.961000, -0.015500
  0.963000, -0.004200
  0.965000,  0.006900
  0.967000,  0.017800
  0.969000,  0.028200
  0.971000,  0.038100
  0.973000,  0.047700
  0.975000,  0.056900
  0.977000,  0.065800
  0.979000,  0.074400
  0.981000,  0.082700
  0.983000,  0.090600
  0.985000,  0.097900
  0.987000,  0.104900
  0.989000,  0.111600
  0.991000,  0.117900
  0.993000,  0.123900
  0.995000,  0.129400
  0.997000,  0.134300
  0.999000,  0.138900
  1.001000,  0.143200
  1.003000,  0.147200
  1.005000,  0.150700
  1.007000,  0.153800
  1.009000,  0.156600
  1.011000,  0.159100
  1.013000,  0.161200
  1.015000,  0.163000
  1.017000,  0.164500
  1.019000,  0.165600
  1.021000,  0.166400
  1.023000,  0.167000
  1.025000,  0.167300
  1.027000,  0.167400
  1.029000,  0.167100
  1.031000,  0.166500
  1.033000,  0.165700
  1.035000,  0.164600
  1.037000,  0.163200
  1.039000,  0.161500
  1.041000,  0.159700
  1.043000,  0.157800
  1.045000,  0.155700
  1.047000,  0.153400
  1.049000,  0.150800
  1.051000,  0.148300
  1.053000,  0.145400
  1.055000,  0.142400
  1.057000,  0.139400
  1.059000,  0.136300
  1.061000,  0.133000
  1.063000,  0.129500
  1.065000,  0.126000
  1.067000,  0.122400
  1.069000,  0.118800
  1.071000,  0.115100
  1.073000,  0.111400
  1.075000,  0.107600
  1.077000,  0.103800
  1.079000,  0.099900
  1.081000,  0.096000
  1.083000,  0.092000
  1.085000,  0.088000
  1.087000,  0.084000
  1.089000,  0.080000
  1.091000,  0.075800
  1.093000,  0.071700
  1.095000,  0.067700
  1.097000,  0.063800
  1.099000,  0.059900
  1.101000,  0.056000
  1.103000,  0.052200
  1.105000,  0.048400
  1.107000,  0.044600
  1.109000,  0.040800
  1.111000,  0.037100
  1.113000,  0.033500
  1.115000,  0.030000
  1.117000,  0.026500
  1.119000,  0.023200
  1.121000,  0.019900
  1.123000,  0.016700
  1.125000,  0.013600
  1.127000,  0.010500
  1.129000,  0.007600
  1.131000,  0.004800
  1.133000,  0.002000
  1.135000, -0.000800
  1.137000, -0.003600
  1.139000, -0.006300
  1.141000, -0.008800
  1.143000, -0.011200
  1.145000, -0.013400
  1.147000, -0.015700
  1.149000, -0.017900
  1.151000, -0.020000
  1.153000, -0.022100
  1.155000, -0.024100
  1.157000, -0.025900
  1.159000, -0.027700
  1.161000, -0.029300
  1.163000, -0.030900
  1.165000, -0.032500
  1.167000, -0.034000
  1.169000, -0.035400
  1.171000, -0.036700
  1.173000, -0.038100
  1.175000, -0.039400
  1.177000, -0.040600
  1.179000, -0.041600
  1.181000, -0.042600
  1.183000, -0.043500
  1.185000, -0.044300
  1.187000, -0.044900
  1.189000, -0.045600
  1.191000, -0.046200
  1.193000, -0.046800
  1.195000, -0.047200
  1.197000, -0.047600
  1.199000, -0.047800
  1.201000, -0.048000
  1.203000, -0.048200
  1.205000, -0.048200
  1.207000, -0.048100
  1.209000, -0.048100
  1.211000, -0.048000
  1.213000, -0.047800
  1.215000, -0.047500
  1.217000, -0.047100
  1.219000, -0.046700
  1.221000, -0.046100
  1.223000, -0.045500
  1.225000, -0.044900
  1.227000, -0.044100
  1.229000, -0.043300
  1.231000, -0.042500
  1.233000, -0.041500
  1.235000, -0.040500
  1.237000, -0.039500
  1.239000, -0.038500
  1.241000, -0.037500
  1.243000, -0.036400
  1.245000, -0.035200
  1.247000, -0.034000
  1.249000, -0.032700
  1.251000, -0.031400
  1.253000, -0.029900
  1.255000, -0.028500
  1.257000, -0.027200
  1.259000, -0.025800
  1.261000, -0.024300
  1.263000, -0.022900
  1.265000, -0.021500
  1.267000, -0.020100
  1.269000, -0.018700
  1.271000, -0.017300
  1.273000, -0.016000
  1.275000, -0.014500
  1.277000, -0.013100
  1.279000, -0.011800
  1.281000, -0.010500
  1.283000, -0.009400
  1.285000, -0.008100
  1.287000, -0.006800
  1.289000, -0.005700
  1.291000, -0.004600
  1.293000, -0.003300
  1.295000, -0.002000
  1.297000, -0.000900
  1.299000,  0.000100
  1.301000,  0.001100
  1.303000,  0.002200
  1.305000,  0.003400
  1.307000,  0.004300
  1.309000,  0.005200
  1.311000,  0.006200
  1.313000,  0.007300
  1.315000,  0.008400
  1.317000,  0.009300
  1.319000,  0.010400
  1.321000,  0.011500
  1.323000,  0.012500
  1.325000,  0.013500
  1.327000,  0.014600
  1.329000,  0.015700
  1.331000,  0.016900
  1.333000,  0.018100
  1.335000,  0.019300
  1.337000,  0.020600
  1.339000,  0.022000
  1.341000,  0.023400
  1.343000,  0.024900
  1.345000,  0.026400
  1.347000,  0.027700
  1.349000,  0.029100
  1.351000,  0.030600
  1.353000,  0.032100
  1.355000,  0.033700
  1.357000,  0.035500
  1.359000,  0.037200
  1.361000,  0.038700
  1.363000,  0.040300
  1.365000,  0.042100
  1.367000,  0.043800
  1.369000,  0.045200
  1.371000,  0.046600
  1.373000,  0.047800
  1.375000,  0.048900
  1.377000,  0.050000
  1.379000,  0.051000
  1.381000,  0.051900
  1.383000,  0.052600
  1.385000,  0.053200
  1.387000,  0.053700
  1.389000,  0.053800
  1.391000,  0.053700
  1.393000,  0.053300
  1.395000,  0.052400
  1.397000,  0.051100
  1.399000,  0.049400
