# z (nm)   (kJ/mol)
  0.301000, 12.889100
  0.303000, 12.442900
  0.305000, 11.968900
  0.307000, 11.446300
  0.309000, 10.933100
  0.311000, 10.431700
  0.313000,  9.917600
  0.315000,  9.374000
  0.317000,  8.813400
  0.319000,  8.262900
  0.321000,  7.717500
  0.323000,  7.149800
  0.325000,  6.571500
  0.327000,  5.971500
  0.329000,  5.357800
  0.331000,  4.759800
  0.333000,  4.164200
  0.335000,  3.561900
  0.337000,  2.948900
  0.339000,  2.341500
  0.341000,  1.737600
  0.343000,  1.136400
  0.345000,  0.548300
  0.347000, -0.038200
  0.349000, -0.626600
  0.351000, -1.203800
  0.353000, -1.770500
  0.355000, -2.338300
  0.357000, -2.895500
  0.359000, -3.439800
  0.361000, -3.974800
  0.363000, -4.492700
  0.365000, -4.997900
  0.367000, -5.491000
  0.369000, -5.966400
  0.371000, -6.427200
  0.373000, -6.873800
  0.375000, -7.305400
  0.377000, -7.720700
  0.379000, -8.120300
  0.381000, -8.505700
  0.383000, -8.875300
  0.385000, -9.228600
  0.387000, -9.564100
  0.389000, -9.882600
  0.391000,-10.186000
  0.393000,-10.475100
  0.395000,-10.747400
  0.397000,-11.002400
  0.399000,-11.242000
  0.401000,-11.465900
  0.403000,-11.675500
  0.405000,-11.868900
  0.407000,-12.045700
  0.409000,-12.206600
  0.411000,-12.353300
  0.413000,-12.486300
  0.415000,-12.604400
  0.417000,-12.706200
  0.419000,-12.793600
  0.421000,-12.869100
  0.423000,-12.931300
  0.425000,-12.979800
  0.427000,-13.016700
  0.429000,-13.044600
  0.431000,-13.062600
  0.433000,-13.068900
  0.435000,-13.064800
  0.437000,-13.050500
  0.439000,-13.026300
  0.441000,-12.994700
  0.443000,-12.959200
  0.445000,-12.917900
  0.447000,-12.869000
  0.449000,-12.813800
  0.451000,-12.752800
  0.453000,-12.687700
  0.455000,-12.620600
  0.457000,-12.549900
  0.459000,-12.476500
  0.461000,-12.402300
  0.463000,-12.326100
  0.465000,-12.247400
  0.467000,-12.168200
  0.469000,-12.090200
  0.471000,-12.010300
  0.473000,-11.930400
  0.475000,-11.851200
  0.477000,-11.771500
  0.479000,-11.692800
  0.481000,-11.615700
  0.483000,-11.539600
  0.485000,-11.464200
  0.487000,-11.390000
  0.489000,-11.317300
  0.491000,-11.245700
  0.493000,-11.175300
  0.495000,-11.106100
  0.497000,-11.038300
  0.499000,-10.972000
  0.501000,-10.906900
  0.503000,-10.843000
  0.505000,-10.779800
  0.507000,-10.717300
  0.509000,-10.655600
  0.511000,-10.594900
  0.513000,-10.534900
  0.515000,-10.475500
  0.517000,-10.416600
  0.519000,-10.358100
  0.521000,-10.300200
  0.523000,-10.242500
  0.525000,-10.185100
  0.527000,-10.127200
  0.529000,-10.069300
  0.531000,-10.011800
  0.533000, -9.954000
  0.535000, -9.895600
  0.537000, -9.837300
  0.539000, -9.778600
  0.541000, -9.718100
  0.543000, -9.656900
  0.545000, -9.595500
  0.547000, -9.533300
  0.549000, -9.469600
  0.551000, -9.404400
  0.553000, -9.337800
  0.555000, -9.270000
  0.557000, -9.200700
  0.559000, -9.129800
  0.561000, -9.057400
  0.563000, -8.983800
  0.565000, -8.907700
  0.567000, -8.829300
  0.569000, -8.749500
  0.571000, -8.668100
  0.573000, -8.584800
  0.575000, -8.499400
  0.577000, -8.411900
  0.579000, -8.321600
  0.581000, -8.229100
  0.583000, -8.135000
  0.585000, -8.039300
  0.587000, -7.941300
  0.589000, -7.840400
  0.591000, -7.737500
  0.593000, -7.633000
  0.595000, -7.526300
  0.597000, -7.417200
  0.599000, -7.306600
  0.601000, -7.194300
  0.603000, -7.079600
  0.605000, -6.963100
  0.607000, -6.844800
  0.609000, -6.725000
  0.611000, -6.603600
  0.613000, -6.480800
  0.615000, -6.356800
  0.617000, -6.231300
  0.619000, -6.104500
  0.621000, -5.976800
  0.623000, -5.848500
  0.625000, -5.719700
  0.627000, -5.590400
  0.629000, -5.460600
  0.631000, -5.330300
  0.633000, -5.200200
  0.635000, -5.069700
  0.637000, -4.939100
  0.639000, -4.809000
  0.641000, -4.679500
  0.643000, -4.551000
  0.645000, -4.423500
  0.647000, -4.296700
  0.649000, -4.171000
  0.651000, -4.046200
  0.653000, -3.923100
  0.655000, -3.801900
  0.657000, -3.682400
  0.659000, -3.564500
  0.661000, -3.448400
  0.663000, -3.334600
  0.665000, -3.223100
  0.667000, -3.113700
  0.669000, -3.006300
  0.671000, -2.901600
  0.673000, -2.799600
  0.675000, -2.700100
  0.677000, -2.603700
  0.679000, -2.510500
  0.681000, -2.420000
  0.683000, -2.332100
  0.685000, -2.247400
  0.687000, -2.165700
  0.689000, -2.086500
  0.691000, -2.010300
  0.693000, -1.937500
  0.695000, -1.867400
  0.697000, -1.800100
  0.699000, -1.735800
  0.701000, -1.674400
  0.703000, -1.616100
  0.705000, -1.560800
  0.707000, -1.507900
  0.709000, -1.457900
  0.711000, -1.410800
  0.713000, -1.366200
  0.715000, -1.324000
  0.717000, -1.284800
  0.719000, -1.248100
  0.721000, -1.213800
  0.723000, -1.182000
  0.725000, -1.152200
  0.727000, -1.124300
  0.729000, -1.098600
  0.731000, -1.075000
  0.733000, -1.053400
  0.735000, -1.033600
  0.737000, -1.015600
  0.739000, -0.999300
  0.741000, -0.984500
  0.743000, -0.971000
  0.745000, -0.959300
  0.747000, -0.948900
  0.749000, -0.939500
  0.751000, -0.931400
  0.753000, -0.924500
  0.755000, -0.918600
  0.757000, -0.913400
  0.759000, -0.909100
  0.761000, -0.905500
  0.763000, -0.902800
  0.765000, -0.900800
  0.767000, -0.899100
  0.769000, -0.898100
  0.771000, -0.897600
  0.773000, -0.897700
  0.775000, -0.898100
  0.777000, -0.898600
  0.779000, -0.899500
  0.781000, -0.900700
  0.783000, -0.902000
  0.785000, -0.903500
  0.787000, -0.905100
  0.789000, -0.906800
  0.791000, -0.908500
  0.793000, -0.910400
  0.795000, -0.912200
  0.797000, -0.914000
  0.799000, -0.915900
  0.801000, -0.917700
  0.803000, -0.919400
  0.805000, -0.921100
  0.807000, -0.922700
  0.809000, -0.924200
  0.811000, -0.925400
  0.813000, -0.926600
  0.815000, -0.927700
  0.817000, -0.928400
  0.819000, -0.929100
  0.821000, -0.929600
  0.823000, -0.929800
  0.825000, -0.929900
  0.827000, -0.929900
  0.829000, -0.929600
  0.831000, -0.929100
  0.833000, -0.928500
  0.835000, -0.927700
  0.837000, -0.926600
  0.839000, -0.925400
  0.841000, -0.924000
  0.843000, -0.922300
  0.845000, -0.920300
  0.847000, -0.918000
  0.849000, -0.915400
  0.851000, -0.912800
  0.853000, -0.909800
  0.855000, -0.906500
  0.857000, -0.903100
  0.859000, -0.899600
  0.861000, -0.895700
  0.863000, -0.891400
  0.865000, -0.886900
  0.867000, -0.882200
  0.869000, -0.877300
  0.871000, -0.872200
  0.873000, -0.866700
  0.875000, -0.861000
  0.877000, -0.855000
  0.879000, -0.848700
  0.881000, -0.842200
  0.883000, -0.835500
  0.885000, -0.828400
  0.887000, -0.821000
  0.889000, -0.813500
  0.891000, -0.805600
  0.893000, -0.797600
  0.895000, -0.789100
  0.897000, -0.780300
  0.899000, -0.771300
  0.901000, -0.762000
  0.903000, -0.752600
  0.905000, -0.742900
  0.907000, -0.733000
  0.909000, -0.722800
  0.911000, -0.712500
  0.913000, -0.702000
  0.915000, -0.691200
  0.917000, -0.680300
  0.919000, -0.669200
  0.921000, -0.658100
  0.923000, -0.646700
  0.925000, -0.635100
  0.927000, -0.623500
  0.929000, -0.611900
  0.931000, -0.600100
  0.933000, -0.588100
  0.935000, -0.575900
  0.937000, -0.563900
  0.939000, -0.551900
  0.941000, -0.539700
  0.943000, -0.527600
  0.945000, -0.515500
  0.947000, -0.503300
  0.949000, -0.491100
  0.951000, -0.478900
  0.953000, -0.466900
  0.955000, -0.455200
  0.957000, -0.443300
  0.959000, -0.431400
  0.961000, -0.419800
  0.963000, -0.408200
  0.965000, -0.396800
  0.967000, -0.385600
  0.969000, -0.374500
  0.971000, -0.363700
  0.973000, -0.353000
  0.975000, -0.342400
  0.977000, -0.332200
  0.979000, -0.322300
  0.981000, -0.312500
  0.983000, -0.302900
  0.985000, -0.293300
  0.987000, -0.284100
  0.989000, -0.275500
  0.991000, -0.266900
  0.993000, -0.258400
  0.995000, -0.250100
  0.997000, -0.242100
  0.999000, -0.234600
  1.001000, -0.227300
  1.003000, -0.220200
  1.005000, -0.213200
  1.007000, -0.206600
  1.009000, -0.200300
  1.011000, -0.194300
  1.013000, -0.188400
  1.015000, -0.182900
  1.017000, -0.177600
  1.019000, -0.172600
  1.021000, -0.167700
  1.023000, -0.163000
  1.025000, -0.158400
  1.027000, -0.154000
  1.029000, -0.149600
  1.031000, -0.145500
  1.033000, -0.141700
  1.035000, -0.138100
  1.037000, -0.134600
  1.039000, -0.131300
  1.041000, -0.128200
  1.043000, -0.125200
  1.045000, -0.122300
  1.047000, -0.119700
  1.049000, -0.117100
  1.051000, -0.114500
  1.053000, -0.112100
  1.055000, -0.109800
  1.057000, -0.107500
  1.059000, -0.105200
  1.061000, -0.103000
  1.063000, -0.100900
  1.065000, -0.098900
  1.067000, -0.097100
  1.069000, -0.095100
  1.071000, -0.093300
  1.073000, -0.091700
  1.075000, -0.090100
  1.077000, -0.088600
  1.079000, -0.087300
  1.081000, -0.085900
  1.083000, -0.084600
  1.085000, -0.083400
  1.087000, -0.082200
  1.089000, -0.080900
  1.091000, -0.079500
  1.093000, -0.078400
  1.095000, -0.077300
  1.097000, -0.076300
  1.099000, -0.075400
  1.101000, -0.074500
  1.103000, -0.073600
  1.105000, -0.072700
  1.107000, -0.071800
  1.109000, -0.070900
  1.111000, -0.070100
  1.113000, -0.069300
  1.115000, -0.068600
  1.117000, -0.067800
  1.119000, -0.067100
  1.121000, -0.066500
  1.123000, -0.065800
  1.125000, -0.065000
  1.127000, -0.064300
  1.129000, -0.063800
  1.131000, -0.063100
  1.133000, -0.062400
  1.135000, -0.061900
  1.137000, -0.061200
  1.139000, -0.060600
  1.141000, -0.059900
  1.143000, -0.059300
  1.145000, -0.058700
  1.147000, -0.058100
  1.149000, -0.057600
  1.151000, -0.057100
  1.153000, -0.056600
  1.155000, -0.055900
  1.157000, -0.054800
  1.159000, -0.054100
  1.161000, -0.053700
  1.163000, -0.053100
  1.165000, -0.052300
  1.167000, -0.051600
  1.169000, -0.051100
  1.171000, -0.050700
  1.173000, -0.050300
  1.175000, -0.050000
  1.177000, -0.049400
  1.179000, -0.048700
  1.181000, -0.047900
  1.183000, -0.047400
  1.185000, -0.047200
  1.187000, -0.047000
  1.189000, -0.046600
  1.191000, -0.046100
  1.193000, -0.045800
  1.195000, -0.045600
  1.197000, -0.045400
  1.199000, -0.045100
  1.201000, -0.044700
  1.203000, -0.044400
  1.205000, -0.044400
  1.207000, -0.044500
  1.209000, -0.044400
  1.211000, -0.044400
  1.213000, -0.044500
  1.215000, -0.044600
  1.217000, -0.044400
  1.219000, -0.044200
  1.221000, -0.044100
  1.223000, -0.044200
  1.225000, -0.044100
  1.227000, -0.044100
  1.229000, -0.044200
  1.231000, -0.044300
  1.233000, -0.044200
  1.235000, -0.044100
  1.237000, -0.044100
  1.239000, -0.044100
  1.241000, -0.044000
  1.243000, -0.043800
  1.245000, -0.043700
  1.247000, -0.043500
  1.249000, -0.043100
  1.251000, -0.042800
  1.253000, -0.042500
  1.255000, -0.042200
  1.257000, -0.041800
  1.259000, -0.041300
  1.261000, -0.040600
  1.263000, -0.040000
  1.265000, -0.039200
  1.267000, -0.038500
  1.269000, -0.037700
  1.271000, -0.036600
  1.273000, -0.035600
  1.275000, -0.034500
  1.277000, -0.033300
  1.279000, -0.032200
  1.281000, -0.031200
  1.283000, -0.029900
  1.285000, -0.028400
  1.287000, -0.027100
  1.289000, -0.025700
  1.291000, -0.024300
  1.293000, -0.023000
  1.295000, -0.021700
  1.297000, -0.020300
  1.299000, -0.018900
  1.301000, -0.017500
  1.303000, -0.016000
  1.305000, -0.014300
  1.307000, -0.012600
  1.309000, -0.010900
  1.311000, -0.009300
  1.313000, -0.007500
  1.315000, -0.005800
  1.317000, -0.004000
  1.319000, -0.002100
  1.321000, -0.000000
  1.323000,  0.002100
  1.325000,  0.004200
  1.327000,  0.006200
  1.329000,  0.008200
  1.331000,  0.010200
  1.333000,  0.012400
  1.335000,  0.014700
  1.337000,  0.017100
  1.339000,  0.019500
  1.341000,  0.021900
  1.343000,  0.024500
  1.345000,  0.027200
  1.347000,  0.029800
  1.349000,  0.032600
  1.351000,  0.035600
  1.353000,  0.038600
  1.355000,  0.041600
  1.357000,  0.044600
  1.359000,  0.047900
  1.361000,  0.051000
  1.363000,  0.054200
  1.365000,  0.057500
  1.367000,  0.061100
  1.369000,  0.064700
  1.371000,  0.068200
  1.373000,  0.071700
  1.375000,  0.075200
  1.377000,  0.078600
  1.379000,  0.082300
  1.381000,  0.086300
  1.383000,  0.090200
  1.385000,  0.093800
  1.387000,  0.097100
  1.389000,  0.100200
  1.391000,  0.103100
  1.393000,  0.106000
  1.395000,  0.108700
  1.397000,  0.111100
  1.399000,  0.113100
