# z (nm)   (kJ/mol)
  0.271000,  8.489200
  0.275000,  6.759400
  0.277000,  5.892500
  0.279000,  5.043200
  0.281000,  4.188000
  0.283000,  3.302900
  0.285000,  2.424600
  0.287000,  1.554900
  0.289000,  0.688400
  0.291000, -0.171000
  0.293000, -1.031200
  0.295000, -1.884100
  0.297000, -2.727000
  0.299000, -3.560000
  0.301000, -4.379500
  0.303000, -5.181900
  0.305000, -5.971100
  0.307000, -6.743400
  0.309000, -7.494600
  0.311000, -8.226600
  0.313000, -8.940700
  0.315000, -9.634300
  0.317000,-10.306900
  0.319000,-10.961000
  0.321000,-11.594800
  0.323000,-12.204900
  0.325000,-12.794100
  0.327000,-13.367700
  0.329000,-13.922800
  0.331000,-14.457300
  0.333000,-14.973600
  0.335000,-15.472200
  0.337000,-15.953800
  0.339000,-16.418900
  0.341000,-16.867500
  0.343000,-17.298300
  0.345000,-17.713000
  0.347000,-18.109000
  0.349000,-18.486300
  0.351000,-18.846400
  0.353000,-19.189500
  0.355000,-19.512800
  0.357000,-19.816300
  0.359000,-20.103200
  0.361000,-20.369000
  0.363000,-20.615800
  0.365000,-20.842700
  0.367000,-21.050300
  0.369000,-21.235700
  0.371000,-21.398400
  0.373000,-21.547100
  0.375000,-21.678600
  0.377000,-21.795000
  0.379000,-21.889800
  0.381000,-21.966000
  0.383000,-22.028300
  0.385000,-22.071300
  0.387000,-22.101300
  0.389000,-22.114100
  0.391000,-22.108700
  0.393000,-22.091000
  0.395000,-22.060100
  0.397000,-22.016600
  0.399000,-21.960500
  0.401000,-21.893300
  0.403000,-21.815700
  0.405000,-21.724400
  0.407000,-21.623400
  0.409000,-21.515100
  0.411000,-21.398100
  0.413000,-21.275700
  0.415000,-21.146600
  0.417000,-21.011500
  0.419000,-20.870200
  0.421000,-20.723100
  0.423000,-20.573400
  0.425000,-20.419500
  0.427000,-20.262000
  0.429000,-20.101000
  0.431000,-19.937000
  0.433000,-19.771400
  0.435000,-19.604400
  0.437000,-19.436000
  0.439000,-19.266500
  0.441000,-19.096600
  0.443000,-18.926400
  0.445000,-18.755100
  0.447000,-18.583600
  0.449000,-18.412700
  0.451000,-18.242600
  0.453000,-18.073000
  0.455000,-17.904400
  0.457000,-17.737100
  0.459000,-17.570800
  0.461000,-17.405900
  0.463000,-17.243100
  0.465000,-17.081800
  0.467000,-16.922200
  0.469000,-16.764500
  0.471000,-16.608500
  0.473000,-16.454400
  0.475000,-16.302300
  0.477000,-16.151900
  0.479000,-16.003200
  0.481000,-15.856500
  0.483000,-15.712100
  0.485000,-15.569700
  0.487000,-15.429200
  0.489000,-15.290800
  0.491000,-15.154900
  0.493000,-15.021300
  0.495000,-14.889600
  0.497000,-14.759400
  0.499000,-14.630200
  0.501000,-14.502800
  0.503000,-14.377200
  0.505000,-14.252900
  0.507000,-14.130000
  0.509000,-14.008700
  0.511000,-13.888300
  0.513000,-13.768900
  0.515000,-13.650800
  0.517000,-13.533700
  0.519000,-13.417400
  0.521000,-13.301500
  0.523000,-13.185600
  0.525000,-13.069800
  0.527000,-12.954400
  0.529000,-12.838900
  0.531000,-12.723400
  0.533000,-12.607500
  0.535000,-12.491200
  0.537000,-12.373900
  0.539000,-12.255700
  0.541000,-12.136400
  0.543000,-12.015900
  0.545000,-11.894200
  0.547000,-11.771000
  0.549000,-11.646400
  0.551000,-11.520000
  0.553000,-11.391300
  0.555000,-11.260700
  0.557000,-11.128000
  0.559000,-10.993300
  0.561000,-10.856400
  0.563000,-10.717200
  0.565000,-10.575600
  0.567000,-10.431700
  0.569000,-10.285400
  0.571000,-10.136600
  0.573000, -9.984900
  0.575000, -9.830700
  0.577000, -9.674600
  0.579000, -9.516400
  0.581000, -9.355700
  0.583000, -9.192800
  0.585000, -9.028100
  0.587000, -8.861300
  0.589000, -8.692400
  0.591000, -8.521600
  0.593000, -8.349200
  0.595000, -8.175900
  0.597000, -8.001900
  0.599000, -7.826100
  0.601000, -7.648600
  0.603000, -7.470100
  0.605000, -7.291000
  0.607000, -7.111600
  0.609000, -6.931900
  0.611000, -6.752100
  0.613000, -6.572600
  0.615000, -6.394300
  0.617000, -6.217000
  0.619000, -6.040800
  0.621000, -5.866100
  0.623000, -5.692500
  0.625000, -5.520300
  0.627000, -5.350600
  0.629000, -5.182100
  0.631000, -5.014900
  0.633000, -4.850300
  0.635000, -4.688900
  0.637000, -4.531200
  0.639000, -4.376500
  0.641000, -4.224700
  0.643000, -4.076800
  0.645000, -3.933200
  0.647000, -3.793700
  0.649000, -3.657800
  0.651000, -3.525500
  0.653000, -3.398200
  0.655000, -3.275500
  0.657000, -3.155500
  0.659000, -3.039600
  0.661000, -2.929000
  0.663000, -2.823600
  0.665000, -2.723000
  0.667000, -2.627100
  0.669000, -2.535200
  0.671000, -2.447000
  0.673000, -2.363100
  0.675000, -2.284000
  0.677000, -2.209500
  0.679000, -2.140200
  0.681000, -2.075700
  0.683000, -2.014400
  0.685000, -1.957100
  0.687000, -1.904900
  0.689000, -1.856500
  0.691000, -1.811600
  0.693000, -1.770300
  0.695000, -1.732400
  0.697000, -1.697900
  0.699000, -1.666500
  0.701000, -1.638300
  0.703000, -1.613100
  0.705000, -1.590300
  0.707000, -1.570000
  0.709000, -1.552500
  0.711000, -1.537000
  0.713000, -1.523500
  0.715000, -1.511600
  0.717000, -1.501700
  0.719000, -1.494000
  0.721000, -1.487800
  0.723000, -1.483000
  0.725000, -1.479400
  0.727000, -1.476500
  0.729000, -1.474400
  0.731000, -1.472800
  0.733000, -1.471900
  0.735000, -1.471700
  0.737000, -1.472200
  0.739000, -1.473300
  0.741000, -1.474400
  0.743000, -1.475500
  0.745000, -1.476800
  0.747000, -1.478100
  0.749000, -1.479400
  0.751000, -1.480600
  0.753000, -1.481300
  0.755000, -1.481700
  0.757000, -1.482300
  0.759000, -1.482500
  0.761000, -1.482100
  0.763000, -1.481100
  0.765000, -1.479700
  0.767000, -1.477900
  0.769000, -1.475700
  0.771000, -1.472800
  0.773000, -1.469500
  0.775000, -1.466000
  0.777000, -1.461700
  0.779000, -1.456900
  0.781000, -1.451500
  0.783000, -1.445500
  0.785000, -1.438900
  0.787000, -1.431800
  0.789000, -1.424300
  0.791000, -1.416200
  0.793000, -1.407700
  0.795000, -1.398800
  0.797000, -1.389400
  0.799000, -1.379500
  0.801000, -1.369200
  0.803000, -1.358800
  0.805000, -1.348000
  0.807000, -1.336600
  0.809000, -1.324700
  0.811000, -1.312600
  0.813000, -1.300300
  0.815000, -1.287500
  0.817000, -1.274200
  0.819000, -1.260800
  0.821000, -1.247500
  0.823000, -1.233800
  0.825000, -1.219800
  0.827000, -1.205600
  0.829000, -1.191000
  0.831000, -1.176100
  0.833000, -1.161100
  0.835000, -1.145900
  0.837000, -1.130600
  0.839000, -1.115300
  0.841000, -1.099700
  0.843000, -1.083800
  0.845000, -1.067700
  0.847000, -1.051500
  0.849000, -1.035300
  0.851000, -1.018900
  0.853000, -1.002100
  0.855000, -0.985300
  0.857000, -0.968300
  0.859000, -0.951100
  0.861000, -0.933900
  0.863000, -0.916600
  0.865000, -0.899100
  0.867000, -0.881700
  0.869000, -0.864200
  0.871000, -0.846400
  0.873000, -0.828500
  0.875000, -0.810700
  0.877000, -0.793000
  0.879000, -0.775100
  0.881000, -0.757100
  0.883000, -0.739300
  0.885000, -0.721400
  0.887000, -0.703500
  0.889000, -0.685500
  0.891000, -0.667500
  0.893000, -0.649600
  0.895000, -0.631700
  0.897000, -0.613800
  0.899000, -0.596200
  0.901000, -0.578700
  0.903000, -0.561000
  0.905000, -0.543400
  0.907000, -0.525900
  0.909000, -0.508400
  0.911000, -0.491200
  0.913000, -0.474200
  0.915000, -0.457400
  0.917000, -0.440700
  0.919000, -0.424300
  0.921000, -0.407700
  0.923000, -0.391300
  0.925000, -0.375200
  0.927000, -0.359500
  0.929000, -0.343900
  0.931000, -0.328600
  0.933000, -0.313500
  0.935000, -0.298700
  0.937000, -0.284200
  0.939000, -0.270000
  0.941000, -0.255900
  0.943000, -0.242100
  0.945000, -0.228800
  0.947000, -0.215800
  0.949000, -0.203100
  0.951000, -0.190700
  0.953000, -0.178600
  0.955000, -0.166900
  0.957000, -0.155600
  0.959000, -0.144500
  0.961000, -0.133800
  0.963000, -0.123500
  0.965000, -0.113600
  0.967000, -0.104100
  0.969000, -0.094800
  0.971000, -0.085900
  0.973000, -0.077600
  0.975000, -0.069700
  0.977000, -0.062000
  0.979000, -0.054700
  0.981000, -0.047900
  0.983000, -0.041600
  0.985000, -0.035700
  0.987000, -0.030300
  0.989000, -0.025200
  0.991000, -0.020700
  0.993000, -0.016500
  0.995000, -0.012800
  0.997000, -0.009300
  0.999000, -0.006200
  1.001000, -0.003400
  1.003000, -0.000900
  1.005000,  0.001300
  1.007000,  0.003100
  1.009000,  0.004500
  1.011000,  0.005600
  1.013000,  0.006200
  1.015000,  0.006600
  1.017000,  0.006700
  1.019000,  0.006400
  1.021000,  0.005800
  1.023000,  0.004900
  1.025000,  0.003700
  1.027000,  0.002300
  1.029000,  0.000600
  1.031000, -0.001400
  1.033000, -0.003500
  1.035000, -0.005900
  1.037000, -0.008700
  1.039000, -0.011800
  1.041000, -0.014800
  1.043000, -0.017800
  1.045000, -0.021200
  1.047000, -0.024700
  1.049000, -0.028300
  1.051000, -0.032100
  1.053000, -0.035900
  1.055000, -0.039600
  1.057000, -0.043400
  1.059000, -0.047500
  1.061000, -0.051600
  1.063000, -0.055700
  1.065000, -0.060100
  1.067000, -0.064300
  1.069000, -0.068400
  1.071000, -0.072500
  1.073000, -0.076500
  1.075000, -0.080600
  1.077000, -0.084900
  1.079000, -0.088900
  1.081000, -0.092900
  1.083000, -0.097000
  1.085000, -0.100900
  1.087000, -0.104500
  1.089000, -0.108000
  1.091000, -0.111200
  1.093000, -0.114400
  1.095000, -0.117400
  1.097000, -0.120400
  1.099000, -0.123300
  1.101000, -0.125900
  1.103000, -0.128400
  1.105000, -0.130800
  1.107000, -0.132900
  1.109000, -0.134800
  1.111000, -0.136500
  1.113000, -0.137900
  1.115000, -0.139200
  1.117000, -0.140500
  1.119000, -0.141600
  1.121000, -0.142400
  1.123000, -0.142900
  1.125000, -0.143200
  1.127000, -0.143400
  1.129000, -0.143400
  1.131000, -0.143300
  1.133000, -0.142900
  1.135000, -0.142400
  1.137000, -0.141700
  1.139000, -0.140800
  1.141000, -0.139900
  1.143000, -0.138800
  1.145000, -0.137600
  1.147000, -0.136200
  1.149000, -0.134600
  1.151000, -0.132900
  1.153000, -0.131200
  1.155000, -0.129300
  1.157000, -0.127200
  1.159000, -0.125000
  1.161000, -0.122800
  1.163000, -0.120600
  1.165000, -0.118200
  1.167000, -0.115900
  1.169000, -0.113600
  1.171000, -0.111100
  1.173000, -0.108600
  1.175000, -0.106100
  1.177000, -0.103700
  1.179000, -0.101200
  1.181000, -0.098700
  1.183000, -0.096100
  1.185000, -0.093500
  1.187000, -0.091000
  1.189000, -0.088500
  1.191000, -0.086000
  1.193000, -0.083500
  1.195000, -0.081000
  1.197000, -0.078600
  1.199000, -0.076200
  1.201000, -0.073900
  1.203000, -0.071600
  1.205000, -0.069400
  1.207000, -0.067300
  1.209000, -0.065200
  1.211000, -0.063000
  1.213000, -0.061000
  1.215000, -0.059000
  1.217000, -0.057000
  1.219000, -0.055200
  1.221000, -0.053300
  1.223000, -0.051500
  1.225000, -0.049800
  1.227000, -0.048000
  1.229000, -0.046300
  1.231000, -0.044700
  1.233000, -0.043100
  1.235000, -0.041500
  1.237000, -0.040000
  1.239000, -0.038400
  1.241000, -0.036900
  1.243000, -0.035400
  1.245000, -0.034000
  1.247000, -0.032500
  1.249000, -0.031000
  1.251000, -0.029500
  1.253000, -0.028000
  1.255000, -0.026500
  1.257000, -0.024900
  1.259000, -0.023300
  1.261000, -0.021800
  1.263000, -0.020200
  1.265000, -0.018700
  1.267000, -0.017100
  1.269000, -0.015500
  1.271000, -0.014000
  1.273000, -0.012500
  1.275000, -0.010900
  1.277000, -0.009300
  1.279000, -0.007600
  1.281000, -0.006000
  1.283000, -0.004400
  1.285000, -0.002700
  1.287000, -0.001200
  1.289000,  0.000500
  1.291000,  0.002100
  1.293000,  0.003600
  1.295000,  0.005200
  1.297000,  0.006700
  1.299000,  0.008300
  1.301000,  0.010000
  1.303000,  0.011500
  1.305000,  0.013100
  1.307000,  0.014600
  1.309000,  0.016100
  1.311000,  0.017600
  1.313000,  0.019100
  1.315000,  0.020600
  1.317000,  0.021900
  1.319000,  0.023200
  1.321000,  0.024400
  1.323000,  0.025500
  1.325000,  0.026700
  1.327000,  0.027800
  1.329000,  0.028900
  1.331000,  0.030000
  1.333000,  0.030900
  1.335000,  0.031800
  1.337000,  0.032700
  1.339000,  0.033600
  1.341000,  0.034300
  1.343000,  0.034900
  1.345000,  0.035600
  1.347000,  0.036200
  1.349000,  0.036900
  1.351000,  0.037600
  1.353000,  0.038100
  1.355000,  0.038400
  1.357000,  0.038900
  1.359000,  0.039400
  1.361000,  0.039700
  1.363000,  0.039900
  1.365000,  0.040000
  1.367000,  0.040400
  1.369000,  0.040500
  1.371000,  0.040500
  1.373000,  0.040600
  1.375000,  0.040500
  1.377000,  0.040200
  1.379000,  0.040000
  1.381000,  0.039600
  1.383000,  0.039000
  1.385000,  0.038400
  1.387000,  0.037700
  1.389000,  0.036900
  1.391000,  0.035900
  1.393000,  0.034700
  1.395000,  0.033100
  1.397000,  0.031300
  1.399000,  0.029300
