# z (nm)   (kJ/mol)
  0.231000, 10.296500
  0.235000,  9.857200
  0.237000,  9.357500
  0.239000,  8.820700
  0.241000,  8.315400
  0.243000,  7.826700
  0.245000,  7.319700
  0.247000,  6.805100
  0.249000,  6.290500
  0.251000,  5.777000
  0.253000,  5.276000
  0.255000,  4.780600
  0.257000,  4.284400
  0.259000,  3.789500
  0.261000,  3.301600
  0.263000,  2.826000
  0.265000,  2.356700
  0.267000,  1.891100
  0.269000,  1.431500
  0.271000,  0.982800
  0.273000,  0.547300
  0.275000,  0.121600
  0.277000, -0.296800
  0.279000, -0.710900
  0.281000, -1.116200
  0.283000, -1.507100
  0.285000, -1.887500
  0.287000, -2.259900
  0.289000, -2.623000
  0.291000, -2.975200
  0.293000, -3.315100
  0.295000, -3.644500
  0.297000, -3.963800
  0.299000, -4.272000
  0.301000, -4.568400
  0.303000, -4.852300
  0.305000, -5.124200
  0.307000, -5.387400
  0.309000, -5.641000
  0.311000, -5.883000
  0.313000, -6.113400
  0.315000, -6.332900
  0.317000, -6.542100
  0.319000, -6.739900
  0.321000, -6.927500
  0.323000, -7.104300
  0.325000, -7.270100
  0.327000, -7.425300
  0.329000, -7.569600
  0.331000, -7.704600
  0.333000, -7.829600
  0.335000, -7.944600
  0.337000, -8.049900
  0.339000, -8.146100
  0.341000, -8.232400
  0.343000, -8.309700
  0.345000, -8.378600
  0.347000, -8.439100
  0.349000, -8.491200
  0.351000, -8.534900
  0.353000, -8.571300
  0.355000, -8.600100
  0.357000, -8.622500
  0.359000, -8.638500
  0.361000, -8.647600
  0.363000, -8.650100
  0.365000, -8.645500
  0.367000, -8.635600
  0.369000, -8.621400
  0.371000, -8.601100
  0.373000, -8.575100
  0.375000, -8.544600
  0.377000, -8.509500
  0.379000, -8.469900
  0.381000, -8.426100
  0.383000, -8.378100
  0.385000, -8.326700
  0.387000, -8.272100
  0.389000, -8.213700
  0.391000, -8.151600
  0.393000, -8.086100
  0.395000, -8.017600
  0.397000, -7.946200
  0.399000, -7.871800
  0.401000, -7.794300
  0.403000, -7.713900
  0.405000, -7.630900
  0.407000, -7.545300
  0.409000, -7.457300
  0.411000, -7.366600
  0.413000, -7.273400
  0.415000, -7.177800
  0.417000, -7.079900
  0.419000, -6.979900
  0.421000, -6.878100
  0.423000, -6.774200
  0.425000, -6.668100
  0.427000, -6.560200
  0.429000, -6.450600
  0.431000, -6.339000
  0.433000, -6.225500
  0.435000, -6.110800
  0.437000, -5.994600
  0.439000, -5.876800
  0.441000, -5.757600
  0.443000, -5.637500
  0.445000, -5.516700
  0.447000, -5.394700
  0.449000, -5.271800
  0.451000, -5.148100
  0.453000, -5.023700
  0.455000, -4.898900
  0.457000, -4.774000
  0.459000, -4.648800
  0.461000, -4.523400
  0.463000, -4.398300
  0.465000, -4.273000
  0.467000, -4.147800
  0.469000, -4.023100
  0.471000, -3.899000
  0.473000, -3.775300
  0.475000, -3.652400
  0.477000, -3.530200
  0.479000, -3.409100
  0.481000, -3.289100
  0.483000, -3.170000
  0.485000, -3.052200
  0.487000, -2.936000
  0.489000, -2.821100
  0.491000, -2.707700
  0.493000, -2.595900
  0.495000, -2.485900
  0.497000, -2.377900
  0.499000, -2.271700
  0.501000, -2.167600
  0.503000, -2.065500
  0.505000, -1.965200
  0.507000, -1.866900
  0.509000, -1.771300
  0.511000, -1.677700
  0.513000, -1.586300
  0.515000, -1.496900
  0.517000, -1.409600
  0.519000, -1.325000
  0.521000, -1.242800
  0.523000, -1.162900
  0.525000, -1.085500
  0.527000, -1.010800
  0.529000, -0.938300
  0.531000, -0.868100
  0.533000, -0.800500
  0.535000, -0.735400
  0.537000, -0.672800
  0.539000, -0.612900
  0.541000, -0.555300
  0.543000, -0.500000
  0.545000, -0.447000
  0.547000, -0.396400
  0.549000, -0.348500
  0.551000, -0.302800
  0.553000, -0.259300
  0.555000, -0.218400
  0.557000, -0.180000
  0.559000, -0.143900
  0.561000, -0.109900
  0.563000, -0.078300
  0.565000, -0.048900
  0.567000, -0.021800
  0.569000,  0.003300
  0.571000,  0.026200
  0.573000,  0.046900
  0.575000,  0.065300
  0.577000,  0.081900
  0.579000,  0.096500
  0.581000,  0.109200
  0.583000,  0.120200
  0.585000,  0.129000
  0.587000,  0.136100
  0.589000,  0.141300
  0.591000,  0.144800
  0.593000,  0.146800
  0.595000,  0.147100
  0.597000,  0.145800
  0.599000,  0.142900
  0.601000,  0.138500
  0.603000,  0.132900
  0.605000,  0.125900
  0.607000,  0.117300
  0.609000,  0.107500
  0.611000,  0.096600
  0.613000,  0.084600
  0.615000,  0.071500
  0.617000,  0.057400
  0.619000,  0.042300
  0.621000,  0.026000
  0.623000,  0.009000
  0.625000, -0.008600
  0.627000, -0.026800
  0.629000, -0.045600
  0.631000, -0.065200
  0.633000, -0.085000
  0.635000, -0.105300
  0.637000, -0.126200
  0.639000, -0.147400
  0.641000, -0.169200
  0.643000, -0.190900
  0.645000, -0.212800
  0.647000, -0.235000
  0.649000, -0.256800
  0.651000, -0.278800
  0.653000, -0.300900
  0.655000, -0.322900
  0.657000, -0.344800
  0.659000, -0.366400
  0.661000, -0.387600
  0.663000, -0.408600
  0.665000, -0.429100
  0.667000, -0.449200
  0.669000, -0.469200
  0.671000, -0.488800
  0.673000, -0.507700
  0.675000, -0.526100
  0.677000, -0.544100
  0.679000, -0.561300
  0.681000, -0.577800
  0.683000, -0.593600
  0.685000, -0.608600
  0.687000, -0.623100
  0.689000, -0.636900
  0.691000, -0.649600
  0.693000, -0.661600
  0.695000, -0.673000
  0.697000, -0.683500
  0.699000, -0.693300
  0.701000, -0.702300
  0.703000, -0.710300
  0.705000, -0.717400
  0.707000, -0.723800
  0.709000, -0.729400
  0.711000, -0.734100
  0.713000, -0.738100
  0.715000, -0.741200
  0.717000, -0.743500
  0.719000, -0.744900
  0.721000, -0.745500
  0.723000, -0.745500
  0.725000, -0.744500
  0.727000, -0.742700
  0.729000, -0.740200
  0.731000, -0.737000
  0.733000, -0.733000
  0.735000, -0.728200
  0.737000, -0.722900
  0.739000, -0.716900
  0.741000, -0.710200
  0.743000, -0.703000
  0.745000, -0.695100
  0.747000, -0.686600
  0.749000, -0.677600
  0.751000, -0.667900
  0.753000, -0.657700
  0.755000, -0.647100
  0.757000, -0.636000
  0.759000, -0.624400
  0.761000, -0.612500
  0.763000, -0.600200
  0.765000, -0.587600
  0.767000, -0.574700
  0.769000, -0.561400
  0.771000, -0.547800
  0.773000, -0.534000
  0.775000, -0.520000
  0.777000, -0.505700
  0.779000, -0.491200
  0.781000, -0.476600
  0.783000, -0.462000
  0.785000, -0.447100
  0.787000, -0.432200
  0.789000, -0.417200
  0.791000, -0.402100
  0.793000, -0.386900
  0.795000, -0.371700
  0.797000, -0.356500
  0.799000, -0.341400
  0.801000, -0.326200
  0.803000, -0.311100
  0.805000, -0.296200
  0.807000, -0.281300
  0.809000, -0.266500
  0.811000, -0.251800
  0.813000, -0.237300
  0.815000, -0.222800
  0.817000, -0.208400
  0.819000, -0.194400
  0.821000, -0.180600
  0.823000, -0.166900
  0.825000, -0.153400
  0.827000, -0.140200
  0.829000, -0.127300
  0.831000, -0.114600
  0.833000, -0.102300
  0.835000, -0.090200
  0.837000, -0.078300
  0.839000, -0.066700
  0.841000, -0.055400
  0.843000, -0.044500
  0.845000, -0.033800
  0.847000, -0.023600
  0.849000, -0.013500
  0.851000, -0.003800
  0.853000,  0.005400
  0.855000,  0.014300
  0.857000,  0.022700
  0.859000,  0.030800
  0.861000,  0.038500
  0.863000,  0.045800
  0.865000,  0.052800
  0.867000,  0.059300
  0.869000,  0.065400
  0.871000,  0.071100
  0.873000,  0.076500
  0.875000,  0.081300
  0.877000,  0.085700
  0.879000,  0.089800
  0.881000,  0.093500
  0.883000,  0.096600
  0.885000,  0.099400
  0.887000,  0.101800
  0.889000,  0.103700
  0.891000,  0.105100
  0.893000,  0.106200
  0.895000,  0.107000
  0.897000,  0.107400
  0.899000,  0.107400
  0.901000,  0.107100
  0.903000,  0.106400
  0.905000,  0.105300
  0.907000,  0.104000
  0.909000,  0.102300
  0.911000,  0.100200
  0.913000,  0.097800
  0.915000,  0.095000
  0.917000,  0.092100
  0.919000,  0.088900
  0.921000,  0.085300
  0.923000,  0.081500
  0.925000,  0.077500
  0.927000,  0.073300
  0.929000,  0.068800
  0.931000,  0.064100
  0.933000,  0.059400
  0.935000,  0.054300
  0.937000,  0.049000
  0.939000,  0.043600
  0.941000,  0.038100
  0.943000,  0.032500
  0.945000,  0.026700
  0.947000,  0.020700
  0.949000,  0.014600
  0.951000,  0.008500
  0.953000,  0.002100
  0.955000, -0.004200
  0.957000, -0.010600
  0.959000, -0.017000
  0.961000, -0.023400
  0.963000, -0.029900
  0.965000, -0.036500
  0.967000, -0.043000
  0.969000, -0.049500
  0.971000, -0.056000
  0.973000, -0.062400
  0.975000, -0.068900
  0.977000, -0.075100
  0.979000, -0.081300
  0.981000, -0.087500
  0.983000, -0.093700
  0.985000, -0.099700
  0.987000, -0.105600
  0.989000, -0.111400
  0.991000, -0.117100
  0.993000, -0.122500
  0.995000, -0.127800
  0.997000, -0.133000
  0.999000, -0.138000
  1.001000, -0.142900
  1.003000, -0.147500
  1.005000, -0.152000
  1.007000, -0.156300
  1.009000, -0.160300
  1.011000, -0.164100
  1.013000, -0.167700
  1.015000, -0.171000
  1.017000, -0.174100
  1.019000, -0.177000
  1.021000, -0.179600
  1.023000, -0.181900
  1.025000, -0.184000
  1.027000, -0.185800
  1.029000, -0.187400
  1.031000, -0.188800
  1.033000, -0.189900
  1.035000, -0.190800
  1.037000, -0.191600
  1.039000, -0.192100
  1.041000, -0.192300
  1.043000, -0.192200
  1.045000, -0.192000
  1.047000, -0.191600
  1.049000, -0.191100
  1.051000, -0.190400
  1.053000, -0.189500
  1.055000, -0.188500
  1.057000, -0.187300
  1.059000, -0.185900
  1.061000, -0.184400
  1.063000, -0.182700
  1.065000, -0.181000
  1.067000, -0.179000
  1.069000, -0.177100
  1.071000, -0.175000
  1.073000, -0.172900
  1.075000, -0.170500
  1.077000, -0.168000
  1.079000, -0.165600
  1.081000, -0.163200
  1.083000, -0.160600
  1.085000, -0.157900
  1.087000, -0.155300
  1.089000, -0.152700
  1.091000, -0.150000
  1.093000, -0.147200
  1.095000, -0.144400
  1.097000, -0.141700
  1.099000, -0.139000
  1.101000, -0.136300
  1.103000, -0.133500
  1.105000, -0.130800
  1.107000, -0.128100
  1.109000, -0.125300
  1.111000, -0.122600
  1.113000, -0.119800
  1.115000, -0.117000
  1.117000, -0.114300
  1.119000, -0.111700
  1.121000, -0.109100
  1.123000, -0.106500
  1.125000, -0.103900
  1.127000, -0.101400
  1.129000, -0.098700
  1.131000, -0.096000
  1.133000, -0.093300
  1.135000, -0.090600
  1.137000, -0.088000
  1.139000, -0.085500
  1.141000, -0.083000
  1.143000, -0.080400
  1.145000, -0.077800
  1.147000, -0.075400
  1.149000, -0.073000
  1.151000, -0.070700
  1.153000, -0.068200
  1.155000, -0.065700
  1.157000, -0.063300
  1.159000, -0.060900
  1.161000, -0.058700
  1.163000, -0.056500
  1.165000, -0.054300
  1.167000, -0.052200
  1.169000, -0.050200
  1.171000, -0.048100
  1.173000, -0.046000
  1.175000, -0.044000
  1.177000, -0.042000
  1.179000, -0.040000
  1.181000, -0.038200
  1.183000, -0.036400
  1.185000, -0.034700
  1.187000, -0.032900
  1.189000, -0.031200
  1.191000, -0.029600
  1.193000, -0.027800
  1.195000, -0.026200
  1.197000, -0.024600
  1.199000, -0.023000
  1.201000, -0.021400
  1.203000, -0.019900
  1.205000, -0.018300
  1.207000, -0.016800
  1.209000, -0.015500
  1.211000, -0.014100
  1.213000, -0.012800
  1.215000, -0.011500
  1.217000, -0.010200
  1.219000, -0.009000
  1.221000, -0.007800
  1.223000, -0.006700
  1.225000, -0.005600
  1.227000, -0.004500
  1.229000, -0.003600
  1.231000, -0.002700
  1.233000, -0.001800
  1.235000, -0.001000
  1.237000, -0.000200
  1.239000,  0.000600
  1.241000,  0.001300
  1.243000,  0.002000
  1.245000,  0.002600
  1.247000,  0.003200
  1.249000,  0.003700
  1.251000,  0.004100
  1.253000,  0.004400
  1.255000,  0.004600
  1.257000,  0.004700
  1.259000,  0.004900
  1.261000,  0.004900
  1.263000,  0.004800
  1.265000,  0.004700
  1.267000,  0.004600
  1.269000,  0.004300
  1.271000,  0.004000
  1.273000,  0.003600
  1.275000,  0.003200
  1.277000,  0.002800
  1.279000,  0.002300
  1.281000,  0.001800
  1.283000,  0.001200
  1.285000,  0.000600
  1.287000, -0.000100
  1.289000, -0.000800
  1.291000, -0.001700
  1.293000, -0.002500
  1.295000, -0.003300
  1.297000, -0.004100
  1.299000, -0.005000
  1.301000, -0.005800
  1.303000, -0.006800
  1.305000, -0.007700
  1.307000, -0.008600
  1.309000, -0.009500
  1.311000, -0.010400
  1.313000, -0.011200
  1.315000, -0.011900
  1.317000, -0.012600
  1.319000, -0.013300
  1.321000, -0.013800
  1.323000, -0.014400
  1.325000, -0.014700
  1.327000, -0.014900
  1.329000, -0.015000
  1.331000, -0.015100
  1.333000, -0.015100
  1.335000, -0.014900
  1.337000, -0.014700
  1.339000, -0.014300
  1.341000, -0.013800
  1.343000, -0.013100
  1.345000, -0.012200
  1.347000, -0.011100
  1.349000, -0.010000
  1.351000, -0.008700
  1.353000, -0.007100
  1.355000, -0.005500
  1.357000, -0.003800
  1.359000, -0.001900
  1.361000,  0.000200
  1.363000,  0.002300
  1.365000,  0.004500
  1.367000,  0.006800
  1.369000,  0.009400
  1.371000,  0.011900
  1.373000,  0.014500
  1.375000,  0.017200
  1.377000,  0.020000
  1.379000,  0.022800
  1.381000,  0.025900
  1.383000,  0.029000
  1.385000,  0.031900
  1.387000,  0.034800
  1.389000,  0.037300
  1.391000,  0.039800
  1.393000,  0.042200
  1.395000,  0.044500
  1.397000,  0.046300
  1.399000,  0.048000
