# z (nm)   (kJ/mol)
  0.251000,  7.882000
  0.253000,  7.438600
  0.255000,  7.004500
  0.257000,  6.542600
  0.259000,  6.074400
  0.261000,  5.611500
  0.263000,  5.155000
  0.265000,  4.699800
  0.267000,  4.229900
  0.269000,  3.766700
  0.271000,  3.300400
  0.273000,  2.835100
  0.275000,  2.372400
  0.277000,  1.902000
  0.279000,  1.440300
  0.281000,  0.991600
  0.283000,  0.542200
  0.285000,  0.095100
  0.287000, -0.349100
  0.289000, -0.790400
  0.291000, -1.220400
  0.293000, -1.643400
  0.295000, -2.065400
  0.297000, -2.479700
  0.299000, -2.885400
  0.301000, -3.283800
  0.303000, -3.672300
  0.305000, -4.051400
  0.307000, -4.423800
  0.309000, -4.790200
  0.311000, -5.147400
  0.313000, -5.495700
  0.315000, -5.836100
  0.317000, -6.169600
  0.319000, -6.494700
  0.321000, -6.808400
  0.323000, -7.113500
  0.325000, -7.410300
  0.327000, -7.695600
  0.329000, -7.970800
  0.331000, -8.236800
  0.333000, -8.492500
  0.335000, -8.738200
  0.337000, -8.973700
  0.339000, -9.198000
  0.341000, -9.411700
  0.343000, -9.615000
  0.345000, -9.807800
  0.347000, -9.990700
  0.349000,-10.163000
  0.351000,-10.324200
  0.353000,-10.475300
  0.355000,-10.616600
  0.357000,-10.748100
  0.359000,-10.869200
  0.361000,-10.979800
  0.363000,-11.080300
  0.365000,-11.171800
  0.367000,-11.254100
  0.369000,-11.326800
  0.371000,-11.390100
  0.373000,-11.444600
  0.375000,-11.491600
  0.377000,-11.530600
  0.379000,-11.561000
  0.381000,-11.582900
  0.383000,-11.596800
  0.385000,-11.604300
  0.387000,-11.604800
  0.389000,-11.598100
  0.391000,-11.584700
  0.393000,-11.564800
  0.395000,-11.538400
  0.397000,-11.506000
  0.399000,-11.468500
  0.401000,-11.425900
  0.403000,-11.378100
  0.405000,-11.325400
  0.407000,-11.267700
  0.409000,-11.205600
  0.411000,-11.139200
  0.413000,-11.068800
  0.415000,-10.994900
  0.417000,-10.916900
  0.419000,-10.834300
  0.421000,-10.747600
  0.423000,-10.657900
  0.425000,-10.565500
  0.427000,-10.470400
  0.429000,-10.371800
  0.431000,-10.270400
  0.433000,-10.166500
  0.435000,-10.059900
  0.437000, -9.950800
  0.439000, -9.839100
  0.441000, -9.725100
  0.443000, -9.609200
  0.445000, -9.491200
  0.447000, -9.370700
  0.449000, -9.248600
  0.451000, -9.124900
  0.453000, -8.998900
  0.455000, -8.871200
  0.457000, -8.741900
  0.459000, -8.611500
  0.461000, -8.479100
  0.463000, -8.344500
  0.465000, -8.208900
  0.467000, -8.072400
  0.469000, -7.934600
  0.471000, -7.795500
  0.473000, -7.655300
  0.475000, -7.514300
  0.477000, -7.372400
  0.479000, -7.229800
  0.481000, -7.086300
  0.483000, -6.942300
  0.485000, -6.797900
  0.487000, -6.652900
  0.489000, -6.507300
  0.491000, -6.361400
  0.493000, -6.215400
  0.495000, -6.069100
  0.497000, -5.922500
  0.499000, -5.776000
  0.501000, -5.629800
  0.503000, -5.483800
  0.505000, -5.338000
  0.507000, -5.192500
  0.509000, -5.047700
  0.511000, -4.903200
  0.513000, -4.759400
  0.515000, -4.616600
  0.517000, -4.474400
  0.519000, -4.332800
  0.521000, -4.191800
  0.523000, -4.052200
  0.525000, -3.914000
  0.527000, -3.776800
  0.529000, -3.641200
  0.531000, -3.507000
  0.533000, -3.374200
  0.535000, -3.242800
  0.537000, -3.113500
  0.539000, -2.986000
  0.541000, -2.860000
  0.543000, -2.736300
  0.545000, -2.614700
  0.547000, -2.495000
  0.549000, -2.377100
  0.551000, -2.261600
  0.553000, -2.149000
  0.555000, -2.038100
  0.557000, -1.930000
  0.559000, -1.825100
  0.561000, -1.722000
  0.563000, -1.621900
  0.565000, -1.524700
  0.567000, -1.429600
  0.569000, -1.337300
  0.571000, -1.248200
  0.573000, -1.161500
  0.575000, -1.077900
  0.577000, -0.997300
  0.579000, -0.919400
  0.581000, -0.844600
  0.583000, -0.773000
  0.585000, -0.704600
  0.587000, -0.639400
  0.589000, -0.577400
  0.591000, -0.518400
  0.593000, -0.462400
  0.595000, -0.409400
  0.597000, -0.359200
  0.599000, -0.311900
  0.601000, -0.267200
  0.603000, -0.225400
  0.605000, -0.186900
  0.607000, -0.151200
  0.609000, -0.118300
  0.611000, -0.088300
  0.613000, -0.060900
  0.615000, -0.036100
  0.617000, -0.014100
  0.619000,  0.005400
  0.621000,  0.022400
  0.623000,  0.036700
  0.625000,  0.048700
  0.627000,  0.058600
  0.629000,  0.066100
  0.631000,  0.071300
  0.633000,  0.074500
  0.635000,  0.075600
  0.637000,  0.074600
  0.639000,  0.071700
  0.641000,  0.067000
  0.643000,  0.060600
  0.645000,  0.052400
  0.647000,  0.042600
  0.649000,  0.031300
  0.651000,  0.018500
  0.653000,  0.004600
  0.655000, -0.010800
  0.657000, -0.027500
  0.659000, -0.045200
  0.661000, -0.063900
  0.663000, -0.083400
  0.665000, -0.103600
  0.667000, -0.124700
  0.669000, -0.146500
  0.671000, -0.168700
  0.673000, -0.191400
  0.675000, -0.214500
  0.677000, -0.238100
  0.679000, -0.261900
  0.681000, -0.285800
  0.683000, -0.309900
  0.685000, -0.334200
  0.687000, -0.358500
  0.689000, -0.382500
  0.691000, -0.406500
  0.693000, -0.430200
  0.695000, -0.453600
  0.697000, -0.476600
  0.699000, -0.499300
  0.701000, -0.521500
  0.703000, -0.543100
  0.705000, -0.564200
  0.707000, -0.584800
  0.709000, -0.604900
  0.711000, -0.624100
  0.713000, -0.642500
  0.715000, -0.660200
  0.717000, -0.677100
  0.719000, -0.693100
  0.721000, -0.708500
  0.723000, -0.722800
  0.725000, -0.736100
  0.727000, -0.748500
  0.729000, -0.759900
  0.731000, -0.770300
  0.733000, -0.779800
  0.735000, -0.788500
  0.737000, -0.796000
  0.739000, -0.802600
  0.741000, -0.808200
  0.743000, -0.812700
  0.745000, -0.816300
  0.747000, -0.819000
  0.749000, -0.820700
  0.751000, -0.821300
  0.753000, -0.821100
  0.755000, -0.820100
  0.757000, -0.818100
  0.759000, -0.815200
  0.761000, -0.811500
  0.763000, -0.807000
  0.765000, -0.801600
  0.767000, -0.795500
  0.769000, -0.788500
  0.771000, -0.780700
  0.773000, -0.772300
  0.775000, -0.763300
  0.777000, -0.753700
  0.779000, -0.743400
  0.781000, -0.732400
  0.783000, -0.720900
  0.785000, -0.708900
  0.787000, -0.696600
  0.789000, -0.683800
  0.791000, -0.670400
  0.793000, -0.656600
  0.795000, -0.642400
  0.797000, -0.628000
  0.799000, -0.613500
  0.801000, -0.598600
  0.803000, -0.583400
  0.805000, -0.568100
  0.807000, -0.552800
  0.809000, -0.537300
  0.811000, -0.521800
  0.813000, -0.506100
  0.815000, -0.490400
  0.817000, -0.474400
  0.819000, -0.458400
  0.821000, -0.442500
  0.823000, -0.426600
  0.825000, -0.410800
  0.827000, -0.395000
  0.829000, -0.379300
  0.831000, -0.363700
  0.833000, -0.348200
  0.835000, -0.332800
  0.837000, -0.317600
  0.839000, -0.302500
  0.841000, -0.287500
  0.843000, -0.272800
  0.845000, -0.258300
  0.847000, -0.243900
  0.849000, -0.229700
  0.851000, -0.215700
  0.853000, -0.201800
  0.855000, -0.188100
  0.857000, -0.174800
  0.859000, -0.161600
  0.861000, -0.148600
  0.863000, -0.136000
  0.865000, -0.123700
  0.867000, -0.111700
  0.869000, -0.100000
  0.871000, -0.088600
  0.873000, -0.077500
  0.875000, -0.066700
  0.877000, -0.056200
  0.879000, -0.046000
  0.881000, -0.036100
  0.883000, -0.026600
  0.885000, -0.017300
  0.887000, -0.008500
  0.889000, -0.000100
  0.891000,  0.008000
  0.893000,  0.015800
  0.895000,  0.023300
  0.897000,  0.030400
  0.899000,  0.037200
  0.901000,  0.043600
  0.903000,  0.049800
  0.905000,  0.055700
  0.907000,  0.061300
  0.909000,  0.066500
  0.911000,  0.071300
  0.913000,  0.075900
  0.915000,  0.080100
  0.917000,  0.083900
  0.919000,  0.087300
  0.921000,  0.090500
  0.923000,  0.093300
  0.925000,  0.095800
  0.927000,  0.097900
  0.929000,  0.099800
  0.931000,  0.101500
  0.933000,  0.102800
  0.935000,  0.103900
  0.937000,  0.104700
  0.939000,  0.105100
  0.941000,  0.105300
  0.943000,  0.105200
  0.945000,  0.104800
  0.947000,  0.104000
  0.949000,  0.103100
  0.951000,  0.102000
  0.953000,  0.100800
  0.955000,  0.099300
  0.957000,  0.097500
  0.959000,  0.095400
  0.961000,  0.093200
  0.963000,  0.090800
  0.965000,  0.088100
  0.967000,  0.085100
  0.969000,  0.082000
  0.971000,  0.078700
  0.973000,  0.075300
  0.975000,  0.071900
  0.977000,  0.068300
  0.979000,  0.064600
  0.981000,  0.060700
  0.983000,  0.056700
  0.985000,  0.052500
  0.987000,  0.048300
  0.989000,  0.044100
  0.991000,  0.039700
  0.993000,  0.035200
  0.995000,  0.030700
  0.997000,  0.026300
  0.999000,  0.021700
  1.001000,  0.017200
  1.003000,  0.012800
  1.005000,  0.008300
  1.007000,  0.003900
  1.009000, -0.000500
  1.011000, -0.004900
  1.013000, -0.009200
  1.015000, -0.013500
  1.017000, -0.017700
  1.019000, -0.021700
  1.021000, -0.025800
  1.023000, -0.029600
  1.025000, -0.033300
  1.027000, -0.036900
  1.029000, -0.040300
  1.031000, -0.043700
  1.033000, -0.047200
  1.035000, -0.050500
  1.037000, -0.053500
  1.039000, -0.056300
  1.041000, -0.058900
  1.043000, -0.061200
  1.045000, -0.063400
  1.047000, -0.065600
  1.049000, -0.067600
  1.051000, -0.069400
  1.053000, -0.071000
  1.055000, -0.072500
  1.057000, -0.073800
  1.059000, -0.075000
  1.061000, -0.076000
  1.063000, -0.076800
  1.065000, -0.077500
  1.067000, -0.077800
  1.069000, -0.078100
  1.071000, -0.078300
  1.073000, -0.078300
  1.075000, -0.078200
  1.077000, -0.077900
  1.079000, -0.077400
  1.081000, -0.076800
  1.083000, -0.075900
  1.085000, -0.074800
  1.087000, -0.073700
  1.089000, -0.072300
  1.091000, -0.071000
  1.093000, -0.069500
  1.095000, -0.067900
  1.097000, -0.066100
  1.099000, -0.064100
  1.101000, -0.062100
  1.103000, -0.060000
  1.105000, -0.057800
  1.107000, -0.055500
  1.109000, -0.053100
  1.111000, -0.050500
  1.113000, -0.047700
  1.115000, -0.045000
  1.117000, -0.042300
  1.119000, -0.039500
  1.121000, -0.036600
  1.123000, -0.033700
  1.125000, -0.030700
  1.127000, -0.027800
  1.129000, -0.024700
  1.131000, -0.021600
  1.133000, -0.018500
  1.135000, -0.015600
  1.137000, -0.012600
  1.139000, -0.009500
  1.141000, -0.006400
  1.143000, -0.003400
  1.145000, -0.000500
  1.147000,  0.002500
  1.149000,  0.005400
  1.151000,  0.008300
  1.153000,  0.011200
  1.155000,  0.013900
  1.157000,  0.016600
  1.159000,  0.019200
  1.161000,  0.021700
  1.163000,  0.024100
  1.165000,  0.026400
  1.167000,  0.028600
  1.169000,  0.030600
  1.171000,  0.032600
  1.173000,  0.034400
  1.175000,  0.036200
  1.177000,  0.037900
  1.179000,  0.039400
  1.181000,  0.040700
  1.183000,  0.042000
  1.185000,  0.043300
  1.187000,  0.044300
  1.189000,  0.045200
  1.191000,  0.046100
  1.193000,  0.046800
  1.195000,  0.047600
  1.197000,  0.048400
  1.199000,  0.048900
  1.201000,  0.049200
  1.203000,  0.049400
  1.205000,  0.049600
  1.207000,  0.049700
  1.209000,  0.049700
  1.211000,  0.049500
  1.213000,  0.049300
  1.215000,  0.048900
  1.217000,  0.048500
  1.219000,  0.048100
  1.221000,  0.047700
  1.223000,  0.047100
  1.225000,  0.046500
  1.227000,  0.045800
  1.229000,  0.045000
  1.231000,  0.044100
  1.233000,  0.043200
  1.235000,  0.042200
  1.237000,  0.041100
  1.239000,  0.039900
  1.241000,  0.038700
  1.243000,  0.037300
  1.245000,  0.035900
  1.247000,  0.034500
  1.249000,  0.033000
  1.251000,  0.031500
  1.253000,  0.029800
  1.255000,  0.028000
  1.257000,  0.026100
  1.259000,  0.024200
  1.261000,  0.022300
  1.263000,  0.020400
  1.265000,  0.018500
  1.267000,  0.016400
  1.269000,  0.014300
  1.271000,  0.012300
  1.273000,  0.010300
  1.275000,  0.008400
  1.277000,  0.006300
  1.279000,  0.004100
  1.281000,  0.001900
  1.283000, -0.000200
  1.285000, -0.002400
  1.287000, -0.004600
  1.289000, -0.006800
  1.291000, -0.008900
  1.293000, -0.011100
  1.295000, -0.013200
  1.297000, -0.015300
  1.299000, -0.017300
  1.301000, -0.019300
  1.303000, -0.021300
  1.305000, -0.023200
  1.307000, -0.024900
  1.309000, -0.026600
  1.311000, -0.028300
  1.313000, -0.030000
  1.315000, -0.031500
  1.317000, -0.032800
  1.319000, -0.034000
  1.321000, -0.035000
  1.323000, -0.035900
  1.325000, -0.036600
  1.327000, -0.037300
  1.329000, -0.037900
  1.331000, -0.038300
  1.333000, -0.038500
  1.335000, -0.038700
  1.337000, -0.038800
  1.339000, -0.038700
  1.341000, -0.038400
  1.343000, -0.038100
  1.345000, -0.037600
  1.347000, -0.037000
  1.349000, -0.036400
  1.351000, -0.035600
  1.353000, -0.034600
  1.355000, -0.033600
  1.357000, -0.032400
  1.359000, -0.031200
  1.361000, -0.029900
  1.363000, -0.028700
  1.365000, -0.027300
  1.367000, -0.025700
  1.369000, -0.024200
  1.371000, -0.022800
  1.373000, -0.021300
  1.375000, -0.019700
  1.377000, -0.018000
  1.379000, -0.016400
  1.381000, -0.014900
  1.383000, -0.013300
  1.385000, -0.011900
  1.387000, -0.010700
  1.389000, -0.009600
  1.391000, -0.008700
  1.393000, -0.008100
  1.395000, -0.007900
  1.397000, -0.008000
  1.399000, -0.008400
