# z (nm)   (kJ/mol)
  0.263000,-13.377900
  0.265000,-14.120600
  0.267000,-14.859400
  0.269000,-15.606200
  0.271000,-16.361900
  0.273000,-17.129200
  0.275000,-17.901000
  0.277000,-18.665700
  0.279000,-19.429900
  0.281000,-20.203500
  0.283000,-20.978900
  0.285000,-21.748900
  0.287000,-22.511900
  0.289000,-23.267500
  0.291000,-24.015900
  0.293000,-24.751700
  0.295000,-25.472200
  0.297000,-26.174200
  0.299000,-26.854700
  0.301000,-27.508600
  0.303000,-28.130500
  0.305000,-28.722300
  0.307000,-29.282500
  0.309000,-29.809500
  0.311000,-30.301500
  0.313000,-30.756900
  0.315000,-31.177800
  0.317000,-31.560500
  0.319000,-31.904600
  0.321000,-32.211100
  0.323000,-32.481900
  0.325000,-32.715500
  0.327000,-32.913400
  0.329000,-33.078000
  0.331000,-33.208600
  0.333000,-33.306500
  0.335000,-33.372100
  0.337000,-33.408100
  0.339000,-33.411900
  0.341000,-33.385500
  0.343000,-33.331400
  0.345000,-33.250200
  0.347000,-33.142000
  0.349000,-33.007000
  0.351000,-32.846500
  0.353000,-32.662500
  0.355000,-32.458100
  0.357000,-32.231500
  0.359000,-31.985000
  0.361000,-31.724000
  0.363000,-31.448500
  0.365000,-31.157900
  0.367000,-30.851900
  0.369000,-30.533000
  0.371000,-30.206800
  0.373000,-29.873800
  0.375000,-29.533200
  0.377000,-29.185100
  0.379000,-28.831200
  0.381000,-28.474300
  0.383000,-28.117500
  0.385000,-27.759100
  0.387000,-27.395400
  0.389000,-27.030200
  0.391000,-26.667700
  0.393000,-26.305300
  0.395000,-25.944400
  0.397000,-25.586100
  0.399000,-25.230100
  0.401000,-24.878100
  0.403000,-24.528900
  0.405000,-24.185100
  0.407000,-23.848300
  0.409000,-23.516800
  0.411000,-23.191100
  0.413000,-22.871800
  0.415000,-22.559100
  0.417000,-22.253100
  0.419000,-21.954000
  0.421000,-21.662600
  0.423000,-21.378700
  0.425000,-21.102100
  0.427000,-20.833300
  0.429000,-20.571500
  0.431000,-20.318000
  0.433000,-20.073000
  0.435000,-19.836200
  0.437000,-19.608200
  0.439000,-19.387000
  0.441000,-19.172900
  0.443000,-18.967500
  0.445000,-18.769300
  0.447000,-18.579000
  0.449000,-18.396500
  0.451000,-18.220700
  0.453000,-18.051400
  0.455000,-17.889000
  0.457000,-17.733500
  0.459000,-17.583800
  0.461000,-17.440200
  0.463000,-17.303200
  0.465000,-17.171700
  0.467000,-17.044800
  0.469000,-16.923700
  0.471000,-16.807700
  0.473000,-16.696600
  0.475000,-16.590200
  0.477000,-16.486600
  0.479000,-16.386500
  0.481000,-16.290500
  0.483000,-16.198100
  0.485000,-16.108200
  0.487000,-16.021100
  0.489000,-15.935800
  0.491000,-15.852200
  0.493000,-15.770500
  0.495000,-15.690100
  0.497000,-15.611500
  0.499000,-15.534000
  0.501000,-15.456300
  0.503000,-15.378200
  0.505000,-15.300400
  0.507000,-15.222600
  0.509000,-15.144300
  0.511000,-15.065500
  0.513000,-14.986100
  0.515000,-14.906400
  0.517000,-14.825300
  0.519000,-14.742500
  0.521000,-14.658500
  0.523000,-14.572900
  0.525000,-14.485700
  0.527000,-14.397100
  0.529000,-14.306400
  0.531000,-14.214300
  0.533000,-14.120400
  0.535000,-14.024500
  0.537000,-13.926600
  0.539000,-13.826900
  0.541000,-13.725200
  0.543000,-13.621500
  0.545000,-13.516100
  0.547000,-13.408400
  0.549000,-13.299000
  0.551000,-13.187800
  0.553000,-13.074900
  0.555000,-12.960400
  0.557000,-12.843900
  0.559000,-12.725800
  0.561000,-12.606400
  0.563000,-12.485600
  0.565000,-12.363100
  0.567000,-12.238900
  0.569000,-12.113600
  0.571000,-11.987100
  0.573000,-11.859100
  0.575000,-11.730200
  0.577000,-11.600500
  0.579000,-11.469500
  0.581000,-11.337500
  0.583000,-11.204600
  0.585000,-11.070800
  0.587000,-10.936300
  0.589000,-10.801100
  0.591000,-10.665200
  0.593000,-10.528500
  0.595000,-10.391000
  0.597000,-10.252600
  0.599000,-10.113200
  0.601000, -9.973200
  0.603000, -9.832300
  0.605000, -9.690800
  0.607000, -9.548500
  0.609000, -9.405400
  0.611000, -9.261700
  0.613000, -9.117300
  0.615000, -8.972300
  0.617000, -8.826500
  0.619000, -8.679800
  0.621000, -8.532300
  0.623000, -8.384500
  0.625000, -8.236300
  0.627000, -8.087300
  0.629000, -7.938200
  0.631000, -7.788700
  0.633000, -7.638600
  0.635000, -7.487200
  0.637000, -7.335600
  0.639000, -7.184400
  0.641000, -7.032200
  0.643000, -6.879500
  0.645000, -6.726600
  0.647000, -6.574600
  0.649000, -6.423100
  0.651000, -6.272100
  0.653000, -6.120900
  0.655000, -5.968700
  0.657000, -5.817400
  0.659000, -5.667100
  0.661000, -5.517800
  0.663000, -5.369400
  0.665000, -5.220800
  0.667000, -5.073300
  0.669000, -4.927900
  0.671000, -4.783700
  0.673000, -4.641500
  0.675000, -4.501800
  0.677000, -4.364000
  0.679000, -4.226200
  0.681000, -4.090400
  0.683000, -3.957300
  0.685000, -3.825500
  0.687000, -3.695700
  0.689000, -3.568700
  0.691000, -3.444800
  0.693000, -3.324400
  0.695000, -3.206400
  0.697000, -3.091200
  0.699000, -2.978600
  0.701000, -2.869200
  0.703000, -2.763900
  0.705000, -2.661300
  0.707000, -2.562200
  0.709000, -2.467700
  0.711000, -2.376700
  0.713000, -2.288200
  0.715000, -2.202000
  0.717000, -2.120100
  0.719000, -2.042600
  0.721000, -1.968100
  0.723000, -1.896600
  0.725000, -1.827900
  0.727000, -1.762600
  0.729000, -1.701100
  0.731000, -1.643000
  0.733000, -1.588000
  0.735000, -1.536300
  0.737000, -1.487900
  0.739000, -1.442800
  0.741000, -1.400300
  0.743000, -1.360600
  0.745000, -1.323900
  0.747000, -1.290000
  0.749000, -1.258700
  0.751000, -1.229900
  0.753000, -1.203600
  0.755000, -1.179400
  0.757000, -1.157500
  0.759000, -1.137400
  0.761000, -1.119200
  0.763000, -1.102900
  0.765000, -1.088500
  0.767000, -1.075800
  0.769000, -1.064500
  0.771000, -1.055300
  0.773000, -1.047100
  0.775000, -1.039900
  0.777000, -1.034300
  0.779000, -1.029500
  0.781000, -1.025700
  0.783000, -1.023000
  0.785000, -1.021000
  0.787000, -1.019600
  0.789000, -1.018900
  0.791000, -1.019000
  0.793000, -1.019600
  0.795000, -1.020800
  0.797000, -1.022500
  0.799000, -1.024700
  0.801000, -1.027400
  0.803000, -1.030200
  0.805000, -1.033000
  0.807000, -1.035900
  0.809000, -1.038700
  0.811000, -1.041800
  0.813000, -1.045000
  0.815000, -1.048000
  0.817000, -1.051000
  0.819000, -1.054100
  0.821000, -1.057300
  0.823000, -1.060300
  0.825000, -1.062900
  0.827000, -1.065600
  0.829000, -1.068100
  0.831000, -1.070100
  0.833000, -1.071800
  0.835000, -1.073500
  0.837000, -1.074900
  0.839000, -1.075900
  0.841000, -1.076400
  0.843000, -1.076900
  0.845000, -1.077100
  0.847000, -1.076900
  0.849000, -1.076400
  0.851000, -1.075300
  0.853000, -1.074000
  0.855000, -1.072600
  0.857000, -1.070600
  0.859000, -1.068200
  0.861000, -1.065700
  0.863000, -1.062600
  0.865000, -1.059100
  0.867000, -1.055100
  0.869000, -1.050700
  0.871000, -1.045800
  0.873000, -1.040600
  0.875000, -1.035200
  0.877000, -1.029500
  0.879000, -1.023300
  0.881000, -1.016500
  0.883000, -1.009500
  0.885000, -1.002300
  0.887000, -0.994600
  0.889000, -0.986500
  0.891000, -0.978100
  0.893000, -0.969400
  0.895000, -0.960200
  0.897000, -0.950700
  0.899000, -0.940900
  0.901000, -0.930700
  0.903000, -0.920300
  0.905000, -0.909400
  0.907000, -0.898400
  0.909000, -0.887200
  0.911000, -0.875400
  0.913000, -0.863300
  0.915000, -0.851000
  0.917000, -0.838500
  0.919000, -0.825600
  0.921000, -0.812400
  0.923000, -0.799300
  0.925000, -0.786100
  0.927000, -0.772600
  0.929000, -0.758800
  0.931000, -0.744700
  0.933000, -0.730600
  0.935000, -0.716300
  0.937000, -0.701700
  0.939000, -0.686900
  0.941000, -0.672200
  0.943000, -0.657300
  0.945000, -0.642300
  0.947000, -0.627200
  0.949000, -0.611700
  0.951000, -0.596300
  0.953000, -0.580700
  0.955000, -0.565100
  0.957000, -0.549800
  0.959000, -0.534300
  0.961000, -0.518600
  0.963000, -0.503200
  0.965000, -0.487900
  0.967000, -0.472600
  0.969000, -0.457300
  0.971000, -0.442000
  0.973000, -0.427000
  0.975000, -0.412100
  0.977000, -0.397200
  0.979000, -0.382500
  0.981000, -0.368100
  0.983000, -0.353700
  0.985000, -0.339600
  0.987000, -0.325900
  0.989000, -0.312200
  0.991000, -0.298600
  0.993000, -0.285300
  0.995000, -0.272200
  0.997000, -0.259300
  0.999000, -0.246300
  1.001000, -0.233700
  1.003000, -0.221600
  1.005000, -0.210000
  1.007000, -0.198700
  1.009000, -0.187800
  1.011000, -0.176800
  1.013000, -0.166200
  1.015000, -0.156100
  1.017000, -0.146700
  1.019000, -0.137600
  1.021000, -0.128700
  1.023000, -0.120200
  1.025000, -0.112100
  1.027000, -0.104200
  1.029000, -0.096800
  1.031000, -0.089900
  1.033000, -0.083400
  1.035000, -0.077000
  1.037000, -0.071100
  1.039000, -0.065800
  1.041000, -0.060800
  1.043000, -0.055900
  1.045000, -0.051400
  1.047000, -0.047200
  1.049000, -0.043800
  1.051000, -0.040600
  1.053000, -0.037500
  1.055000, -0.034900
  1.057000, -0.032600
  1.059000, -0.030700
  1.061000, -0.029000
  1.063000, -0.027900
  1.065000, -0.027000
  1.067000, -0.026200
  1.069000, -0.025600
  1.071000, -0.025300
  1.073000, -0.025500
  1.075000, -0.025900
  1.077000, -0.026600
  1.079000, -0.027600
  1.081000, -0.028900
  1.083000, -0.030500
  1.085000, -0.032300
  1.087000, -0.034100
  1.089000, -0.036100
  1.091000, -0.038400
  1.093000, -0.040900
  1.095000, -0.043600
  1.097000, -0.046400
  1.099000, -0.049400
  1.101000, -0.052500
  1.103000, -0.055800
  1.105000, -0.059100
  1.107000, -0.062500
  1.109000, -0.065900
  1.111000, -0.069300
  1.113000, -0.073100
  1.115000, -0.076900
  1.117000, -0.080800
  1.119000, -0.084800
  1.121000, -0.088700
  1.123000, -0.092700
  1.125000, -0.096700
  1.127000, -0.100800
  1.129000, -0.104800
  1.131000, -0.108900
  1.133000, -0.113000
  1.135000, -0.117200
  1.137000, -0.121200
  1.139000, -0.125200
  1.141000, -0.129100
  1.143000, -0.132900
  1.145000, -0.136700
  1.147000, -0.140300
  1.149000, -0.143900
  1.151000, -0.147500
  1.153000, -0.150800
  1.155000, -0.154100
  1.157000, -0.157200
  1.159000, -0.160100
  1.161000, -0.163100
  1.163000, -0.166000
  1.165000, -0.168800
  1.167000, -0.171400
  1.169000, -0.173700
  1.171000, -0.175900
  1.173000, -0.178000
  1.175000, -0.179800
  1.177000, -0.181500
  1.179000, -0.182800
  1.181000, -0.183900
  1.183000, -0.185200
  1.185000, -0.186300
  1.187000, -0.187100
  1.189000, -0.187700
  1.191000, -0.188100
  1.193000, -0.188200
  1.195000, -0.188000
  1.197000, -0.187800
  1.199000, -0.187300
  1.201000, -0.186600
  1.203000, -0.185900
  1.205000, -0.184900
  1.207000, -0.183700
  1.209000, -0.182100
  1.211000, -0.180300
  1.213000, -0.178200
  1.215000, -0.176200
  1.217000, -0.174000
  1.219000, -0.171500
  1.221000, -0.168700
  1.223000, -0.165900
  1.225000, -0.162800
  1.227000, -0.159500
  1.229000, -0.156000
  1.231000, -0.152200
  1.233000, -0.148300
  1.235000, -0.144100
  1.237000, -0.139900
  1.239000, -0.135600
  1.241000, -0.131100
  1.243000, -0.126500
  1.245000, -0.121800
  1.247000, -0.116900
  1.249000, -0.111900
  1.251000, -0.107000
  1.253000, -0.101900
  1.255000, -0.096700
  1.257000, -0.091400
  1.259000, -0.086200
  1.261000, -0.080800
  1.263000, -0.075300
  1.265000, -0.069600
  1.267000, -0.063900
  1.269000, -0.058200
  1.271000, -0.052400
  1.273000, -0.046800
  1.275000, -0.041200
  1.277000, -0.035600
  1.279000, -0.029900
  1.281000, -0.024300
  1.283000, -0.018700
  1.285000, -0.013100
  1.287000, -0.007600
  1.289000, -0.002000
  1.291000,  0.003400
  1.293000,  0.008600
  1.295000,  0.013900
  1.297000,  0.019200
  1.299000,  0.024300
  1.301000,  0.029400
  1.303000,  0.034500
  1.305000,  0.039200
  1.307000,  0.043900
  1.309000,  0.048500
  1.311000,  0.052900
  1.313000,  0.057200
  1.315000,  0.061200
  1.317000,  0.065200
  1.319000,  0.069000
  1.321000,  0.072800
  1.323000,  0.076500
  1.325000,  0.080100
  1.327000,  0.083600
  1.329000,  0.086900
  1.331000,  0.089900
  1.333000,  0.092900
  1.335000,  0.096100
  1.337000,  0.099200
  1.339000,  0.102000
  1.341000,  0.104700
  1.343000,  0.107400
  1.345000,  0.109900
  1.347000,  0.112100
  1.349000,  0.114300
  1.351000,  0.116500
  1.353000,  0.118600
  1.355000,  0.120400
  1.357000,  0.122100
  1.359000,  0.123800
  1.361000,  0.125300
  1.363000,  0.126700
  1.365000,  0.128100
  1.367000,  0.129500
  1.369000,  0.130400
  1.371000,  0.131300
  1.373000,  0.132000
  1.375000,  0.132500
  1.377000,  0.132800
  1.379000,  0.132800
  1.381000,  0.132900
  1.383000,  0.132900
  1.385000,  0.132600
  1.387000,  0.132200
  1.389000,  0.131600
  1.391000,  0.130600
  1.393000,  0.129500
  1.395000,  0.128000
  1.397000,  0.126100
  1.399000,  0.123800
