# z (nm)   (kJ/mol)
  0.269000,  5.265400
  0.271000,  4.620600
  0.273000,  3.990500
  0.275000,  3.368900
  0.277000,  2.742000
  0.279000,  2.106100
  0.281000,  1.488100
  0.283000,  0.876200
  0.285000,  0.274000
  0.287000, -0.310500
  0.289000, -0.887200
  0.291000, -1.462100
  0.293000, -2.033600
  0.295000, -2.599000
  0.297000, -3.153300
  0.299000, -3.692900
  0.301000, -4.222900
  0.303000, -4.742400
  0.305000, -5.250700
  0.307000, -5.746800
  0.309000, -6.228000
  0.311000, -6.699300
  0.313000, -7.161700
  0.315000, -7.608800
  0.317000, -8.039300
  0.319000, -8.456400
  0.321000, -8.860600
  0.323000, -9.248300
  0.325000, -9.620700
  0.327000, -9.981300
  0.329000,-10.328600
  0.331000,-10.659400
  0.333000,-10.975700
  0.335000,-11.278600
  0.337000,-11.567300
  0.339000,-11.842800
  0.341000,-12.103300
  0.343000,-12.348400
  0.345000,-12.579100
  0.347000,-12.795400
  0.349000,-12.997300
  0.351000,-13.184900
  0.353000,-13.358300
  0.355000,-13.517400
  0.357000,-13.662900
  0.359000,-13.795000
  0.361000,-13.913700
  0.363000,-14.018600
  0.365000,-14.110500
  0.367000,-14.191200
  0.369000,-14.259400
  0.371000,-14.315500
  0.373000,-14.361600
  0.375000,-14.396600
  0.377000,-14.421200
  0.379000,-14.436900
  0.381000,-14.443300
  0.383000,-14.438200
  0.385000,-14.424300
  0.387000,-14.403400
  0.389000,-14.373900
  0.391000,-14.337800
  0.393000,-14.292800
  0.395000,-14.241100
  0.397000,-14.185000
  0.399000,-14.124200
  0.401000,-14.057800
  0.403000,-13.985500
  0.405000,-13.908700
  0.407000,-13.826800
  0.409000,-13.741000
  0.411000,-13.651600
  0.413000,-13.558300
  0.415000,-13.461100
  0.417000,-13.360300
  0.419000,-13.256000
  0.421000,-13.148400
  0.423000,-13.037800
  0.425000,-12.924800
  0.427000,-12.809300
  0.429000,-12.691300
  0.431000,-12.571100
  0.433000,-12.448400
  0.435000,-12.323500
  0.437000,-12.196700
  0.439000,-12.067700
  0.441000,-11.936900
  0.443000,-11.803900
  0.445000,-11.668700
  0.447000,-11.531600
  0.449000,-11.392700
  0.451000,-11.251700
  0.453000,-11.108900
  0.455000,-10.964300
  0.457000,-10.817800
  0.459000,-10.669700
  0.461000,-10.519800
  0.463000,-10.368200
  0.465000,-10.215200
  0.467000,-10.060300
  0.469000, -9.903800
  0.471000, -9.746000
  0.473000, -9.586800
  0.475000, -9.425900
  0.477000, -9.263500
  0.479000, -9.099600
  0.481000, -8.934400
  0.483000, -8.768200
  0.485000, -8.600800
  0.487000, -8.432600
  0.489000, -8.263700
  0.491000, -8.093700
  0.493000, -7.923100
  0.495000, -7.751700
  0.497000, -7.579700
  0.499000, -7.407100
  0.501000, -7.234100
  0.503000, -7.061000
  0.505000, -6.887500
  0.507000, -6.713600
  0.509000, -6.539700
  0.511000, -6.365700
  0.513000, -6.191900
  0.515000, -6.018500
  0.517000, -5.845400
  0.519000, -5.672400
  0.521000, -5.499800
  0.523000, -5.327800
  0.525000, -5.156600
  0.527000, -4.986300
  0.529000, -4.816700
  0.531000, -4.647900
  0.533000, -4.480300
  0.535000, -4.314000
  0.537000, -4.148900
  0.539000, -3.985300
  0.541000, -3.823200
  0.543000, -3.662700
  0.545000, -3.504300
  0.547000, -3.347200
  0.549000, -3.191500
  0.551000, -3.037900
  0.553000, -2.886000
  0.555000, -2.736600
  0.557000, -2.590100
  0.559000, -2.445300
  0.561000, -2.302900
  0.563000, -2.163400
  0.565000, -2.025900
  0.567000, -1.890600
  0.569000, -1.758000
  0.571000, -1.628300
  0.573000, -1.501700
  0.575000, -1.377600
  0.577000, -1.256300
  0.579000, -1.138100
  0.581000, -1.022600
  0.583000, -0.910600
  0.585000, -0.801700
  0.587000, -0.696300
  0.589000, -0.594500
  0.591000, -0.495700
  0.593000, -0.400000
  0.595000, -0.307700
  0.597000, -0.218600
  0.599000, -0.133200
  0.601000, -0.051300
  0.603000,  0.026900
  0.605000,  0.101600
  0.607000,  0.172900
  0.609000,  0.240900
  0.611000,  0.305800
  0.613000,  0.366800
  0.615000,  0.423900
  0.617000,  0.477900
  0.619000,  0.528400
  0.621000,  0.575200
  0.623000,  0.618500
  0.625000,  0.658600
  0.627000,  0.695100
  0.629000,  0.727900
  0.631000,  0.757500
  0.633000,  0.783800
  0.635000,  0.807200
  0.637000,  0.827600
  0.639000,  0.844700
  0.641000,  0.858600
  0.643000,  0.869700
  0.645000,  0.877800
  0.647000,  0.882800
  0.649000,  0.885100
  0.651000,  0.884700
  0.653000,  0.881600
  0.655000,  0.875800
  0.657000,  0.867600
  0.659000,  0.857000
  0.661000,  0.844500
  0.663000,  0.829700
  0.665000,  0.812300
  0.667000,  0.792900
  0.669000,  0.772000
  0.671000,  0.749600
  0.673000,  0.725200
  0.675000,  0.699100
  0.677000,  0.671400
  0.679000,  0.642400
  0.681000,  0.612500
  0.683000,  0.581300
  0.685000,  0.548600
  0.687000,  0.515100
  0.689000,  0.481000
  0.691000,  0.446100
  0.693000,  0.410500
  0.695000,  0.374600
  0.697000,  0.338000
  0.699000,  0.300600
  0.701000,  0.263400
  0.703000,  0.226600
  0.705000,  0.189300
  0.707000,  0.151500
  0.709000,  0.114500
  0.711000,  0.078300
  0.713000,  0.042300
  0.715000,  0.006300
  0.717000, -0.029300
  0.719000, -0.064200
  0.721000, -0.098400
  0.723000, -0.132000
  0.725000, -0.165000
  0.727000, -0.197300
  0.729000, -0.228900
  0.731000, -0.259900
  0.733000, -0.289600
  0.735000, -0.317900
  0.737000, -0.345000
  0.739000, -0.371300
  0.741000, -0.396700
  0.743000, -0.421200
  0.745000, -0.444600
  0.747000, -0.466800
  0.749000, -0.487800
  0.751000, -0.507600
  0.753000, -0.526100
  0.755000, -0.543500
  0.757000, -0.559700
  0.759000, -0.574600
  0.761000, -0.588500
  0.763000, -0.601200
  0.765000, -0.612600
  0.767000, -0.622900
  0.769000, -0.632000
  0.771000, -0.639900
  0.773000, -0.646500
  0.775000, -0.652100
  0.777000, -0.656500
  0.779000, -0.659800
  0.781000, -0.662100
  0.783000, -0.663400
  0.785000, -0.663600
  0.787000, -0.662800
  0.789000, -0.661200
  0.791000, -0.658500
  0.793000, -0.654900
  0.795000, -0.650400
  0.797000, -0.644900
  0.799000, -0.638800
  0.801000, -0.631900
  0.803000, -0.624100
  0.805000, -0.615600
  0.807000, -0.606400
  0.809000, -0.596600
  0.811000, -0.586200
  0.813000, -0.575100
  0.815000, -0.563500
  0.817000, -0.551400
  0.819000, -0.538700
  0.821000, -0.525800
  0.823000, -0.512400
  0.825000, -0.498400
  0.827000, -0.484100
  0.829000, -0.469400
  0.831000, -0.454500
  0.833000, -0.439300
  0.835000, -0.423600
  0.837000, -0.407900
  0.839000, -0.392200
  0.841000, -0.376100
  0.843000, -0.360000
  0.845000, -0.344000
  0.847000, -0.327600
  0.849000, -0.311100
  0.851000, -0.294600
  0.853000, -0.278000
  0.855000, -0.261400
  0.857000, -0.244900
  0.859000, -0.228600
  0.861000, -0.212300
  0.863000, -0.196100
  0.865000, -0.180100
  0.867000, -0.164200
  0.869000, -0.148600
  0.871000, -0.133200
  0.873000, -0.117900
  0.875000, -0.102900
  0.877000, -0.088300
  0.879000, -0.073900
  0.881000, -0.059800
  0.883000, -0.046000
  0.885000, -0.032700
  0.887000, -0.019500
  0.889000, -0.006700
  0.891000,  0.005700
  0.893000,  0.017700
  0.895000,  0.029300
  0.897000,  0.040600
  0.899000,  0.051200
  0.901000,  0.061400
  0.903000,  0.071100
  0.905000,  0.080400
  0.907000,  0.089100
  0.909000,  0.097400
  0.911000,  0.105200
  0.913000,  0.112500
  0.915000,  0.119400
  0.917000,  0.125800
  0.919000,  0.131600
  0.921000,  0.136800
  0.923000,  0.141500
  0.925000,  0.145600
  0.927000,  0.149300
  0.929000,  0.152600
  0.931000,  0.155400
  0.933000,  0.157800
  0.935000,  0.159600
  0.937000,  0.160800
  0.939000,  0.161600
  0.941000,  0.161900
  0.943000,  0.161800
  0.945000,  0.161300
  0.947000,  0.160300
  0.949000,  0.159000
  0.951000,  0.157200
  0.953000,  0.155000
  0.955000,  0.152500
  0.957000,  0.149500
  0.959000,  0.146400
  0.961000,  0.142900
  0.963000,  0.139000
  0.965000,  0.134900
  0.967000,  0.130500
  0.969000,  0.125700
  0.971000,  0.120700
  0.973000,  0.115400
  0.975000,  0.110000
  0.977000,  0.104500
  0.979000,  0.098600
  0.981000,  0.092600
  0.983000,  0.086500
  0.985000,  0.080100
  0.987000,  0.073700
  0.989000,  0.067100
  0.991000,  0.060400
  0.993000,  0.053600
  0.995000,  0.046500
  0.997000,  0.039500
  0.999000,  0.032700
  1.001000,  0.025900
  1.003000,  0.018900
  1.005000,  0.011900
  1.007000,  0.005100
  1.009000, -0.001600
  1.011000, -0.008400
  1.013000, -0.015200
  1.015000, -0.022000
  1.017000, -0.028600
  1.019000, -0.035100
  1.021000, -0.041600
  1.023000, -0.048000
  1.025000, -0.054200
  1.027000, -0.060300
  1.029000, -0.066200
  1.031000, -0.071800
  1.033000, -0.077500
  1.035000, -0.083000
  1.037000, -0.088300
  1.039000, -0.093500
  1.041000, -0.098400
  1.043000, -0.103100
  1.045000, -0.107700
  1.047000, -0.112000
  1.049000, -0.116200
  1.051000, -0.120200
  1.053000, -0.123900
  1.055000, -0.127500
  1.057000, -0.130900
  1.059000, -0.133900
  1.061000, -0.136700
  1.063000, -0.139400
  1.065000, -0.141800
  1.067000, -0.143800
  1.069000, -0.145700
  1.071000, -0.147400
  1.073000, -0.148900
  1.075000, -0.150100
  1.077000, -0.151100
  1.079000, -0.152000
  1.081000, -0.152700
  1.083000, -0.153100
  1.085000, -0.153200
  1.087000, -0.153200
  1.089000, -0.153000
  1.091000, -0.152600
  1.093000, -0.152100
  1.095000, -0.151300
  1.097000, -0.150400
  1.099000, -0.149300
  1.101000, -0.147900
  1.103000, -0.146400
  1.105000, -0.144900
  1.107000, -0.143200
  1.109000, -0.141400
  1.111000, -0.139600
  1.113000, -0.137600
  1.115000, -0.135500
  1.117000, -0.133300
  1.119000, -0.131100
  1.121000, -0.128800
  1.123000, -0.126400
  1.125000, -0.124000
  1.127000, -0.121600
  1.129000, -0.119000
  1.131000, -0.116300
  1.133000, -0.113700
  1.135000, -0.111100
  1.137000, -0.108500
  1.139000, -0.105900
  1.141000, -0.103300
  1.143000, -0.100600
  1.145000, -0.097900
  1.147000, -0.095300
  1.149000, -0.092700
  1.151000, -0.090100
  1.153000, -0.087600
  1.155000, -0.085000
  1.157000, -0.082500
  1.159000, -0.080000
  1.161000, -0.077500
  1.163000, -0.075100
  1.165000, -0.072700
  1.167000, -0.070400
  1.169000, -0.068100
  1.171000, -0.065800
  1.173000, -0.063500
  1.175000, -0.061300
  1.177000, -0.059000
  1.179000, -0.056800
  1.181000, -0.054700
  1.183000, -0.052600
  1.185000, -0.050500
  1.187000, -0.048400
  1.189000, -0.046400
  1.191000, -0.044400
  1.193000, -0.042300
  1.195000, -0.040200
  1.197000, -0.038300
  1.199000, -0.036300
  1.201000, -0.034300
  1.203000, -0.032300
  1.205000, -0.030500
  1.207000, -0.028700
  1.209000, -0.026900
  1.211000, -0.025000
  1.213000, -0.023300
  1.215000, -0.021500
  1.217000, -0.019700
  1.219000, -0.018100
  1.221000, -0.016500
  1.223000, -0.014900
  1.225000, -0.013400
  1.227000, -0.012000
  1.229000, -0.010600
  1.231000, -0.009200
  1.233000, -0.007800
  1.235000, -0.006400
  1.237000, -0.005000
  1.239000, -0.003800
  1.241000, -0.002700
  1.243000, -0.001600
  1.245000, -0.000600
  1.247000,  0.000300
  1.249000,  0.001200
  1.251000,  0.001900
  1.253000,  0.002700
  1.255000,  0.003400
  1.257000,  0.004000
  1.259000,  0.004500
  1.261000,  0.004900
  1.263000,  0.005300
  1.265000,  0.005600
  1.267000,  0.005800
  1.269000,  0.005800
  1.271000,  0.005800
  1.273000,  0.005700
  1.275000,  0.005600
  1.277000,  0.005400
  1.279000,  0.005000
  1.281000,  0.004600
  1.283000,  0.004200
  1.285000,  0.003600
  1.287000,  0.003100
  1.289000,  0.002400
  1.291000,  0.001800
  1.293000,  0.001200
  1.295000,  0.000400
  1.297000, -0.000500
  1.299000, -0.001300
  1.301000, -0.002200
  1.303000, -0.003200
  1.305000, -0.004100
  1.307000, -0.005000
  1.309000, -0.006000
  1.311000, -0.007100
  1.313000, -0.008000
  1.315000, -0.009000
  1.317000, -0.009800
  1.319000, -0.010600
  1.321000, -0.011400
  1.323000, -0.012100
  1.325000, -0.012700
  1.327000, -0.013300
  1.329000, -0.013600
  1.331000, -0.013800
  1.333000, -0.013900
  1.335000, -0.013900
  1.337000, -0.013700
  1.339000, -0.013300
  1.341000, -0.012800
  1.343000, -0.012200
  1.345000, -0.011300
  1.347000, -0.010300
  1.349000, -0.009200
  1.351000, -0.007900
  1.353000, -0.006400
  1.355000, -0.004800
  1.357000, -0.002900
  1.359000, -0.000900
  1.361000,  0.001300
  1.363000,  0.003600
  1.365000,  0.006200
  1.367000,  0.008800
  1.369000,  0.011600
  1.371000,  0.014500
  1.373000,  0.017500
  1.375000,  0.020600
  1.377000,  0.023900
  1.379000,  0.027300
  1.381000,  0.030900
  1.383000,  0.034500
  1.385000,  0.038200
  1.387000,  0.041700
  1.389000,  0.045000
  1.391000,  0.048500
  1.393000,  0.051700
  1.395000,  0.054400
  1.397000,  0.056800
  1.399000,  0.059100
