# z (nm)   (kJ/mol)
  0.084000,265.514710
  0.086000,262.868530
  0.088000,260.055160
  0.090000,257.491630
  0.092000,254.679460
  0.094000,251.908670
  0.096000,249.257900
  0.098000,246.602270
  0.100000,243.897650
  0.102000,241.140610
  0.104000,238.272140
  0.106000,235.311390
  0.108000,232.235140
  0.110000,229.024210
  0.112000,225.663190
  0.114000,222.133460
  0.116000,218.425610
  0.118000,214.535970
  0.120000,210.473410
  0.122000,206.251540
  0.124000,201.901390
  0.126000,197.461210
  0.128000,192.958080
  0.130000,188.430430
  0.132000,183.883740
  0.134000,179.328290
  0.136000,174.765040
  0.138000,170.207000
  0.140000,165.675790
  0.142000,161.196120
  0.144000,156.794830
  0.146000,152.498310
  0.148000,148.320520
  0.150000,144.268590
  0.152000,140.343330
  0.154000,136.527890
  0.156000,132.810620
  0.158000,129.177220
  0.160000,125.610340
  0.162000,122.084290
  0.164000,118.582260
  0.166000,115.093320
  0.168000,111.613540
  0.170000,108.156330
  0.172000,104.747970
  0.174000,101.408310
  0.176000, 98.149930
  0.178000, 94.961020
  0.180000, 91.825330
  0.182000, 88.727690
  0.184000, 85.655900
  0.186000, 82.611640
  0.188000, 79.593920
  0.190000, 76.614380
  0.192000, 73.671080
  0.194000, 70.770570
  0.196000, 67.921510
  0.198000, 65.124660
  0.200000, 62.387560
  0.202000, 59.705540
  0.204000, 57.075320
  0.206000, 54.508450
  0.208000, 52.003750
  0.210000, 49.563890
  0.212000, 47.189310
  0.214000, 44.863340
  0.216000, 42.586970
  0.218000, 40.339960
  0.220000, 38.131320
  0.222000, 35.948700
  0.224000, 33.805170
  0.226000, 31.711730
  0.228000, 29.672850
  0.230000, 27.692020
  0.232000, 25.765130
  0.234000, 23.889830
  0.236000, 22.063430
  0.238000, 20.294800
  0.240000, 18.589670
  0.242000, 16.945320
  0.244000, 15.359560
  0.246000, 13.817610
  0.248000, 12.315490
  0.250000, 10.840820
  0.252000,  9.391850
  0.254000,  7.980870
  0.256000,  6.605210
  0.258000,  5.284270
  0.260000,  4.023200
  0.262000,  2.813790
  0.264000,  1.662420
  0.266000,  0.543190
  0.268000, -0.531690
  0.270000, -1.571510
  0.272000, -2.586780
  0.274000, -3.557620
  0.276000, -4.490860
  0.278000, -5.378700
  0.280000, -6.233040
  0.282000, -7.054300
  0.284000, -7.856910
  0.286000, -8.659260
  0.288000, -9.456970
  0.290000,-10.251810
  0.292000,-11.027860
  0.294000,-11.750400
  0.296000,-12.397460
  0.298000,-12.954590
  0.300000,-13.434270
  0.302000,-13.853660
  0.304000,-14.250560
  0.306000,-14.646130
  0.308000,-15.052940
  0.310000,-15.468020
  0.312000,-15.878720
  0.314000,-16.254370
  0.316000,-16.593290
  0.318000,-16.879930
  0.320000,-17.131030
  0.322000,-17.344820
  0.324000,-17.520820
  0.326000,-17.660910
  0.328000,-17.773170
  0.330000,-17.847200
  0.332000,-17.909850
  0.334000,-17.957290
  0.336000,-18.005640
  0.338000,-18.059580
  0.340000,-18.121100
  0.342000,-18.187410
  0.344000,-18.249850
  0.346000,-18.287070
  0.348000,-18.288500
  0.350000,-18.258110
  0.352000,-18.181280
  0.354000,-18.072780
  0.356000,-17.941810
  0.358000,-17.795080
  0.360000,-17.629620
  0.362000,-17.463150
  0.364000,-17.298350
  0.366000,-17.153460
  0.368000,-17.011110
  0.370000,-16.882780
  0.372000,-16.763150
  0.374000,-16.638510
  0.376000,-16.496960
  0.378000,-16.335100
  0.380000,-16.149720
  0.382000,-15.943810
  0.384000,-15.726580
  0.386000,-15.504770
  0.388000,-15.290370
  0.390000,-15.077890
  0.392000,-14.865010
  0.394000,-14.654820
  0.396000,-14.445460
  0.398000,-14.222150
  0.400000,-13.987960
  0.402000,-13.743020
  0.404000,-13.482460
  0.406000,-13.227320
  0.408000,-12.965730
  0.410000,-12.709360
  0.412000,-12.455830
  0.414000,-12.195290
  0.416000,-11.951600
  0.418000,-11.711870
  0.420000,-11.483780
  0.422000,-11.252110
  0.424000,-11.025760
  0.426000,-10.798040
  0.428000,-10.571020
  0.430000,-10.351470
  0.432000,-10.140210
  0.434000, -9.940140
  0.436000, -9.753660
  0.438000, -9.585720
  0.440000, -9.430240
  0.442000, -9.287940
  0.444000, -9.160470
  0.446000, -9.041770
  0.448000, -8.930620
  0.450000, -8.821590
  0.452000, -8.709170
  0.454000, -8.587230
  0.456000, -8.475890
  0.458000, -8.358320
  0.460000, -8.246410
  0.462000, -8.142480
  0.464000, -8.058180
  0.466000, -7.987990
  0.468000, -7.925410
  0.470000, -7.870860
  0.472000, -7.827260
  0.474000, -7.781540
  0.476000, -7.734770
  0.478000, -7.676140
  0.480000, -7.608040
  0.482000, -7.528220
  0.484000, -7.447040
  0.486000, -7.360390
  0.488000, -7.280950
  0.490000, -7.201270
  0.492000, -7.125980
  0.494000, -7.054430
  0.496000, -6.988000
  0.498000, -6.926840
  0.500000, -6.871550
  0.502000, -6.822230
  0.504000, -6.776920
  0.506000, -6.731840
  0.508000, -6.682790
  0.510000, -6.634200
  0.512000, -6.580530
  0.514000, -6.526940
  0.516000, -6.472130
  0.518000, -6.412340
  0.520000, -6.351310
  0.522000, -6.289550
  0.524000, -6.235210
  0.526000, -6.179670
  0.528000, -6.130540
  0.530000, -6.078210
  0.532000, -6.023590
  0.534000, -5.962130
  0.536000, -5.895980
  0.538000, -5.816690
  0.540000, -5.737410
  0.542000, -5.654900
  0.544000, -5.584280
  0.546000, -5.534120
  0.548000, -5.504060
  0.550000, -5.480780
  0.552000, -5.463880
  0.554000, -5.446400
  0.556000, -5.405150
  0.558000, -5.348970
  0.560000, -5.263500
  0.562000, -5.165850
  0.564000, -5.052190
  0.566000, -4.937710
  0.568000, -4.822370
  0.570000, -4.722750
  0.572000, -4.643520
  0.574000, -4.584390
  0.576000, -4.546810
  0.578000, -4.508670
  0.580000, -4.479150
  0.582000, -4.437410
  0.584000, -4.376100
  0.586000, -4.297770
  0.588000, -4.216260
  0.590000, -4.127430
  0.592000, -4.040400
  0.594000, -3.952500
  0.596000, -3.866580
  0.598000, -3.784820
  0.600000, -3.713750
  0.602000, -3.643820
  0.604000, -3.576200
  0.606000, -3.505900
  0.608000, -3.427200
  0.610000, -3.353440
  0.612000, -3.269950
  0.614000, -3.189680
  0.616000, -3.120930
  0.618000, -3.052110
  0.620000, -3.002700
  0.622000, -2.966500
  0.624000, -2.948640
  0.626000, -2.943260
  0.628000, -2.954100
  0.630000, -2.965240
  0.632000, -2.965410
  0.634000, -2.959910
  0.636000, -2.934390
  0.638000, -2.881800
  0.640000, -2.814830
  0.642000, -2.732120
  0.644000, -2.636670
  0.646000, -2.548360
  0.648000, -2.469470
  0.650000, -2.403670
  0.652000, -2.362560
  0.654000, -2.337420
  0.656000, -2.331380
  0.658000, -2.341010
  0.660000, -2.359260
  0.662000, -2.368380
  0.664000, -2.366650
  0.666000, -2.350370
  0.668000, -2.310530
  0.670000, -2.245060
  0.672000, -2.162910
  0.674000, -2.066840
  0.676000, -1.967450
  0.678000, -1.881490
  0.680000, -1.798220
  0.682000, -1.731410
  0.684000, -1.672450
  0.686000, -1.626570
  0.688000, -1.583180
  0.690000, -1.540970
  0.692000, -1.503590
  0.694000, -1.472100
  0.696000, -1.452300
  0.698000, -1.443700
  0.700000, -1.445870
  0.702000, -1.450140
  0.704000, -1.459060
  0.706000, -1.462040
  0.708000, -1.447110
  0.710000, -1.419840
  0.712000, -1.362810
  0.714000, -1.280380
  0.716000, -1.201450
  0.718000, -1.123460
  0.720000, -1.057490
  0.722000, -1.005390
  0.724000, -0.974290
  0.726000, -0.960760
  0.728000, -0.959590
  0.730000, -0.962200
  0.732000, -0.965210
  0.734000, -0.966230
  0.736000, -0.972920
  0.738000, -0.974260
  0.740000, -0.971660
  0.742000, -0.961980
  0.744000, -0.949060
  0.746000, -0.940580
  0.748000, -0.922350
  0.750000, -0.909540
  0.752000, -0.895020
  0.754000, -0.883190
  0.756000, -0.883470
  0.758000, -0.890730
  0.760000, -0.899880
  0.762000, -0.920040
  0.764000, -0.936200
  0.766000, -0.950950
  0.768000, -0.955770
  0.770000, -0.945590
  0.772000, -0.913740
  0.774000, -0.865170
  0.776000, -0.809110
  0.778000, -0.750430
  0.780000, -0.686220
  0.782000, -0.636710
  0.784000, -0.599120
  0.786000, -0.569700
  0.788000, -0.569160
  0.790000, -0.574900
  0.792000, -0.598270
  0.794000, -0.624410
  0.796000, -0.655630
  0.798000, -0.681120
  0.800000, -0.701400
  0.802000, -0.706450
  0.804000, -0.698470
  0.806000, -0.670150
  0.808000, -0.638460
  0.810000, -0.600130
  0.812000, -0.555360
  0.814000, -0.506490
  0.816000, -0.453960
  0.818000, -0.418700
  0.820000, -0.390960
  0.822000, -0.383080
  0.824000, -0.387150
  0.826000, -0.400860
  0.828000, -0.417910
  0.830000, -0.443370
  0.832000, -0.470390
  0.834000, -0.496050
  0.836000, -0.513550
  0.838000, -0.525040
  0.840000, -0.522540
  0.842000, -0.509650
  0.844000, -0.480370
  0.846000, -0.439870
  0.848000, -0.401120
  0.850000, -0.358740
  0.852000, -0.316040
  0.854000, -0.281040
  0.856000, -0.254090
  0.858000, -0.228860
  0.860000, -0.217330
  0.862000, -0.208270
  0.864000, -0.205270
  0.866000, -0.214540
  0.868000, -0.220020
  0.870000, -0.225120
  0.872000, -0.232190
  0.874000, -0.237620
  0.876000, -0.235820
  0.878000, -0.232460
  0.880000, -0.230410
  0.882000, -0.221190
  0.884000, -0.212250
  0.886000, -0.197670
  0.888000, -0.185410
  0.890000, -0.170740
  0.892000, -0.163670
  0.894000, -0.157570
  0.896000, -0.143450
  0.898000, -0.126480
  0.900000, -0.114660
  0.902000, -0.105430
  0.904000, -0.096270
  0.906000, -0.080450
  0.908000, -0.072790
  0.910000, -0.073220
  0.912000, -0.072470
  0.914000, -0.075780
  0.916000, -0.086080
  0.918000, -0.101860
  0.920000, -0.112420
  0.922000, -0.108510
  0.924000, -0.102530
  0.926000, -0.092030
  0.928000, -0.070630
  0.930000, -0.042930
  0.932000, -0.011560
  0.934000,  0.011530
  0.936000,  0.028960
  0.938000,  0.051170
  0.940000,  0.059010
  0.942000,  0.063520
  0.944000,  0.062180
  0.946000,  0.063710
  0.948000,  0.055100
  0.950000,  0.044550
  0.952000,  0.030720
  0.954000,  0.020440
  0.956000,  0.010330
  0.958000, -0.000480
  0.960000, -0.011150
  0.962000, -0.013360
  0.964000, -0.017720
  0.966000, -0.010440
  0.968000,  0.001230
  0.970000,  0.016230
  0.972000,  0.034240
  0.974000,  0.051930
  0.976000,  0.076320
  0.978000,  0.081120
  0.980000,  0.079010
  0.982000,  0.074780
  0.984000,  0.064880
  0.986000,  0.050050
  0.988000,  0.033380
  0.990000,  0.020650
  0.992000,  0.026050
  0.994000,  0.034130
  0.996000,  0.049910
  0.998000,  0.071070
  1.000000,  0.091950
