# z (nm)   (kJ/mol)
  0.066000,273.765050
  0.068000,271.499890
  0.070000,269.286690
  0.072000,267.119330
  0.074000,264.861130
  0.076000,262.756630
  0.078000,260.684400
  0.080000,258.557590
  0.082000,256.462760
  0.084000,254.364460
  0.086000,252.231080
  0.088000,250.049410
  0.090000,247.832420
  0.092000,245.544340
  0.094000,243.156340
  0.096000,240.650900
  0.098000,237.996230
  0.100000,235.185090
  0.102000,232.203270
  0.104000,229.044680
  0.106000,225.700630
  0.108000,222.192820
  0.110000,218.525390
  0.112000,214.713190
  0.114000,210.788380
  0.116000,206.774990
  0.118000,202.700420
  0.120000,198.586730
  0.122000,194.449200
  0.124000,190.309770
  0.126000,186.181530
  0.128000,182.070590
  0.130000,177.986240
  0.132000,173.927430
  0.134000,169.905260
  0.136000,165.928960
  0.138000,162.009510
  0.140000,158.161370
  0.142000,154.398400
  0.144000,150.745590
  0.146000,147.218520
  0.148000,143.831520
  0.150000,140.586010
  0.152000,137.472710
  0.154000,134.475680
  0.156000,131.567490
  0.158000,128.712610
  0.160000,125.880370
  0.162000,123.047470
  0.164000,120.194570
  0.166000,117.313820
  0.168000,114.404060
  0.170000,111.471320
  0.172000,108.528400
  0.174000,105.581580
  0.176000,102.644340
  0.178000, 99.719030
  0.180000, 96.819560
  0.182000, 93.955690
  0.184000, 91.139190
  0.186000, 88.380230
  0.188000, 85.689110
  0.190000, 83.068760
  0.192000, 80.510760
  0.194000, 78.005290
  0.196000, 75.548530
  0.198000, 73.123020
  0.200000, 70.709340
  0.202000, 68.295570
  0.204000, 65.875180
  0.206000, 63.457650
  0.208000, 61.061280
  0.210000, 58.710790
  0.212000, 56.411760
  0.214000, 54.179030
  0.216000, 52.011740
  0.218000, 49.902200
  0.220000, 47.833720
  0.222000, 45.791550
  0.224000, 43.763770
  0.226000, 41.755180
  0.228000, 39.788490
  0.230000, 37.869090
  0.232000, 36.026760
  0.234000, 34.261560
  0.236000, 32.579140
  0.238000, 30.966270
  0.240000, 29.405960
  0.242000, 27.869390
  0.244000, 26.340250
  0.246000, 24.798840
  0.248000, 23.243430
  0.250000, 21.693910
  0.252000, 20.170770
  0.254000, 18.693120
  0.256000, 17.277480
  0.258000, 15.945860
  0.260000, 14.699620
  0.262000, 13.517520
  0.264000, 12.391910
  0.266000, 11.326230
  0.268000, 10.293140
  0.270000,  9.287850
  0.272000,  8.306560
  0.274000,  7.345640
  0.276000,  6.414910
  0.278000,  5.518310
  0.280000,  4.661830
  0.282000,  3.846610
  0.284000,  3.082340
  0.286000,  2.360170
  0.288000,  1.679590
  0.290000,  1.037470
  0.292000,  0.434860
  0.294000, -0.130940
  0.296000, -0.665300
  0.298000, -1.180190
  0.300000, -1.669970
  0.302000, -2.129850
  0.304000, -2.565610
  0.306000, -2.975380
  0.308000, -3.365030
  0.310000, -3.724070
  0.312000, -4.049930
  0.314000, -4.350930
  0.316000, -4.616270
  0.318000, -4.847720
  0.320000, -5.044430
  0.322000, -5.207780
  0.324000, -5.350940
  0.326000, -5.473770
  0.328000, -5.582730
  0.330000, -5.690320
  0.332000, -5.795350
  0.334000, -5.894810
  0.336000, -5.985270
  0.338000, -6.071310
  0.340000, -6.129360
  0.342000, -6.182500
  0.344000, -6.200110
  0.346000, -6.192030
  0.348000, -6.167660
  0.350000, -6.118690
  0.352000, -6.058210
  0.354000, -5.993040
  0.356000, -5.934520
  0.358000, -5.878180
  0.360000, -5.833420
  0.362000, -5.782940
  0.364000, -5.739170
  0.366000, -5.687290
  0.368000, -5.626310
  0.370000, -5.549750
  0.372000, -5.461010
  0.374000, -5.368310
  0.376000, -5.279590
  0.378000, -5.194840
  0.380000, -5.122570
  0.382000, -5.055500
  0.384000, -4.992990
  0.386000, -4.930320
  0.388000, -4.847230
  0.390000, -4.758420
  0.392000, -4.658360
  0.394000, -4.551000
  0.396000, -4.461690
  0.398000, -4.381240
  0.400000, -4.315210
  0.402000, -4.262980
  0.404000, -4.217070
  0.406000, -4.183270
  0.408000, -4.154510
  0.410000, -4.123970
  0.412000, -4.098100
  0.414000, -4.077690
  0.416000, -4.070150
  0.418000, -4.073290
  0.420000, -4.101070
  0.422000, -4.142270
  0.424000, -4.204200
  0.426000, -4.280680
  0.428000, -4.375110
  0.430000, -4.475830
  0.432000, -4.582920
  0.434000, -4.687670
  0.436000, -4.777340
  0.438000, -4.854370
  0.440000, -4.900460
  0.442000, -4.929370
  0.444000, -4.933210
  0.446000, -4.915290
  0.448000, -4.873420
  0.450000, -4.818530
  0.452000, -4.759530
  0.454000, -4.696470
  0.456000, -4.632530
  0.458000, -4.576180
  0.460000, -4.531870
  0.462000, -4.483840
  0.464000, -4.444470
  0.466000, -4.404210
  0.468000, -4.362110
  0.470000, -4.312290
  0.472000, -4.245510
  0.474000, -4.168340
  0.476000, -4.066310
  0.478000, -3.950170
  0.480000, -3.817830
  0.482000, -3.673460
  0.484000, -3.525920
  0.486000, -3.371120
  0.488000, -3.218990
  0.490000, -3.076100
  0.492000, -2.938220
  0.494000, -2.810230
  0.496000, -2.681630
  0.498000, -2.547550
  0.500000, -2.409550
  0.502000, -2.265230
  0.504000, -2.107870
  0.506000, -1.944710
  0.508000, -1.778860
  0.510000, -1.613000
  0.512000, -1.445770
  0.514000, -1.288910
  0.516000, -1.138540
  0.518000, -1.004420
  0.520000, -0.885070
  0.522000, -0.782820
  0.524000, -0.694620
  0.526000, -0.615430
  0.528000, -0.541010
  0.530000, -0.475850
  0.532000, -0.404070
  0.534000, -0.335040
  0.536000, -0.265610
  0.538000, -0.200830
  0.540000, -0.146390
  0.542000, -0.094880
  0.544000, -0.058720
  0.546000, -0.039250
  0.548000, -0.037540
  0.550000, -0.053520
  0.552000, -0.083380
  0.554000, -0.127000
  0.556000, -0.177920
  0.558000, -0.232970
  0.560000, -0.281870
  0.562000, -0.321720
  0.564000, -0.359060
  0.566000, -0.393930
  0.568000, -0.423920
  0.570000, -0.450890
  0.572000, -0.482690
  0.574000, -0.524990
  0.576000, -0.573070
  0.578000, -0.627080
  0.580000, -0.672830
  0.582000, -0.723560
  0.584000, -0.779600
  0.586000, -0.836590
  0.588000, -0.889260
  0.590000, -0.952390
  0.592000, -1.009700
  0.594000, -1.061060
  0.596000, -1.113860
  0.598000, -1.159400
  0.600000, -1.197230
  0.602000, -1.222130
  0.604000, -1.237060
  0.606000, -1.244370
  0.608000, -1.243390
  0.610000, -1.236700
  0.612000, -1.231100
  0.614000, -1.235170
  0.616000, -1.241590
  0.618000, -1.258080
  0.620000, -1.292540
  0.622000, -1.332310
  0.624000, -1.375620
  0.626000, -1.410020
  0.628000, -1.429140
  0.630000, -1.428430
  0.632000, -1.410990
  0.634000, -1.373220
  0.636000, -1.314210
  0.638000, -1.250790
  0.640000, -1.184160
  0.642000, -1.115120
  0.644000, -1.055640
  0.646000, -1.002650
  0.648000, -0.951590
  0.650000, -0.902800
  0.652000, -0.851770
  0.654000, -0.815040
  0.656000, -0.777940
  0.658000, -0.738730
  0.660000, -0.706510
  0.662000, -0.669210
  0.664000, -0.646950
  0.666000, -0.618450
  0.668000, -0.593920
  0.670000, -0.563060
  0.672000, -0.528510
  0.674000, -0.495110
  0.676000, -0.456840
  0.678000, -0.411230
  0.680000, -0.360630
  0.682000, -0.304980
  0.684000, -0.244550
  0.686000, -0.192230
  0.688000, -0.141870
  0.690000, -0.100120
  0.692000, -0.062620
  0.694000, -0.037320
  0.696000, -0.017830
  0.698000, -0.009620
  0.700000, -0.012590
  0.702000, -0.012520
  0.704000, -0.013880
  0.706000, -0.014040
  0.708000, -0.012970
  0.710000, -0.004680
  0.712000,  0.004110
  0.714000,  0.012440
  0.716000,  0.031210
  0.718000,  0.047170
  0.720000,  0.068210
  0.722000,  0.090260
  0.724000,  0.110540
  0.726000,  0.128030
  0.728000,  0.142050
  0.730000,  0.153950
  0.732000,  0.158490
  0.734000,  0.154680
  0.736000,  0.147050
  0.738000,  0.137720
  0.740000,  0.123320
  0.742000,  0.107580
  0.744000,  0.093340
  0.746000,  0.085020
  0.748000,  0.081180
  0.750000,  0.081330
  0.752000,  0.084050
  0.754000,  0.103980
  0.756000,  0.120750
  0.758000,  0.134430
  0.760000,  0.141520
  0.762000,  0.151290
  0.764000,  0.161510
  0.766000,  0.165800
  0.768000,  0.157280
  0.770000,  0.152600
  0.772000,  0.133940
  0.774000,  0.123660
  0.776000,  0.113400
  0.778000,  0.096670
  0.780000,  0.081830
  0.782000,  0.067860
  0.784000,  0.055840
  0.786000,  0.044580
  0.788000,  0.037080
  0.790000,  0.035690
  0.792000,  0.039170
  0.794000,  0.043580
  0.796000,  0.053320
  0.798000,  0.069120
  0.800000,  0.090010
  0.802000,  0.110830
  0.804000,  0.128990
  0.806000,  0.143520
  0.808000,  0.150030
  0.810000,  0.153190
  0.812000,  0.149400
  0.814000,  0.140070
  0.816000,  0.132860
  0.818000,  0.122060
  0.820000,  0.109410
  0.822000,  0.096120
  0.824000,  0.091840
  0.826000,  0.098100
  0.828000,  0.110660
  0.830000,  0.138060
  0.832000,  0.170670
  0.834000,  0.206230
  0.836000,  0.237420
  0.838000,  0.265660
  0.840000,  0.284440
  0.842000,  0.293310
  0.844000,  0.278510
  0.846000,  0.254830
  0.848000,  0.218850
  0.850000,  0.179750
  0.852000,  0.133200
  0.854000,  0.082070
  0.856000,  0.037170
  0.858000, -0.001910
  0.860000, -0.030420
  0.862000, -0.045910
  0.864000, -0.049500
  0.866000, -0.043100
  0.868000, -0.023130
  0.870000,  0.001800
  0.872000,  0.025670
  0.874000,  0.052210
  0.876000,  0.077200
  0.878000,  0.088900
  0.880000,  0.098850
  0.882000,  0.094890
  0.884000,  0.090460
  0.886000,  0.080960
  0.888000,  0.074000
  0.890000,  0.063250
  0.892000,  0.061000
  0.894000,  0.062060
  0.896000,  0.073700
  0.898000,  0.087210
  0.900000,  0.099290
  0.902000,  0.113600
  0.904000,  0.129270
  0.906000,  0.138340
  0.908000,  0.145010
  0.910000,  0.153090
  0.912000,  0.151450
  0.914000,  0.149770
  0.916000,  0.147100
  0.918000,  0.139700
  0.920000,  0.133850
  0.922000,  0.122440
  0.924000,  0.107400
  0.926000,  0.092720
  0.928000,  0.073120
  0.930000,  0.057660
  0.932000,  0.042860
  0.934000,  0.024290
  0.936000,  0.002860
  0.938000, -0.012560
  0.940000, -0.024230
  0.942000, -0.033190
  0.944000, -0.030210
  0.946000, -0.024890
  0.948000, -0.009720
  0.950000,  0.010880
  0.952000,  0.030610
  0.954000,  0.046060
  0.956000,  0.050110
  0.958000,  0.047560
  0.960000,  0.040030
  0.962000,  0.015170
  0.964000, -0.019490
  0.966000, -0.050820
  0.968000, -0.081360
  0.970000, -0.108610
  0.972000, -0.122910
  0.974000, -0.127240
  0.976000, -0.124560
  0.978000, -0.115610
  0.980000, -0.102350
  0.982000, -0.091240
  0.984000, -0.085070
  0.986000, -0.078110
  0.988000, -0.086320
  0.990000, -0.097850
  0.992000, -0.113480
  0.994000, -0.131940
  0.996000, -0.145650
  0.998000, -0.164740
  1.000000, -0.182810
