# z (nm)   (kJ/mol)
  0.122000,265.597650
  0.124000,263.519250
  0.126000,260.967860
  0.128000,258.603490
  0.130000,256.443600
  0.132000,254.455280
  0.134000,252.401300
  0.136000,250.392070
  0.138000,248.313540
  0.140000,246.218700
  0.142000,244.060590
  0.144000,241.813230
  0.146000,239.456620
  0.148000,236.983810
  0.150000,234.392020
  0.152000,231.669230
  0.154000,228.818330
  0.156000,225.827860
  0.158000,222.689060
  0.160000,219.391040
  0.162000,215.912210
  0.164000,212.248350
  0.166000,208.403780
  0.168000,204.404380
  0.170000,200.287530
  0.172000,196.076390
  0.174000,191.783180
  0.176000,187.414990
  0.178000,182.991550
  0.180000,178.547840
  0.182000,174.152500
  0.184000,169.898440
  0.186000,165.865060
  0.188000,162.085930
  0.190000,158.565730
  0.192000,155.242980
  0.194000,152.043340
  0.196000,148.892340
  0.198000,145.725720
  0.200000,142.515960
  0.202000,139.256520
  0.204000,135.960790
  0.206000,132.649380
  0.208000,129.356870
  0.210000,126.092970
  0.212000,122.890960
  0.214000,119.744210
  0.216000,116.649920
  0.218000,113.581560
  0.220000,110.527820
  0.222000,107.487430
  0.224000,104.466760
  0.226000,101.485340
  0.228000, 98.584830
  0.230000, 95.779850
  0.232000, 93.100580
  0.234000, 90.544460
  0.236000, 88.090350
  0.238000, 85.713210
  0.240000, 83.375420
  0.242000, 81.045930
  0.244000, 78.710410
  0.246000, 76.368120
  0.248000, 74.034550
  0.250000, 71.718160
  0.252000, 69.432280
  0.254000, 67.191300
  0.256000, 65.009250
  0.258000, 62.889600
  0.260000, 60.828560
  0.262000, 58.812390
  0.264000, 56.823790
  0.266000, 54.841960
  0.268000, 52.861050
  0.270000, 50.883640
  0.272000, 48.934870
  0.274000, 47.035450
  0.276000, 45.182290
  0.278000, 43.379160
  0.280000, 41.622700
  0.282000, 39.907470
  0.284000, 38.226060
  0.286000, 36.598570
  0.288000, 34.986230
  0.290000, 33.394650
  0.292000, 31.802110
  0.294000, 30.196710
  0.296000, 28.593940
  0.298000, 27.013500
  0.300000, 25.482680
  0.302000, 24.004680
  0.304000, 22.570150
  0.306000, 21.181480
  0.308000, 19.814820
  0.310000, 18.458510
  0.312000, 17.114210
  0.314000, 15.773890
  0.316000, 14.447200
  0.318000, 13.127070
  0.320000, 11.825520
  0.322000, 10.539960
  0.324000,  9.283820
  0.326000,  8.077550
  0.328000,  6.926760
  0.330000,  5.837290
  0.332000,  4.803820
  0.334000,  3.796090
  0.336000,  2.796090
  0.338000,  1.805020
  0.340000,  0.800780
  0.342000, -0.214320
  0.344000, -1.212650
  0.346000, -2.175820
  0.348000, -3.096180
  0.350000, -3.955010
  0.352000, -4.735500
  0.354000, -5.451900
  0.356000, -6.129610
  0.358000, -6.801550
  0.360000, -7.468720
  0.362000, -8.149270
  0.364000, -8.809980
  0.366000, -9.436540
  0.368000,-10.018360
  0.370000,-10.554680
  0.372000,-11.039880
  0.374000,-11.495740
  0.376000,-11.920630
  0.378000,-12.323260
  0.380000,-12.714490
  0.382000,-13.071010
  0.384000,-13.402990
  0.386000,-13.709540
  0.388000,-13.986650
  0.390000,-14.249690
  0.392000,-14.500430
  0.394000,-14.732210
  0.396000,-14.940360
  0.398000,-15.116500
  0.400000,-15.259040
  0.402000,-15.372420
  0.404000,-15.467340
  0.406000,-15.553210
  0.408000,-15.624060
  0.410000,-15.675660
  0.412000,-15.712580
  0.414000,-15.741920
  0.416000,-15.767710
  0.418000,-15.793850
  0.420000,-15.819120
  0.422000,-15.826920
  0.424000,-15.807590
  0.426000,-15.763030
  0.428000,-15.717620
  0.430000,-15.669890
  0.432000,-15.642090
  0.434000,-15.634970
  0.436000,-15.634700
  0.438000,-15.630120
  0.440000,-15.613840
  0.442000,-15.587550
  0.444000,-15.554600
  0.446000,-15.503120
  0.448000,-15.455910
  0.450000,-15.408290
  0.452000,-15.366810
  0.454000,-15.334340
  0.456000,-15.299940
  0.458000,-15.261190
  0.460000,-15.217080
  0.462000,-15.161800
  0.464000,-15.093820
  0.466000,-15.021130
  0.468000,-14.950750
  0.470000,-14.856760
  0.472000,-14.754140
  0.474000,-14.651750
  0.476000,-14.548730
  0.478000,-14.464350
  0.480000,-14.400840
  0.482000,-14.344360
  0.484000,-14.289650
  0.486000,-14.204100
  0.488000,-14.083850
  0.490000,-13.933950
  0.492000,-13.749330
  0.494000,-13.543740
  0.496000,-13.336140
  0.498000,-13.118580
  0.500000,-12.897980
  0.502000,-12.682910
  0.504000,-12.482770
  0.506000,-12.293800
  0.508000,-12.125010
  0.510000,-11.969460
  0.512000,-11.825200
  0.514000,-11.672050
  0.516000,-11.501770
  0.518000,-11.312700
  0.520000,-11.090410
  0.522000,-10.847080
  0.524000,-10.586840
  0.526000,-10.318740
  0.528000,-10.067880
  0.530000, -9.809830
  0.532000, -9.573820
  0.534000, -9.343530
  0.536000, -9.133910
  0.538000, -8.943280
  0.540000, -8.776090
  0.542000, -8.631190
  0.544000, -8.500170
  0.546000, -8.366910
  0.548000, -8.221020
  0.550000, -8.048580
  0.552000, -7.856360
  0.554000, -7.642190
  0.556000, -7.407500
  0.558000, -7.177160
  0.560000, -6.973000
  0.562000, -6.807640
  0.564000, -6.684110
  0.566000, -6.591130
  0.568000, -6.508970
  0.570000, -6.429140
  0.572000, -6.332240
  0.574000, -6.208090
  0.576000, -6.056180
  0.578000, -5.879180
  0.580000, -5.696150
  0.582000, -5.513490
  0.584000, -5.348800
  0.586000, -5.205410
  0.588000, -5.074580
  0.590000, -4.970510
  0.592000, -4.857280
  0.594000, -4.749010
  0.596000, -4.622500
  0.598000, -4.487580
  0.600000, -4.332520
  0.602000, -4.174140
  0.604000, -4.010560
  0.606000, -3.854600
  0.608000, -3.698340
  0.610000, -3.549180
  0.612000, -3.403720
  0.614000, -3.259520
  0.616000, -3.126750
  0.618000, -3.001850
  0.620000, -2.888980
  0.622000, -2.781450
  0.624000, -2.668450
  0.626000, -2.565960
  0.628000, -2.456720
  0.630000, -2.334440
  0.632000, -2.205890
  0.634000, -2.067720
  0.636000, -1.933430
  0.638000, -1.809880
  0.640000, -1.707160
  0.642000, -1.621500
  0.644000, -1.550280
  0.646000, -1.498910
  0.648000, -1.457670
  0.650000, -1.426730
  0.652000, -1.397610
  0.654000, -1.374400
  0.656000, -1.351000
  0.658000, -1.317970
  0.660000, -1.276720
  0.662000, -1.222800
  0.664000, -1.174470
  0.666000, -1.130220
  0.668000, -1.110770
  0.670000, -1.114790
  0.672000, -1.139470
  0.674000, -1.179790
  0.676000, -1.213070
  0.678000, -1.229010
  0.680000, -1.225770
  0.682000, -1.199100
  0.684000, -1.160970
  0.686000, -1.140570
  0.688000, -1.132150
  0.690000, -1.138460
  0.692000, -1.160320
  0.694000, -1.182230
  0.696000, -1.211570
  0.698000, -1.228100
  0.700000, -1.225320
  0.702000, -1.205830
  0.704000, -1.185630
  0.706000, -1.176240
  0.708000, -1.165810
  0.710000, -1.156040
  0.712000, -1.158670
  0.714000, -1.154690
  0.716000, -1.152630
  0.718000, -1.140190
  0.720000, -1.125940
  0.722000, -1.105570
  0.724000, -1.078780
  0.726000, -1.053060
  0.728000, -1.032000
  0.730000, -1.012000
  0.732000, -0.998000
  0.734000, -0.993730
  0.736000, -0.998840
  0.738000, -1.003590
  0.740000, -1.008220
  0.742000, -1.011310
  0.744000, -1.017740
  0.746000, -1.024850
  0.748000, -1.036060
  0.750000, -1.047020
  0.752000, -1.050100
  0.754000, -1.044000
  0.756000, -1.031540
  0.758000, -1.014130
  0.760000, -0.994270
  0.762000, -0.978490
  0.764000, -0.963760
  0.766000, -0.954380
  0.768000, -0.951800
  0.770000, -0.942970
  0.772000, -0.926740
  0.774000, -0.902710
  0.776000, -0.866130
  0.778000, -0.827240
  0.780000, -0.782550
  0.782000, -0.743290
  0.784000, -0.721790
  0.786000, -0.714480
  0.788000, -0.713270
  0.790000, -0.713270
  0.792000, -0.716890
  0.794000, -0.713750
  0.796000, -0.711360
  0.798000, -0.707640
  0.800000, -0.712730
  0.802000, -0.731200
  0.804000, -0.757830
  0.806000, -0.798930
  0.808000, -0.842180
  0.810000, -0.877840
  0.812000, -0.887550
  0.814000, -0.846510
  0.816000, -0.738330
  0.818000, -0.562580
  0.820000, -0.327060
  0.822000, -0.091520
  0.824000, -0.027700
  0.826000, -0.428600
  0.828000, -1.257030
  0.830000, -1.762240
  0.832000, -1.320080
  0.834000, -0.476260
  0.836000, -0.015940
  0.838000, -0.026700
  0.840000, -0.213630
  0.842000, -0.409370
  0.844000, -0.540090
  0.846000, -0.602360
  0.848000, -0.604660
  0.850000, -0.566250
  0.852000, -0.515200
  0.854000, -0.455700
  0.856000, -0.411860
  0.858000, -0.378840
  0.860000, -0.365440
  0.862000, -0.353160
  0.864000, -0.321930
  0.866000, -0.277560
  0.868000, -0.230000
  0.870000, -0.174550
  0.872000, -0.139610
  0.874000, -0.133290
  0.876000, -0.155810
  0.878000, -0.200440
  0.880000, -0.241810
  0.882000, -0.267280
  0.884000, -0.260040
  0.886000, -0.223220
  0.888000, -0.155510
  0.890000, -0.069900
  0.892000,  0.004420
  0.894000,  0.054210
  0.896000,  0.061920
  0.898000,  0.036160
  0.900000, -0.011650
  0.902000, -0.067550
  0.904000, -0.098470
  0.906000, -0.098670
  0.908000, -0.070540
  0.910000, -0.020150
  0.912000,  0.032570
  0.914000,  0.075080
  0.916000,  0.084670
  0.918000,  0.057560
  0.920000, -0.005670
  0.922000, -0.091370
  0.924000, -0.167610
  0.926000, -0.228020
  0.928000, -0.253930
  0.930000, -0.239090
  0.932000, -0.203300
  0.934000, -0.159510
  0.936000, -0.108690
  0.938000, -0.055110
  0.940000,  0.006850
  0.942000,  0.063830
  0.944000,  0.114210
  0.946000,  0.149300
  0.948000,  0.155080
  0.950000,  0.143260
  0.952000,  0.123040
  0.954000,  0.104720
  0.956000,  0.091760
  0.958000,  0.091670
  0.960000,  0.099980
  0.962000,  0.113020
  0.964000,  0.118820
  0.966000,  0.117220
  0.968000,  0.108150
  0.970000,  0.091390
  0.972000,  0.072060
  0.974000,  0.043610
  0.976000,  0.030410
  0.978000,  0.024980
  0.980000,  0.036050
  0.982000,  0.042630
  0.984000,  0.052040
  0.986000,  0.045820
  0.988000,  0.019260
  0.990000, -0.019000
  0.992000, -0.049770
  0.994000, -0.079690
  0.996000, -0.091690
  0.998000, -0.098330
  1.000000, -0.102860
