# z (nm)   (kJ/mol)
  0.068000,275.871440
  0.070000,273.460790
  0.072000,271.073380
  0.074000,268.474880
  0.076000,265.764860
  0.078000,263.215540
  0.080000,260.602430
  0.082000,257.887210
  0.084000,255.183780
  0.086000,252.389130
  0.088000,249.513690
  0.090000,246.538800
  0.092000,243.453830
  0.094000,240.246670
  0.096000,236.921140
  0.098000,233.466540
  0.100000,229.885640
  0.102000,226.171370
  0.104000,222.327760
  0.106000,218.353440
  0.108000,214.255040
  0.110000,210.048030
  0.112000,205.754930
  0.114000,201.399510
  0.116000,197.013320
  0.118000,192.616540
  0.120000,188.214820
  0.122000,183.829330
  0.124000,179.447750
  0.126000,175.077080
  0.128000,170.721370
  0.130000,166.390870
  0.132000,162.114680
  0.134000,157.921720
  0.136000,153.835350
  0.138000,149.885590
  0.140000,146.078210
  0.142000,142.412480
  0.144000,138.868740
  0.146000,135.435580
  0.148000,132.082030
  0.150000,128.788740
  0.152000,125.539820
  0.154000,122.317050
  0.156000,119.119590
  0.158000,115.942400
  0.160000,112.773150
  0.162000,109.612340
  0.164000,106.453130
  0.166000,103.290520
  0.168000,100.131460
  0.170000, 96.986990
  0.172000, 93.873870
  0.174000, 90.814200
  0.176000, 87.831400
  0.178000, 84.945680
  0.180000, 82.164400
  0.182000, 79.477040
  0.184000, 76.864670
  0.186000, 74.308940
  0.188000, 71.779090
  0.190000, 69.254630
  0.192000, 66.731510
  0.194000, 64.202870
  0.196000, 61.681640
  0.198000, 59.178660
  0.200000, 56.717600
  0.202000, 54.311870
  0.204000, 51.980580
  0.206000, 49.727340
  0.208000, 47.549630
  0.210000, 45.444180
  0.212000, 43.393870
  0.214000, 41.392610
  0.216000, 39.418570
  0.218000, 37.474030
  0.220000, 35.552950
  0.222000, 33.663800
  0.224000, 31.804090
  0.226000, 29.985900
  0.228000, 28.213140
  0.230000, 26.491450
  0.232000, 24.826130
  0.234000, 23.215230
  0.236000, 21.656850
  0.238000, 20.159400
  0.240000, 18.715580
  0.242000, 17.327150
  0.244000, 15.983520
  0.246000, 14.684680
  0.248000, 13.411690
  0.250000, 12.154210
  0.252000, 10.921400
  0.254000,  9.704780
  0.256000,  8.518890
  0.258000,  7.361240
  0.260000,  6.247710
  0.262000,  5.185260
  0.264000,  4.167910
  0.266000,  3.200810
  0.268000,  2.285410
  0.270000,  1.408410
  0.272000,  0.571830
  0.274000, -0.238570
  0.276000, -1.032010
  0.278000, -1.799540
  0.280000, -2.533300
  0.282000, -3.241380
  0.284000, -3.908560
  0.286000, -4.532780
  0.288000, -5.120870
  0.290000, -5.671830
  0.292000, -6.185940
  0.294000, -6.672190
  0.296000, -7.138510
  0.298000, -7.588100
  0.300000, -8.021790
  0.302000, -8.443790
  0.304000, -8.850640
  0.306000, -9.233730
  0.308000, -9.595660
  0.310000, -9.928280
  0.312000,-10.223750
  0.314000,-10.483880
  0.316000,-10.704020
  0.318000,-10.891100
  0.320000,-11.045020
  0.322000,-11.173170
  0.324000,-11.291260
  0.326000,-11.389130
  0.328000,-11.479850
  0.330000,-11.557720
  0.332000,-11.629770
  0.334000,-11.679660
  0.336000,-11.718750
  0.338000,-11.741690
  0.340000,-11.743130
  0.342000,-11.730560
  0.344000,-11.700760
  0.346000,-11.657140
  0.348000,-11.594880
  0.350000,-11.515350
  0.352000,-11.419500
  0.354000,-11.312610
  0.356000,-11.197210
  0.358000,-11.072250
  0.360000,-10.941930
  0.362000,-10.814570
  0.364000,-10.691770
  0.366000,-10.570640
  0.368000,-10.456780
  0.370000,-10.338820
  0.372000,-10.232770
  0.374000,-10.118030
  0.376000, -9.994280
  0.378000, -9.862250
  0.380000, -9.717450
  0.382000, -9.555480
  0.384000, -9.395500
  0.386000, -9.222320
  0.388000, -9.044570
  0.390000, -8.863860
  0.392000, -8.683980
  0.394000, -8.509800
  0.396000, -8.332840
  0.398000, -8.164330
  0.400000, -8.005900
  0.402000, -7.855070
  0.404000, -7.707930
  0.406000, -7.559940
  0.408000, -7.424630
  0.410000, -7.298960
  0.412000, -7.177350
  0.414000, -7.059300
  0.416000, -6.939900
  0.418000, -6.820690
  0.420000, -6.700420
  0.422000, -6.571590
  0.424000, -6.439870
  0.426000, -6.305500
  0.428000, -6.175760
  0.430000, -6.048670
  0.432000, -5.934600
  0.434000, -5.824220
  0.436000, -5.723450
  0.438000, -5.630400
  0.440000, -5.544850
  0.442000, -5.459680
  0.444000, -5.374540
  0.446000, -5.285340
  0.448000, -5.198240
  0.450000, -5.104590
  0.452000, -5.007180
  0.454000, -4.917880
  0.456000, -4.835590
  0.458000, -4.762860
  0.460000, -4.699630
  0.462000, -4.643410
  0.464000, -4.606470
  0.466000, -4.577870
  0.468000, -4.560880
  0.470000, -4.539990
  0.472000, -4.521800
  0.474000, -4.510930
  0.476000, -4.489750
  0.478000, -4.465300
  0.480000, -4.437790
  0.482000, -4.405190
  0.484000, -4.370630
  0.486000, -4.340890
  0.488000, -4.317000
  0.490000, -4.296330
  0.492000, -4.275000
  0.494000, -4.255810
  0.496000, -4.228700
  0.498000, -4.194080
  0.500000, -4.156420
  0.502000, -4.103880
  0.504000, -4.043980
  0.506000, -3.973220
  0.508000, -3.891890
  0.510000, -3.809560
  0.512000, -3.717950
  0.514000, -3.621070
  0.516000, -3.521220
  0.518000, -3.420450
  0.520000, -3.306740
  0.522000, -3.187700
  0.524000, -3.063650
  0.526000, -2.932990
  0.528000, -2.803630
  0.530000, -2.670580
  0.532000, -2.529580
  0.534000, -2.387340
  0.536000, -2.234820
  0.538000, -2.090380
  0.540000, -1.939610
  0.542000, -1.784310
  0.544000, -1.631520
  0.546000, -1.469330
  0.548000, -1.305880
  0.550000, -1.144730
  0.552000, -0.981590
  0.554000, -0.822170
  0.556000, -0.670610
  0.558000, -0.525600
  0.560000, -0.386870
  0.562000, -0.256690
  0.564000, -0.140210
  0.566000, -0.026550
  0.568000,  0.079540
  0.570000,  0.185730
  0.572000,  0.284150
  0.574000,  0.378940
  0.576000,  0.471740
  0.578000,  0.551910
  0.580000,  0.632910
  0.582000,  0.711610
  0.584000,  0.773830
  0.586000,  0.838660
  0.588000,  0.893790
  0.590000,  0.955950
  0.592000,  1.012950
  0.594000,  1.065610
  0.596000,  1.120020
  0.598000,  1.168040
  0.600000,  1.212410
  0.602000,  1.251250
  0.604000,  1.272420
  0.606000,  1.288080
  0.608000,  1.285330
  0.610000,  1.270860
  0.612000,  1.237770
  0.614000,  1.193980
  0.616000,  1.149610
  0.618000,  1.097150
  0.620000,  1.044150
  0.622000,  0.995350
  0.624000,  0.944460
  0.626000,  0.888070
  0.628000,  0.842730
  0.630000,  0.799830
  0.632000,  0.754660
  0.634000,  0.718460
  0.636000,  0.685680
  0.638000,  0.658700
  0.640000,  0.636930
  0.642000,  0.610510
  0.644000,  0.583550
  0.646000,  0.551620
  0.648000,  0.522380
  0.650000,  0.485850
  0.652000,  0.453500
  0.654000,  0.410220
  0.656000,  0.362590
  0.658000,  0.310300
  0.660000,  0.256050
  0.662000,  0.202720
  0.664000,  0.159820
  0.666000,  0.125160
  0.668000,  0.097980
  0.670000,  0.080640
  0.672000,  0.080530
  0.674000,  0.086200
  0.676000,  0.101080
  0.678000,  0.112340
  0.680000,  0.121500
  0.682000,  0.123820
  0.684000,  0.118010
  0.686000,  0.108220
  0.688000,  0.091740
  0.690000,  0.071390
  0.692000,  0.051700
  0.694000,  0.031330
  0.696000,  0.018460
  0.698000,  0.013160
  0.700000,  0.016460
  0.702000,  0.027250
  0.704000,  0.037810
  0.706000,  0.047210
  0.708000,  0.052840
  0.710000,  0.045540
  0.712000,  0.034830
  0.714000,  0.013210
  0.716000, -0.008980
  0.718000, -0.034670
  0.720000, -0.062520
  0.722000, -0.083280
  0.724000, -0.088390
  0.726000, -0.087100
  0.728000, -0.082540
  0.730000, -0.062160
  0.732000, -0.036570
  0.734000, -0.012380
  0.736000,  0.018330
  0.738000,  0.044730
  0.740000,  0.067850
  0.742000,  0.087170
  0.744000,  0.098020
  0.746000,  0.095310
  0.748000,  0.076720
  0.750000,  0.057670
  0.752000,  0.030780
  0.754000, -0.001220
  0.756000, -0.033540
  0.758000, -0.070530
  0.760000, -0.103590
  0.762000, -0.135710
  0.764000, -0.164690
  0.766000, -0.181130
  0.768000, -0.197610
  0.770000, -0.201910
  0.772000, -0.204540
  0.774000, -0.194420
  0.776000, -0.182450
  0.778000, -0.165990
  0.780000, -0.144460
  0.782000, -0.126770
  0.784000, -0.110030
  0.786000, -0.109270
  0.788000, -0.113720
  0.790000, -0.128940
  0.792000, -0.145060
  0.794000, -0.168560
  0.796000, -0.197820
  0.798000, -0.224010
  0.800000, -0.244310
  0.802000, -0.262620
  0.804000, -0.273900
  0.806000, -0.269950
  0.808000, -0.261120
  0.810000, -0.238300
  0.812000, -0.203820
  0.814000, -0.170850
  0.816000, -0.137960
  0.818000, -0.105900
  0.820000, -0.078080
  0.822000, -0.053030
  0.824000, -0.037330
  0.826000, -0.028360
  0.828000, -0.026280
  0.830000, -0.035010
  0.832000, -0.044770
  0.834000, -0.059140
  0.836000, -0.064960
  0.838000, -0.060610
  0.840000, -0.054170
  0.842000, -0.037010
  0.844000, -0.012190
  0.846000,  0.018600
  0.848000,  0.052850
  0.850000,  0.096410
  0.852000,  0.132150
  0.854000,  0.168490
  0.856000,  0.195080
  0.858000,  0.212950
  0.860000,  0.221820
  0.862000,  0.227400
  0.864000,  0.226850
  0.866000,  0.219770
  0.868000,  0.209750
  0.870000,  0.198000
  0.872000,  0.189420
  0.874000,  0.180070
  0.876000,  0.169330
  0.878000,  0.162810
  0.880000,  0.160780
  0.882000,  0.161510
  0.884000,  0.164150
  0.886000,  0.169430
  0.888000,  0.181460
  0.890000,  0.203320
  0.892000,  0.229170
  0.894000,  0.254800
  0.896000,  0.285060
  0.898000,  0.313680
  0.900000,  0.337960
  0.902000,  0.356640
  0.904000,  0.358400
  0.906000,  0.351130
  0.908000,  0.337610
  0.910000,  0.317060
  0.912000,  0.277360
  0.914000,  0.240140
  0.916000,  0.202910
  0.918000,  0.169740
  0.920000,  0.150160
  0.922000,  0.123210
  0.924000,  0.110790
  0.926000,  0.113420
  0.928000,  0.122670
  0.930000,  0.131100
  0.932000,  0.148040
  0.934000,  0.167300
  0.936000,  0.189770
  0.938000,  0.191990
  0.940000,  0.191220
  0.942000,  0.179260
  0.944000,  0.163120
  0.946000,  0.136370
  0.948000,  0.101680
  0.950000,  0.069710
  0.952000,  0.031620
  0.954000, -0.006750
  0.956000, -0.043540
  0.958000, -0.076720
  0.960000, -0.108040
  0.962000, -0.131660
  0.964000, -0.151170
  0.966000, -0.160450
  0.968000, -0.168530
  0.970000, -0.171860
  0.972000, -0.173420
  0.974000, -0.176820
  0.976000, -0.179320
  0.978000, -0.185920
  0.980000, -0.197280
  0.982000, -0.209780
  0.984000, -0.226480
  0.986000, -0.246110
  0.988000, -0.270280
  0.990000, -0.293320
  0.992000, -0.320490
  0.994000, -0.343260
  0.996000, -0.355970
  0.998000, -0.366080
  1.000000, -0.369160
