# z (nm)   (kJ/mol)
  0.080000,270.423900
  0.082000,267.777560
  0.084000,265.145780
  0.086000,262.455920
  0.088000,259.141100
  0.090000,256.000820
  0.092000,253.008070
  0.094000,250.077930
  0.096000,247.044000
  0.098000,243.959490
  0.100000,240.826900
  0.102000,237.624000
  0.104000,234.334860
  0.106000,230.962300
  0.108000,227.493100
  0.110000,223.930920
  0.112000,220.267340
  0.114000,216.503320
  0.116000,212.642400
  0.118000,208.688670
  0.120000,204.653980
  0.122000,200.547540
  0.124000,196.381670
  0.126000,192.175210
  0.128000,187.940690
  0.130000,183.708850
  0.132000,179.491220
  0.134000,175.313730
  0.136000,171.192390
  0.138000,167.137900
  0.140000,163.158920
  0.142000,159.255960
  0.144000,155.428980
  0.146000,151.667260
  0.148000,147.967380
  0.150000,144.322760
  0.152000,140.718140
  0.154000,137.170230
  0.156000,133.675270
  0.158000,130.240340
  0.160000,126.876320
  0.162000,123.584270
  0.164000,120.384230
  0.166000,117.272810
  0.168000,114.248000
  0.170000,111.299260
  0.172000,108.413200
  0.174000,105.575560
  0.176000,102.773940
  0.178000, 99.988850
  0.180000, 97.198110
  0.182000, 94.382310
  0.184000, 91.530180
  0.186000, 88.637790
  0.188000, 85.734430
  0.190000, 82.839560
  0.192000, 79.995160
  0.194000, 77.225090
  0.196000, 74.546300
  0.198000, 71.972510
  0.200000, 69.493990
  0.202000, 67.090040
  0.204000, 64.758820
  0.206000, 62.465530
  0.208000, 60.186440
  0.210000, 57.911310
  0.212000, 55.626740
  0.214000, 53.344490
  0.216000, 51.082570
  0.218000, 48.862880
  0.220000, 46.708670
  0.222000, 44.637590
  0.224000, 42.635440
  0.226000, 40.699550
  0.228000, 38.821400
  0.230000, 36.994080
  0.232000, 35.211400
  0.234000, 33.475210
  0.236000, 31.770680
  0.238000, 30.109740
  0.240000, 28.476690
  0.242000, 26.863730
  0.244000, 25.268290
  0.246000, 23.695430
  0.248000, 22.147250
  0.250000, 20.627000
  0.252000, 19.151750
  0.254000, 17.721040
  0.256000, 16.352130
  0.258000, 15.052240
  0.260000, 13.807270
  0.262000, 12.618390
  0.264000, 11.468110
  0.266000, 10.352500
  0.268000,  9.250250
  0.270000,  8.140970
  0.272000,  7.039690
  0.274000,  5.945670
  0.276000,  4.866950
  0.278000,  3.817270
  0.280000,  2.813580
  0.282000,  1.863720
  0.284000,  0.978450
  0.286000,  0.164600
  0.288000, -0.597270
  0.290000, -1.308120
  0.292000, -1.991410
  0.294000, -2.653090
  0.296000, -3.308790
  0.298000, -3.960510
  0.300000, -4.598350
  0.302000, -5.216070
  0.304000, -5.810060
  0.306000, -6.366940
  0.308000, -6.884080
  0.310000, -7.362990
  0.312000, -7.798220
  0.314000, -8.192470
  0.316000, -8.562950
  0.318000, -8.898390
  0.320000, -9.217850
  0.322000, -9.520750
  0.324000, -9.808730
  0.326000,-10.064010
  0.328000,-10.311260
  0.330000,-10.524350
  0.332000,-10.720960
  0.334000,-10.883280
  0.336000,-11.012690
  0.338000,-11.125990
  0.340000,-11.212760
  0.342000,-11.274110
  0.344000,-11.323520
  0.346000,-11.369380
  0.348000,-11.403530
  0.350000,-11.429770
  0.352000,-11.457700
  0.354000,-11.474530
  0.356000,-11.486030
  0.358000,-11.490640
  0.360000,-11.479830
  0.362000,-11.459780
  0.364000,-11.421440
  0.366000,-11.356360
  0.368000,-11.288050
  0.370000,-11.195600
  0.372000,-11.106120
  0.374000,-11.006010
  0.376000,-10.913780
  0.378000,-10.820080
  0.380000,-10.743740
  0.382000,-10.660280
  0.384000,-10.569210
  0.386000,-10.466030
  0.388000,-10.353220
  0.390000,-10.221800
  0.392000,-10.084040
  0.394000, -9.960860
  0.396000, -9.835800
  0.398000, -9.722650
  0.400000, -9.614440
  0.402000, -9.512380
  0.404000, -9.419950
  0.406000, -9.330040
  0.408000, -9.232800
  0.410000, -9.132310
  0.412000, -9.028240
  0.414000, -8.928190
  0.416000, -8.822610
  0.418000, -8.725120
  0.420000, -8.624780
  0.422000, -8.526840
  0.424000, -8.432760
  0.426000, -8.341570
  0.428000, -8.254150
  0.430000, -8.174800
  0.432000, -8.098380
  0.434000, -8.029240
  0.436000, -7.971360
  0.438000, -7.914780
  0.440000, -7.862540
  0.442000, -7.807480
  0.444000, -7.752600
  0.446000, -7.681930
  0.448000, -7.605800
  0.450000, -7.530880
  0.452000, -7.451980
  0.454000, -7.377700
  0.456000, -7.294150
  0.458000, -7.199400
  0.460000, -7.110220
  0.462000, -7.010330
  0.464000, -6.901650
  0.466000, -6.783640
  0.468000, -6.660920
  0.470000, -6.538640
  0.472000, -6.419090
  0.474000, -6.308100
  0.476000, -6.208920
  0.478000, -6.124110
  0.480000, -6.047590
  0.482000, -5.966040
  0.484000, -5.894770
  0.486000, -5.817970
  0.488000, -5.736480
  0.490000, -5.645710
  0.492000, -5.546700
  0.494000, -5.435930
  0.496000, -5.320880
  0.498000, -5.197990
  0.500000, -5.073690
  0.502000, -4.946190
  0.504000, -4.826740
  0.506000, -4.701810
  0.508000, -4.587160
  0.510000, -4.472010
  0.512000, -4.369670
  0.514000, -4.261360
  0.516000, -4.158990
  0.518000, -4.057110
  0.520000, -3.957230
  0.522000, -3.861890
  0.524000, -3.767300
  0.526000, -3.670380
  0.528000, -3.573830
  0.530000, -3.472050
  0.532000, -3.367460
  0.534000, -3.259340
  0.536000, -3.141150
  0.538000, -3.011680
  0.540000, -2.875160
  0.542000, -2.728160
  0.544000, -2.570340
  0.546000, -2.415180
  0.548000, -2.256240
  0.550000, -2.099000
  0.552000, -1.945000
  0.554000, -1.799060
  0.556000, -1.662820
  0.558000, -1.536670
  0.560000, -1.418730
  0.562000, -1.304260
  0.564000, -1.194250
  0.566000, -1.090880
  0.568000, -0.982910
  0.570000, -0.885640
  0.572000, -0.794160
  0.574000, -0.698550
  0.576000, -0.614040
  0.578000, -0.528700
  0.580000, -0.451070
  0.582000, -0.381140
  0.584000, -0.318250
  0.586000, -0.266910
  0.588000, -0.214550
  0.590000, -0.176320
  0.592000, -0.140200
  0.594000, -0.102260
  0.596000, -0.064370
  0.598000, -0.029260
  0.600000,  0.001660
  0.602000,  0.031710
  0.604000,  0.058430
  0.606000,  0.077480
  0.608000,  0.088160
  0.610000,  0.100590
  0.612000,  0.099990
  0.614000,  0.091330
  0.616000,  0.076000
  0.618000,  0.056620
  0.620000,  0.035990
  0.622000,  0.018620
  0.624000, -0.001820
  0.626000, -0.018620
  0.628000, -0.037020
  0.630000, -0.044690
  0.632000, -0.059590
  0.634000, -0.076680
  0.636000, -0.099820
  0.638000, -0.117760
  0.640000, -0.137550
  0.642000, -0.156680
  0.644000, -0.173040
  0.646000, -0.189680
  0.648000, -0.210820
  0.650000, -0.235840
  0.652000, -0.251810
  0.654000, -0.268300
  0.656000, -0.285440
  0.658000, -0.311170
  0.660000, -0.338460
  0.662000, -0.367460
  0.664000, -0.396770
  0.666000, -0.432850
  0.668000, -0.464030
  0.670000, -0.487350
  0.672000, -0.517840
  0.674000, -0.541480
  0.676000, -0.565930
  0.678000, -0.581120
  0.680000, -0.594920
  0.682000, -0.611940
  0.684000, -0.627310
  0.686000, -0.642460
  0.688000, -0.663320
  0.690000, -0.683180
  0.692000, -0.710210
  0.694000, -0.732960
  0.696000, -0.751150
  0.698000, -0.759200
  0.700000, -0.766430
  0.702000, -0.778760
  0.704000, -0.777610
  0.706000, -0.772030
  0.708000, -0.769640
  0.710000, -0.766310
  0.712000, -0.764540
  0.714000, -0.761850
  0.716000, -0.762800
  0.718000, -0.766780
  0.720000, -0.775300
  0.722000, -0.791750
  0.724000, -0.805000
  0.726000, -0.821670
  0.728000, -0.825430
  0.730000, -0.833980
  0.732000, -0.832450
  0.734000, -0.834310
  0.736000, -0.824180
  0.738000, -0.807110
  0.740000, -0.776530
  0.742000, -0.753540
  0.744000, -0.732500
  0.746000, -0.711030
  0.748000, -0.691010
  0.750000, -0.678190
  0.752000, -0.667270
  0.754000, -0.657440
  0.756000, -0.655210
  0.758000, -0.655620
  0.760000, -0.656690
  0.762000, -0.657690
  0.764000, -0.653280
  0.766000, -0.642160
  0.768000, -0.625380
  0.770000, -0.605970
  0.772000, -0.581570
  0.774000, -0.562390
  0.776000, -0.542600
  0.778000, -0.517620
  0.780000, -0.490380
  0.782000, -0.467200
  0.784000, -0.439890
  0.786000, -0.418140
  0.788000, -0.393990
  0.790000, -0.372290
  0.792000, -0.358240
  0.794000, -0.343320
  0.796000, -0.336250
  0.798000, -0.335260
  0.800000, -0.324570
  0.802000, -0.324590
  0.804000, -0.318980
  0.806000, -0.311760
  0.808000, -0.298670
  0.810000, -0.280120
  0.812000, -0.259790
  0.814000, -0.246680
  0.816000, -0.226720
  0.818000, -0.206470
  0.820000, -0.197780
  0.822000, -0.184660
  0.824000, -0.179560
  0.826000, -0.171730
  0.828000, -0.167570
  0.830000, -0.155770
  0.832000, -0.133300
  0.834000, -0.103440
  0.836000, -0.066090
  0.838000, -0.029960
  0.840000,  0.005020
  0.842000,  0.031370
  0.844000,  0.045690
  0.846000,  0.053130
  0.848000,  0.038260
  0.850000,  0.007530
  0.852000, -0.021750
  0.854000, -0.057320
  0.856000, -0.095360
  0.858000, -0.126540
  0.860000, -0.142830
  0.862000, -0.142850
  0.864000, -0.124590
  0.866000, -0.084550
  0.868000, -0.029370
  0.870000,  0.044150
  0.872000,  0.109270
  0.874000,  0.168110
  0.876000,  0.221280
  0.878000,  0.263190
  0.880000,  0.290560
  0.882000,  0.305740
  0.884000,  0.297840
  0.886000,  0.278050
  0.888000,  0.250970
  0.890000,  0.221580
  0.892000,  0.194970
  0.894000,  0.164600
  0.896000,  0.141330
  0.898000,  0.130650
  0.900000,  0.126710
  0.902000,  0.128170
  0.904000,  0.135300
  0.906000,  0.148940
  0.908000,  0.163800
  0.910000,  0.179590
  0.912000,  0.196660
  0.914000,  0.206030
  0.916000,  0.212280
  0.918000,  0.209110
  0.920000,  0.204170
  0.922000,  0.190040
  0.924000,  0.178300
  0.926000,  0.159980
  0.928000,  0.141140
  0.930000,  0.118430
  0.932000,  0.093390
  0.934000,  0.072970
  0.936000,  0.049810
  0.938000,  0.028680
  0.940000,  0.016660
  0.942000, -0.006530
  0.944000, -0.021390
  0.946000, -0.036220
  0.948000, -0.038480
  0.950000, -0.047870
  0.952000, -0.053190
  0.954000, -0.056580
  0.956000, -0.057090
  0.958000, -0.052300
  0.960000, -0.046090
  0.962000, -0.035670
  0.964000, -0.022000
  0.966000, -0.010060
  0.968000,  0.001710
  0.970000,  0.002360
  0.972000, -0.002780
  0.974000, -0.013490
  0.976000, -0.026650
  0.978000, -0.056470
  0.980000, -0.083090
  0.982000, -0.118610
  0.984000, -0.156630
  0.986000, -0.191280
  0.988000, -0.214340
  0.990000, -0.237020
  0.992000, -0.252060
  0.994000, -0.254420
  0.996000, -0.257910
  0.998000, -0.247130
  1.000000, -0.242150
