# z (nm)   (kJ/mol)
  0.086000,266.030720
  0.088000,262.567350
  0.090000,260.135900
  0.092000,257.002220
  0.094000,254.220610
  0.096000,251.560920
  0.098000,248.930400
  0.100000,246.213130
  0.102000,243.462320
  0.104000,240.624740
  0.106000,237.684430
  0.108000,234.633770
  0.110000,231.443490
  0.112000,228.104470
  0.114000,224.608060
  0.116000,220.956650
  0.118000,217.145460
  0.120000,213.190480
  0.122000,209.098410
  0.124000,204.879560
  0.126000,200.554520
  0.128000,196.136320
  0.130000,191.633200
  0.132000,187.073020
  0.134000,182.476340
  0.136000,177.870440
  0.138000,173.296740
  0.140000,168.791700
  0.142000,164.390710
  0.144000,160.124710
  0.146000,156.004340
  0.148000,152.030150
  0.150000,148.183010
  0.152000,144.429170
  0.154000,140.738310
  0.156000,137.076330
  0.158000,133.451840
  0.160000,129.869100
  0.162000,126.343940
  0.164000,122.865460
  0.166000,119.412450
  0.168000,115.959310
  0.170000,112.490810
  0.172000,109.012030
  0.174000,105.556350
  0.176000,102.170560
  0.178000, 98.883380
  0.180000, 95.706840
  0.182000, 92.616710
  0.184000, 89.583920
  0.186000, 86.568580
  0.188000, 83.556530
  0.190000, 80.555720
  0.192000, 77.566090
  0.194000, 74.592800
  0.196000, 71.641210
  0.198000, 68.716520
  0.200000, 65.824360
  0.202000, 62.995010
  0.204000, 60.234330
  0.206000, 57.560680
  0.208000, 54.967210
  0.210000, 52.440610
  0.212000, 49.983820
  0.214000, 47.558830
  0.216000, 45.149110
  0.218000, 42.753550
  0.220000, 40.362290
  0.222000, 37.992670
  0.224000, 35.663670
  0.226000, 33.397650
  0.228000, 31.218310
  0.230000, 29.129840
  0.232000, 27.110400
  0.234000, 25.152480
  0.236000, 23.218310
  0.238000, 21.303200
  0.240000, 19.387840
  0.242000, 17.491050
  0.244000, 15.624960
  0.246000, 13.817390
  0.248000, 12.087630
  0.250000, 10.451140
  0.252000,  8.900110
  0.254000,  7.434890
  0.256000,  6.022170
  0.258000,  4.640560
  0.260000,  3.276130
  0.262000,  1.907740
  0.264000,  0.549970
  0.266000, -0.789180
  0.268000, -2.085720
  0.270000, -3.324360
  0.272000, -4.506330
  0.274000, -5.624950
  0.276000, -6.678990
  0.278000, -7.676210
  0.280000, -8.640710
  0.282000, -9.563570
  0.284000,-10.446500
  0.286000,-11.291180
  0.288000,-12.096460
  0.290000,-12.857750
  0.292000,-13.578950
  0.294000,-14.264410
  0.296000,-14.923040
  0.298000,-15.539520
  0.300000,-16.125360
  0.302000,-16.660250
  0.304000,-17.148880
  0.306000,-17.583580
  0.308000,-17.968630
  0.310000,-18.302060
  0.312000,-18.600830
  0.314000,-18.854590
  0.316000,-19.076800
  0.318000,-19.271240
  0.320000,-19.435950
  0.322000,-19.572260
  0.324000,-19.681650
  0.326000,-19.770580
  0.328000,-19.830130
  0.330000,-19.866030
  0.332000,-19.869390
  0.334000,-19.842400
  0.336000,-19.788470
  0.338000,-19.714130
  0.340000,-19.624670
  0.342000,-19.535930
  0.344000,-19.441620
  0.346000,-19.342830
  0.348000,-19.253970
  0.350000,-19.166090
  0.352000,-19.068010
  0.354000,-18.958970
  0.356000,-18.828500
  0.358000,-18.679440
  0.360000,-18.517070
  0.362000,-18.336200
  0.364000,-18.152370
  0.366000,-17.967060
  0.368000,-17.804120
  0.370000,-17.655960
  0.372000,-17.525300
  0.374000,-17.404440
  0.376000,-17.287220
  0.378000,-17.147400
  0.380000,-16.998750
  0.382000,-16.836150
  0.384000,-16.661250
  0.386000,-16.483350
  0.388000,-16.300810
  0.390000,-16.113860
  0.392000,-15.923620
  0.394000,-15.728570
  0.396000,-15.516920
  0.398000,-15.307560
  0.400000,-15.095790
  0.402000,-14.899210
  0.404000,-14.717760
  0.406000,-14.554380
  0.408000,-14.409640
  0.410000,-14.275220
  0.412000,-14.144590
  0.414000,-14.005290
  0.416000,-13.845220
  0.418000,-13.655990
  0.420000,-13.436520
  0.422000,-13.186830
  0.424000,-12.908970
  0.426000,-12.612640
  0.428000,-12.293020
  0.430000,-11.975110
  0.432000,-11.652990
  0.434000,-11.345960
  0.436000,-11.042990
  0.438000,-10.751890
  0.440000,-10.472730
  0.442000,-10.190590
  0.444000, -9.901450
  0.446000, -9.606370
  0.448000, -9.300850
  0.450000, -8.985820
  0.452000, -8.683860
  0.454000, -8.402720
  0.456000, -8.149120
  0.458000, -7.937600
  0.460000, -7.746860
  0.462000, -7.587400
  0.464000, -7.441920
  0.466000, -7.305570
  0.468000, -7.178830
  0.470000, -7.055470
  0.472000, -6.945240
  0.474000, -6.844180
  0.476000, -6.737580
  0.478000, -6.627580
  0.480000, -6.506010
  0.482000, -6.366670
  0.484000, -6.210300
  0.486000, -6.041130
  0.488000, -5.864930
  0.490000, -5.684360
  0.492000, -5.510140
  0.494000, -5.339930
  0.496000, -5.168080
  0.498000, -5.000070
  0.500000, -4.833770
  0.502000, -4.661890
  0.504000, -4.485120
  0.506000, -4.299440
  0.508000, -4.113610
  0.510000, -3.933680
  0.512000, -3.767580
  0.514000, -3.623400
  0.516000, -3.481220
  0.518000, -3.364460
  0.520000, -3.249190
  0.522000, -3.141590
  0.524000, -3.029560
  0.526000, -2.918110
  0.528000, -2.804930
  0.530000, -2.682370
  0.532000, -2.556760
  0.534000, -2.424010
  0.536000, -2.285490
  0.538000, -2.155620
  0.540000, -2.023900
  0.542000, -1.894860
  0.544000, -1.783930
  0.546000, -1.674830
  0.548000, -1.575150
  0.550000, -1.486660
  0.552000, -1.400210
  0.554000, -1.313880
  0.556000, -1.224090
  0.558000, -1.138030
  0.560000, -1.054070
  0.562000, -0.969180
  0.564000, -0.879150
  0.566000, -0.794670
  0.568000, -0.706960
  0.570000, -0.624650
  0.572000, -0.543310
  0.574000, -0.466410
  0.576000, -0.393750
  0.578000, -0.317190
  0.580000, -0.246450
  0.582000, -0.184850
  0.584000, -0.132320
  0.586000, -0.096200
  0.588000, -0.079920
  0.590000, -0.073530
  0.592000, -0.086450
  0.594000, -0.108220
  0.596000, -0.138720
  0.598000, -0.173270
  0.600000, -0.203960
  0.602000, -0.237870
  0.604000, -0.264580
  0.606000, -0.287540
  0.608000, -0.314450
  0.610000, -0.341420
  0.612000, -0.365640
  0.614000, -0.387290
  0.616000, -0.402000
  0.618000, -0.406980
  0.620000, -0.397880
  0.622000, -0.378850
  0.624000, -0.365850
  0.626000, -0.346150
  0.628000, -0.337330
  0.630000, -0.338280
  0.632000, -0.356830
  0.634000, -0.394570
  0.636000, -0.447270
  0.638000, -0.504980
  0.640000, -0.560000
  0.642000, -0.609590
  0.644000, -0.639700
  0.646000, -0.654710
  0.648000, -0.643250
  0.650000, -0.615990
  0.652000, -0.574470
  0.654000, -0.526570
  0.656000, -0.486560
  0.658000, -0.448610
  0.660000, -0.421780
  0.662000, -0.410920
  0.664000, -0.415990
  0.666000, -0.433890
  0.668000, -0.451550
  0.670000, -0.478880
  0.672000, -0.499500
  0.674000, -0.507790
  0.676000, -0.511820
  0.678000, -0.520530
  0.680000, -0.515800
  0.682000, -0.511780
  0.684000, -0.504260
  0.686000, -0.494780
  0.688000, -0.483330
  0.690000, -0.469570
  0.692000, -0.447700
  0.694000, -0.423590
  0.696000, -0.383840
  0.698000, -0.343290
  0.700000, -0.299280
  0.702000, -0.261250
  0.704000, -0.220960
  0.706000, -0.188700
  0.708000, -0.177190
  0.710000, -0.167590
  0.712000, -0.169350
  0.714000, -0.176700
  0.716000, -0.182910
  0.718000, -0.196910
  0.720000, -0.204520
  0.722000, -0.205390
  0.724000, -0.206300
  0.726000, -0.198500
  0.728000, -0.180960
  0.730000, -0.157520
  0.732000, -0.119650
  0.734000, -0.079510
  0.736000, -0.040300
  0.738000,  0.005030
  0.740000,  0.043270
  0.742000,  0.078320
  0.744000,  0.102790
  0.746000,  0.115370
  0.748000,  0.121010
  0.750000,  0.109460
  0.752000,  0.088100
  0.754000,  0.060340
  0.756000,  0.027310
  0.758000, -0.010740
  0.760000, -0.046950
  0.762000, -0.084850
  0.764000, -0.119830
  0.766000, -0.140790
  0.768000, -0.158350
  0.770000, -0.165290
  0.772000, -0.154540
  0.774000, -0.136120
  0.776000, -0.099550
  0.778000, -0.056520
  0.780000, -0.010310
  0.782000,  0.032140
  0.784000,  0.066140
  0.786000,  0.091740
  0.788000,  0.104330
  0.790000,  0.100690
  0.792000,  0.096370
  0.794000,  0.071130
  0.796000,  0.049830
  0.798000,  0.027430
  0.800000,  0.008160
  0.802000,  0.003550
  0.804000, -0.001760
  0.806000,  0.007640
  0.808000,  0.014850
  0.810000,  0.022510
  0.812000,  0.036520
  0.814000,  0.042650
  0.816000,  0.044700
  0.818000,  0.045050
  0.820000,  0.043750
  0.822000,  0.036370
  0.824000,  0.040400
  0.826000,  0.045410
  0.828000,  0.051210
  0.830000,  0.055340
  0.832000,  0.065610
  0.834000,  0.078030
  0.836000,  0.086290
  0.838000,  0.097430
  0.840000,  0.104210
  0.842000,  0.103330
  0.844000,  0.107950
  0.846000,  0.098710
  0.848000,  0.081240
  0.850000,  0.059990
  0.852000,  0.048610
  0.854000,  0.025450
  0.856000, -0.001460
  0.858000, -0.015740
  0.860000, -0.024880
  0.862000, -0.019820
  0.864000, -0.005280
  0.866000,  0.017080
  0.868000,  0.046010
  0.870000,  0.069980
  0.872000,  0.096290
  0.874000,  0.113760
  0.876000,  0.121640
  0.878000,  0.121110
  0.880000,  0.103310
  0.882000,  0.075070
  0.884000,  0.040040
  0.886000, -0.002000
  0.888000, -0.047750
  0.890000, -0.087890
  0.892000, -0.124450
  0.894000, -0.151850
  0.896000, -0.165960
  0.898000, -0.172840
  0.900000, -0.160880
  0.902000, -0.140210
  0.904000, -0.105740
  0.906000, -0.075670
  0.908000, -0.037350
  0.910000, -0.000900
  0.912000,  0.020510
  0.914000,  0.027200
  0.916000,  0.020830
  0.918000, -0.000130
  0.920000, -0.027630
  0.922000, -0.055990
  0.924000, -0.088950
  0.926000, -0.106050
  0.928000, -0.109140
  0.930000, -0.098510
  0.932000, -0.066050
  0.934000, -0.033860
  0.936000, -0.009760
  0.938000,  0.010050
  0.940000,  0.020650
  0.942000,  0.021000
  0.944000,  0.016800
  0.946000,  0.007730
  0.948000,  0.000300
  0.950000, -0.003170
  0.952000,  0.006360
  0.954000,  0.010320
  0.956000,  0.025320
  0.958000,  0.041560
  0.960000,  0.061560
  0.962000,  0.078110
  0.964000,  0.087270
  0.966000,  0.090500
  0.968000,  0.084860
  0.970000,  0.071550
  0.972000,  0.062390
  0.974000,  0.037860
  0.976000,  0.016660
  0.978000, -0.001240
  0.980000, -0.016020
  0.982000, -0.021840
  0.984000, -0.016070
  0.986000, -0.009320
  0.988000,  0.003320
  0.990000,  0.018620
  0.992000,  0.031430
  0.994000,  0.043520
  0.996000,  0.040000
  0.998000,  0.037010
  1.000000,  0.030330
