# z (nm)   (kJ/mol)
  0.094000,275.505990
  0.096000,271.580430
  0.098000,268.922870
  0.100000,266.235220
  0.102000,263.557490
  0.104000,260.783180
  0.106000,258.077940
  0.108000,255.313370
  0.110000,252.505700
  0.112000,249.668700
  0.114000,246.742980
  0.116000,243.723970
  0.118000,240.602300
  0.120000,237.351780
  0.122000,233.954920
  0.124000,230.409570
  0.126000,226.711940
  0.128000,222.873490
  0.130000,218.900550
  0.132000,214.804930
  0.134000,210.618840
  0.136000,206.354540
  0.138000,202.032270
  0.140000,197.679250
  0.142000,193.307660
  0.144000,188.944990
  0.146000,184.610590
  0.148000,180.329300
  0.150000,176.110630
  0.152000,171.976840
  0.154000,167.930580
  0.156000,163.971410
  0.158000,160.093190
  0.160000,156.285760
  0.162000,152.541890
  0.164000,148.857880
  0.166000,145.246580
  0.168000,141.715280
  0.170000,138.277390
  0.172000,134.950850
  0.174000,131.734250
  0.176000,128.617930
  0.178000,125.587240
  0.180000,122.606470
  0.182000,119.643240
  0.184000,116.673010
  0.186000,113.669160
  0.188000,110.623970
  0.190000,107.548590
  0.192000,104.464300
  0.194000,101.390470
  0.196000, 98.367990
  0.198000, 95.421840
  0.200000, 92.560710
  0.202000, 89.778040
  0.204000, 87.050890
  0.206000, 84.356230
  0.208000, 81.666450
  0.210000, 78.991390
  0.212000, 76.331410
  0.214000, 73.704530
  0.216000, 71.137210
  0.218000, 68.639810
  0.220000, 66.214330
  0.222000, 63.846300
  0.224000, 61.531220
  0.226000, 59.255870
  0.228000, 57.011270
  0.230000, 54.796440
  0.232000, 52.622540
  0.234000, 50.492050
  0.236000, 48.421540
  0.238000, 46.400650
  0.240000, 44.438570
  0.242000, 42.523230
  0.244000, 40.643110
  0.246000, 38.790890
  0.248000, 36.963830
  0.250000, 35.160720
  0.252000, 33.398110
  0.254000, 31.674310
  0.256000, 30.005210
  0.258000, 28.392480
  0.260000, 26.827510
  0.262000, 25.313560
  0.264000, 23.846530
  0.266000, 22.416570
  0.268000, 21.025540
  0.270000, 19.662290
  0.272000, 18.325360
  0.274000, 17.011210
  0.276000, 15.727130
  0.278000, 14.455470
  0.280000, 13.216880
  0.282000, 12.014980
  0.284000, 10.852020
  0.286000,  9.735350
  0.288000,  8.660590
  0.290000,  7.633840
  0.292000,  6.641330
  0.294000,  5.693760
  0.296000,  4.775870
  0.298000,  3.893750
  0.300000,  3.035640
  0.302000,  2.210770
  0.304000,  1.401180
  0.306000,  0.622440
  0.308000, -0.132780
  0.310000, -0.857550
  0.312000, -1.544420
  0.314000, -2.197070
  0.316000, -2.815400
  0.318000, -3.401840
  0.320000, -3.946850
  0.322000, -4.461530
  0.324000, -4.949380
  0.326000, -5.405420
  0.328000, -5.834390
  0.330000, -6.241750
  0.332000, -6.620540
  0.334000, -6.981210
  0.336000, -7.327510
  0.338000, -7.640730
  0.340000, -7.935910
  0.342000, -8.206610
  0.344000, -8.454480
  0.346000, -8.678470
  0.348000, -8.875650
  0.350000, -9.055370
  0.352000, -9.216280
  0.354000, -9.352100
  0.356000, -9.470840
  0.358000, -9.571860
  0.360000, -9.657890
  0.362000, -9.739740
  0.364000, -9.807190
  0.366000, -9.868620
  0.368000, -9.916880
  0.370000, -9.953710
  0.372000, -9.975710
  0.374000, -9.991670
  0.376000, -9.992530
  0.378000, -9.977950
  0.380000, -9.943300
  0.382000, -9.901810
  0.384000, -9.838920
  0.386000, -9.767030
  0.388000, -9.683720
  0.390000, -9.594970
  0.392000, -9.500110
  0.394000, -9.396290
  0.396000, -9.293830
  0.398000, -9.187540
  0.400000, -9.076060
  0.402000, -8.963950
  0.404000, -8.851570
  0.406000, -8.732580
  0.408000, -8.604560
  0.410000, -8.476250
  0.412000, -8.340650
  0.414000, -8.208140
  0.416000, -8.069150
  0.418000, -7.926030
  0.420000, -7.784230
  0.422000, -7.639440
  0.424000, -7.501240
  0.426000, -7.368390
  0.428000, -7.241470
  0.430000, -7.114160
  0.432000, -6.980720
  0.434000, -6.843960
  0.436000, -6.700140
  0.438000, -6.548720
  0.440000, -6.392790
  0.442000, -6.240750
  0.444000, -6.087550
  0.446000, -5.943160
  0.448000, -5.803740
  0.450000, -5.673240
  0.452000, -5.547980
  0.454000, -5.422480
  0.456000, -5.307650
  0.458000, -5.191590
  0.460000, -5.071490
  0.462000, -4.960840
  0.464000, -4.851810
  0.466000, -4.750700
  0.468000, -4.656050
  0.470000, -4.575570
  0.472000, -4.502890
  0.474000, -4.435590
  0.476000, -4.375380
  0.478000, -4.311760
  0.480000, -4.236230
  0.482000, -4.164660
  0.484000, -4.085400
  0.486000, -4.002840
  0.488000, -3.918890
  0.490000, -3.839690
  0.492000, -3.763230
  0.494000, -3.696140
  0.496000, -3.637490
  0.498000, -3.584760
  0.500000, -3.533970
  0.502000, -3.493740
  0.504000, -3.451220
  0.506000, -3.401040
  0.508000, -3.342930
  0.510000, -3.274410
  0.512000, -3.194030
  0.514000, -3.098040
  0.516000, -2.998270
  0.518000, -2.891590
  0.520000, -2.781340
  0.522000, -2.667910
  0.524000, -2.554680
  0.526000, -2.437360
  0.528000, -2.318490
  0.530000, -2.197670
  0.532000, -2.071970
  0.534000, -1.941620
  0.536000, -1.807610
  0.538000, -1.664610
  0.540000, -1.518290
  0.542000, -1.367370
  0.544000, -1.210000
  0.546000, -1.051380
  0.548000, -0.891000
  0.550000, -0.731450
  0.552000, -0.573880
  0.554000, -0.422890
  0.556000, -0.271910
  0.558000, -0.133900
  0.560000,  0.004970
  0.562000,  0.141430
  0.564000,  0.277900
  0.566000,  0.421290
  0.568000,  0.555400
  0.570000,  0.684260
  0.572000,  0.814050
  0.574000,  0.942250
  0.576000,  1.061860
  0.578000,  1.189120
  0.580000,  1.304660
  0.582000,  1.416700
  0.584000,  1.525380
  0.586000,  1.640350
  0.588000,  1.740990
  0.590000,  1.839830
  0.592000,  1.933590
  0.594000,  2.022630
  0.596000,  2.102480
  0.598000,  2.178270
  0.600000,  2.247470
  0.602000,  2.302600
  0.604000,  2.347200
  0.606000,  2.387450
  0.608000,  2.428810
  0.610000,  2.456400
  0.612000,  2.476760
  0.614000,  2.489700
  0.616000,  2.494320
  0.618000,  2.494950
  0.620000,  2.487450
  0.622000,  2.472760
  0.624000,  2.454050
  0.626000,  2.430130
  0.628000,  2.400730
  0.630000,  2.359470
  0.632000,  2.319500
  0.634000,  2.274600
  0.636000,  2.230200
  0.638000,  2.178250
  0.640000,  2.122050
  0.642000,  2.064450
  0.644000,  2.003880
  0.646000,  1.941510
  0.648000,  1.877230
  0.650000,  1.809690
  0.652000,  1.743790
  0.654000,  1.673950
  0.656000,  1.602510
  0.658000,  1.535820
  0.660000,  1.472570
  0.662000,  1.414050
  0.664000,  1.349540
  0.666000,  1.284420
  0.668000,  1.219250
  0.670000,  1.155020
  0.672000,  1.090440
  0.674000,  1.018410
  0.676000,  0.944390
  0.678000,  0.875530
  0.680000,  0.800920
  0.682000,  0.729110
  0.684000,  0.663860
  0.686000,  0.597510
  0.688000,  0.541370
  0.690000,  0.490340
  0.692000,  0.444670
  0.694000,  0.403800
  0.696000,  0.368090
  0.698000,  0.334690
  0.700000,  0.301640
  0.702000,  0.272170
  0.704000,  0.243660
  0.706000,  0.210090
  0.708000,  0.183960
  0.710000,  0.162030
  0.712000,  0.140750
  0.714000,  0.121000
  0.716000,  0.105470
  0.718000,  0.088270
  0.720000,  0.076150
  0.722000,  0.063940
  0.724000,  0.043320
  0.726000,  0.027220
  0.728000,  0.008360
  0.730000, -0.006880
  0.732000, -0.023670
  0.734000, -0.043480
  0.736000, -0.058050
  0.738000, -0.075930
  0.740000, -0.095130
  0.742000, -0.102500
  0.744000, -0.112780
  0.746000, -0.120030
  0.748000, -0.120430
  0.750000, -0.120750
  0.752000, -0.113720
  0.754000, -0.107220
  0.756000, -0.100860
  0.758000, -0.088430
  0.760000, -0.082660
  0.762000, -0.078420
  0.764000, -0.082500
  0.766000, -0.086560
  0.768000, -0.102800
  0.770000, -0.126120
  0.772000, -0.148550
  0.774000, -0.169950
  0.776000, -0.194830
  0.778000, -0.203820
  0.780000, -0.209830
  0.782000, -0.204510
  0.784000, -0.183460
  0.786000, -0.156850
  0.788000, -0.127710
  0.790000, -0.094670
  0.792000, -0.059780
  0.794000, -0.026890
  0.796000, -0.002620
  0.798000,  0.014000
  0.800000,  0.024030
  0.802000,  0.027720
  0.804000,  0.027530
  0.806000,  0.023390
  0.808000,  0.012220
  0.810000,  0.006010
  0.812000,  0.001840
  0.814000, -0.003370
  0.816000, -0.012950
  0.818000, -0.019100
  0.820000, -0.026120
  0.822000, -0.028150
  0.824000, -0.030400
  0.826000, -0.026120
  0.828000, -0.024080
  0.830000, -0.011270
  0.832000,  0.011910
  0.834000,  0.040000
  0.836000,  0.066860
  0.838000,  0.103420
  0.840000,  0.141350
  0.842000,  0.177310
  0.844000,  0.212240
  0.846000,  0.245560
  0.848000,  0.276820
  0.850000,  0.311390
  0.852000,  0.336120
  0.854000,  0.362030
  0.856000,  0.383780
  0.858000,  0.410470
  0.860000,  0.430340
  0.862000,  0.444630
  0.864000,  0.462160
  0.866000,  0.473360
  0.868000,  0.480990
  0.870000,  0.484610
  0.872000,  0.482130
  0.874000,  0.473750
  0.876000,  0.475200
  0.878000,  0.467540
  0.880000,  0.469070
  0.882000,  0.474990
  0.884000,  0.497540
  0.886000,  0.521010
  0.888000,  0.547920
  0.890000,  0.576800
  0.892000,  0.605890
  0.894000,  0.619440
  0.896000,  0.626830
  0.898000,  0.621450
  0.900000,  0.603460
  0.902000,  0.571280
  0.904000,  0.532850
  0.906000,  0.498450
  0.908000,  0.458840
  0.910000,  0.421310
  0.912000,  0.395880
  0.914000,  0.376940
  0.916000,  0.366050
  0.918000,  0.358630
  0.920000,  0.351060
  0.922000,  0.339290
  0.924000,  0.324000
  0.926000,  0.310190
  0.928000,  0.287490
  0.930000,  0.257860
  0.932000,  0.231780
  0.934000,  0.198750
  0.936000,  0.166900
  0.938000,  0.135020
  0.940000,  0.109630
  0.942000,  0.084670
  0.944000,  0.061830
  0.946000,  0.040740
  0.948000,  0.017070
  0.950000, -0.000940
  0.952000, -0.017790
  0.954000, -0.039860
  0.956000, -0.049920
  0.958000, -0.067900
  0.960000, -0.077620
  0.962000, -0.089170
  0.964000, -0.098000
  0.966000, -0.106280
  0.968000, -0.120250
  0.970000, -0.135510
  0.972000, -0.154990
  0.974000, -0.184910
  0.976000, -0.215870
  0.978000, -0.248330
  0.980000, -0.284900
  0.982000, -0.319970
  0.984000, -0.357690
  0.986000, -0.403390
  0.988000, -0.447530
  0.990000, -0.494760
  0.992000, -0.535600
  0.994000, -0.571480
  0.996000, -0.604090
  0.998000, -0.627370
  1.000000, -0.642390
