# z (nm)   (kJ/mol)
  0.082000,275.440190
  0.084000,271.891490
  0.086000,269.268160
  0.088000,266.022000
  0.090000,262.887130
  0.092000,260.177240
  0.094000,257.326580
  0.096000,254.509660
  0.098000,251.615470
  0.100000,248.715940
  0.102000,245.740900
  0.104000,242.704050
  0.106000,239.584730
  0.108000,236.369810
  0.110000,233.056650
  0.112000,229.636840
  0.114000,226.092990
  0.116000,222.417780
  0.118000,218.591840
  0.120000,214.624240
  0.122000,210.529260
  0.124000,206.328050
  0.126000,202.055080
  0.128000,197.751280
  0.130000,193.441990
  0.132000,189.160350
  0.134000,184.913730
  0.136000,180.718920
  0.138000,176.567840
  0.140000,172.450880
  0.142000,168.365710
  0.144000,164.301360
  0.146000,160.252550
  0.148000,156.228070
  0.150000,152.249110
  0.152000,148.337710
  0.154000,144.518140
  0.156000,140.820720
  0.158000,137.264980
  0.160000,133.853140
  0.162000,130.576170
  0.164000,127.412750
  0.166000,124.322630
  0.168000,121.275400
  0.170000,118.241550
  0.172000,115.189250
  0.174000,112.113850
  0.176000,109.025820
  0.178000,105.939130
  0.180000,102.874210
  0.182000, 99.865130
  0.184000, 96.913370
  0.186000, 94.022940
  0.188000, 91.185920
  0.190000, 88.392550
  0.192000, 85.628210
  0.194000, 82.881340
  0.196000, 80.142990
  0.198000, 77.423530
  0.200000, 74.729850
  0.202000, 72.073660
  0.204000, 69.472230
  0.206000, 66.936200
  0.208000, 64.480570
  0.210000, 62.103000
  0.212000, 59.795830
  0.214000, 57.550960
  0.216000, 55.350880
  0.218000, 53.188420
  0.220000, 51.052310
  0.222000, 48.938240
  0.224000, 46.850850
  0.226000, 44.799410
  0.228000, 42.784240
  0.230000, 40.801790
  0.232000, 38.863420
  0.234000, 36.966700
  0.236000, 35.114500
  0.238000, 33.306990
  0.240000, 31.551580
  0.242000, 29.859080
  0.244000, 28.230420
  0.246000, 26.655930
  0.248000, 25.134520
  0.250000, 23.641310
  0.252000, 22.170300
  0.254000, 20.718240
  0.256000, 19.274830
  0.258000, 17.847310
  0.260000, 16.471380
  0.262000, 15.134860
  0.264000, 13.861090
  0.266000, 12.648220
  0.268000, 11.492720
  0.270000, 10.380660
  0.272000,  9.304480
  0.274000,  8.255190
  0.276000,  7.228220
  0.278000,  6.215920
  0.280000,  5.233520
  0.282000,  4.287270
  0.284000,  3.365470
  0.286000,  2.480820
  0.288000,  1.629630
  0.290000,  0.816130
  0.292000,  0.026730
  0.294000, -0.722400
  0.296000, -1.443560
  0.298000, -2.138150
  0.300000, -2.813010
  0.302000, -3.472000
  0.304000, -4.107400
  0.306000, -4.717310
  0.308000, -5.313550
  0.310000, -5.876450
  0.312000, -6.410310
  0.314000, -6.907990
  0.316000, -7.375550
  0.318000, -7.815240
  0.320000, -8.223230
  0.322000, -8.592920
  0.324000, -8.931890
  0.326000, -9.231980
  0.328000, -9.502250
  0.330000, -9.740230
  0.332000, -9.957210
  0.334000,-10.172080
  0.336000,-10.370430
  0.338000,-10.573140
  0.340000,-10.771360
  0.342000,-10.973100
  0.344000,-11.157920
  0.346000,-11.329060
  0.348000,-11.472820
  0.350000,-11.583920
  0.352000,-11.651330
  0.354000,-11.676650
  0.356000,-11.672260
  0.358000,-11.650370
  0.360000,-11.613960
  0.362000,-11.575370
  0.364000,-11.540550
  0.366000,-11.526620
  0.368000,-11.528790
  0.370000,-11.545090
  0.372000,-11.575330
  0.374000,-11.600820
  0.376000,-11.616430
  0.378000,-11.620160
  0.380000,-11.597390
  0.382000,-11.561180
  0.384000,-11.500500
  0.386000,-11.423520
  0.388000,-11.331570
  0.390000,-11.234730
  0.392000,-11.143740
  0.394000,-11.055750
  0.396000,-10.965680
  0.398000,-10.884550
  0.400000,-10.814850
  0.402000,-10.748830
  0.404000,-10.668790
  0.406000,-10.590370
  0.408000,-10.499570
  0.410000,-10.405360
  0.412000,-10.291720
  0.414000,-10.163670
  0.416000,-10.023760
  0.418000, -9.879020
  0.420000, -9.730470
  0.422000, -9.588720
  0.424000, -9.443770
  0.426000, -9.302040
  0.428000, -9.163290
  0.430000, -9.028890
  0.432000, -8.892880
  0.434000, -8.761570
  0.436000, -8.627540
  0.438000, -8.489440
  0.440000, -8.353020
  0.442000, -8.211190
  0.444000, -8.074140
  0.446000, -7.946770
  0.448000, -7.817750
  0.450000, -7.701600
  0.452000, -7.587500
  0.454000, -7.475840
  0.456000, -7.367710
  0.458000, -7.253360
  0.460000, -7.134610
  0.462000, -7.011080
  0.464000, -6.878190
  0.466000, -6.746560
  0.468000, -6.619440
  0.470000, -6.497210
  0.472000, -6.380750
  0.474000, -6.264950
  0.476000, -6.158680
  0.478000, -6.058330
  0.480000, -5.964150
  0.482000, -5.873430
  0.484000, -5.785820
  0.486000, -5.697610
  0.488000, -5.616370
  0.490000, -5.533380
  0.492000, -5.450260
  0.494000, -5.370550
  0.496000, -5.286080
  0.498000, -5.197130
  0.500000, -5.109490
  0.502000, -5.023380
  0.504000, -4.929280
  0.506000, -4.848890
  0.508000, -4.770870
  0.510000, -4.696290
  0.512000, -4.620550
  0.514000, -4.548230
  0.516000, -4.487210
  0.518000, -4.427680
  0.520000, -4.365020
  0.522000, -4.303720
  0.524000, -4.233710
  0.526000, -4.149630
  0.528000, -4.053550
  0.530000, -3.945040
  0.532000, -3.824610
  0.534000, -3.690590
  0.536000, -3.547890
  0.538000, -3.398410
  0.540000, -3.243190
  0.542000, -3.087090
  0.544000, -2.940580
  0.546000, -2.799550
  0.548000, -2.664850
  0.550000, -2.535050
  0.552000, -2.409760
  0.554000, -2.290490
  0.556000, -2.172630
  0.558000, -2.057840
  0.560000, -1.942340
  0.562000, -1.818140
  0.564000, -1.694420
  0.566000, -1.561520
  0.568000, -1.419110
  0.570000, -1.272460
  0.572000, -1.127570
  0.574000, -0.980420
  0.576000, -0.838810
  0.578000, -0.702740
  0.580000, -0.575970
  0.582000, -0.464500
  0.584000, -0.360320
  0.586000, -0.264290
  0.588000, -0.176220
  0.590000, -0.097480
  0.592000, -0.022590
  0.594000,  0.048580
  0.596000,  0.117040
  0.598000,  0.177250
  0.600000,  0.242520
  0.602000,  0.302330
  0.604000,  0.362040
  0.606000,  0.425710
  0.608000,  0.500340
  0.610000,  0.570230
  0.612000,  0.635030
  0.614000,  0.691090
  0.616000,  0.738430
  0.618000,  0.759590
  0.620000,  0.762200
  0.622000,  0.738230
  0.624000,  0.690070
  0.626000,  0.632930
  0.628000,  0.580180
  0.630000,  0.526160
  0.632000,  0.493500
  0.634000,  0.468050
  0.636000,  0.457590
  0.638000,  0.455270
  0.640000,  0.466620
  0.642000,  0.470330
  0.644000,  0.469410
  0.646000,  0.459120
  0.648000,  0.436700
  0.650000,  0.398670
  0.652000,  0.348700
  0.654000,  0.285070
  0.656000,  0.229830
  0.658000,  0.168640
  0.660000,  0.110590
  0.662000,  0.059340
  0.664000,  0.017480
  0.666000, -0.012650
  0.668000, -0.033190
  0.670000, -0.056660
  0.672000, -0.078890
  0.674000, -0.104230
  0.676000, -0.130680
  0.678000, -0.159900
  0.680000, -0.197590
  0.682000, -0.233370
  0.684000, -0.268550
  0.686000, -0.306940
  0.688000, -0.331960
  0.690000, -0.355980
  0.692000, -0.376690
  0.694000, -0.394860
  0.696000, -0.415680
  0.698000, -0.439890
  0.700000, -0.471610
  0.702000, -0.505640
  0.704000, -0.542680
  0.706000, -0.566150
  0.708000, -0.598950
  0.710000, -0.616520
  0.712000, -0.618860
  0.714000, -0.614090
  0.716000, -0.598100
  0.718000, -0.581980
  0.720000, -0.566500
  0.722000, -0.551960
  0.724000, -0.542960
  0.726000, -0.535110
  0.728000, -0.547290
  0.730000, -0.562240
  0.732000, -0.578870
  0.734000, -0.596880
  0.736000, -0.620950
  0.738000, -0.644870
  0.740000, -0.664720
  0.742000, -0.681970
  0.744000, -0.693670
  0.746000, -0.701490
  0.748000, -0.697990
  0.750000, -0.699870
  0.752000, -0.690530
  0.754000, -0.680710
  0.756000, -0.667870
  0.758000, -0.650540
  0.760000, -0.627530
  0.762000, -0.615490
  0.764000, -0.608680
  0.766000, -0.606630
  0.768000, -0.610970
  0.770000, -0.621190
  0.772000, -0.638890
  0.774000, -0.656450
  0.776000, -0.675440
  0.778000, -0.696540
  0.780000, -0.712210
  0.782000, -0.721530
  0.784000, -0.720760
  0.786000, -0.716650
  0.788000, -0.702970
  0.790000, -0.688700
  0.792000, -0.667880
  0.794000, -0.652200
  0.796000, -0.632730
  0.798000, -0.610670
  0.800000, -0.600270
  0.802000, -0.592040
  0.804000, -0.580520
  0.806000, -0.574080
  0.808000, -0.561310
  0.810000, -0.556440
  0.812000, -0.551790
  0.814000, -0.547400
  0.816000, -0.537980
  0.818000, -0.525440
  0.820000, -0.504380
  0.822000, -0.486530
  0.824000, -0.462310
  0.826000, -0.427170
  0.828000, -0.394800
  0.830000, -0.358480
  0.832000, -0.329300
  0.834000, -0.292800
  0.836000, -0.258430
  0.838000, -0.231130
  0.840000, -0.204470
  0.842000, -0.182500
  0.844000, -0.166960
  0.846000, -0.154060
  0.848000, -0.139480
  0.850000, -0.132770
  0.852000, -0.128950
  0.854000, -0.126910
  0.856000, -0.125270
  0.858000, -0.123310
  0.860000, -0.124520
  0.862000, -0.120190
  0.864000, -0.100880
  0.866000, -0.080850
  0.868000, -0.056870
  0.870000, -0.023850
  0.872000,  0.005490
  0.874000,  0.032810
  0.876000,  0.052640
  0.878000,  0.060390
  0.880000,  0.056980
  0.882000,  0.047750
  0.884000,  0.035760
  0.886000,  0.019200
  0.888000,  0.002370
  0.890000, -0.004810
  0.892000, -0.009320
  0.894000, -0.007390
  0.896000,  0.003610
  0.898000,  0.019190
  0.900000,  0.035000
  0.902000,  0.045650
  0.904000,  0.053570
  0.906000,  0.061560
  0.908000,  0.063640
  0.910000,  0.068300
  0.912000,  0.068090
  0.914000,  0.069480
  0.916000,  0.063650
  0.918000,  0.060370
  0.920000,  0.055820
  0.922000,  0.048640
  0.924000,  0.041200
  0.926000,  0.034080
  0.928000,  0.032640
  0.930000,  0.030010
  0.932000,  0.030230
  0.934000,  0.035820
  0.936000,  0.038790
  0.938000,  0.052330
  0.940000,  0.062390
  0.942000,  0.077400
  0.944000,  0.092960
  0.946000,  0.100570
  0.948000,  0.102030
  0.950000,  0.111660
  0.952000,  0.106980
  0.954000,  0.101530
  0.956000,  0.091200
  0.958000,  0.079710
  0.960000,  0.062880
  0.962000,  0.043540
  0.964000,  0.019380
  0.966000, -0.008920
  0.968000, -0.043060
  0.970000, -0.076960
  0.972000, -0.109740
  0.974000, -0.133390
  0.976000, -0.147190
  0.978000, -0.148770
  0.980000, -0.141830
  0.982000, -0.131270
  0.984000, -0.115540
  0.986000, -0.100620
  0.988000, -0.089950
  0.990000, -0.086240
  0.992000, -0.095000
  0.994000, -0.111650
  0.996000, -0.133430
  0.998000, -0.152020
  1.000000, -0.180540
