# z (nm)   (kJ/mol)
  0.048000,278.848480
  0.050000,276.129400
  0.052000,273.213960
  0.054000,270.132240
  0.056000,267.343550
  0.058000,264.586530
  0.060000,261.804850
  0.062000,258.986320
  0.064000,256.136640
  0.066000,253.291270
  0.068000,250.401990
  0.070000,247.479620
  0.072000,244.501710
  0.074000,241.470050
  0.076000,238.385110
  0.078000,235.233620
  0.080000,232.015030
  0.082000,228.727580
  0.084000,225.357700
  0.086000,221.913060
  0.088000,218.382370
  0.090000,214.762530
  0.092000,211.064070
  0.094000,207.276960
  0.096000,203.407130
  0.098000,199.462220
  0.100000,195.443680
  0.102000,191.371850
  0.104000,187.265310
  0.106000,183.144620
  0.108000,179.040640
  0.110000,174.979040
  0.112000,170.988760
  0.114000,167.092810
  0.116000,163.313420
  0.118000,159.656670
  0.120000,156.119870
  0.122000,152.694740
  0.124000,149.363180
  0.126000,146.104980
  0.128000,142.887760
  0.130000,139.695950
  0.132000,136.508660
  0.134000,133.321440
  0.136000,130.131440
  0.138000,126.952310
  0.140000,123.803420
  0.142000,120.701930
  0.144000,117.664300
  0.146000,114.700500
  0.148000,111.799030
  0.150000,108.957390
  0.152000,106.157600
  0.154000,103.387370
  0.156000,100.646090
  0.158000, 97.934470
  0.160000, 95.261820
  0.162000, 92.642810
  0.164000, 90.081590
  0.166000, 87.564200
  0.168000, 85.090070
  0.170000, 82.641190
  0.172000, 80.208160
  0.174000, 77.783480
  0.176000, 75.367930
  0.178000, 72.970910
  0.180000, 70.597530
  0.182000, 68.267660
  0.184000, 65.994960
  0.186000, 63.773910
  0.188000, 61.607080
  0.190000, 59.489130
  0.192000, 57.413380
  0.194000, 55.373020
  0.196000, 53.354470
  0.198000, 51.357390
  0.200000, 49.404350
  0.202000, 47.483180
  0.204000, 45.608750
  0.206000, 43.791270
  0.208000, 42.025280
  0.210000, 40.309510
  0.212000, 38.638170
  0.214000, 36.999770
  0.216000, 35.396140
  0.218000, 33.813400
  0.220000, 32.252330
  0.222000, 30.724690
  0.224000, 29.228630
  0.226000, 27.785600
  0.228000, 26.383020
  0.230000, 25.028150
  0.232000, 23.721150
  0.234000, 22.457760
  0.236000, 21.241390
  0.238000, 20.069940
  0.240000, 18.930140
  0.242000, 17.822550
  0.244000, 16.736910
  0.246000, 15.669000
  0.248000, 14.616350
  0.250000, 13.578310
  0.252000, 12.567070
  0.254000, 11.575040
  0.256000, 10.624330
  0.258000,  9.714230
  0.260000,  8.850840
  0.262000,  8.042980
  0.264000,  7.293340
  0.266000,  6.593300
  0.268000,  5.924630
  0.270000,  5.292070
  0.272000,  4.677860
  0.274000,  4.067810
  0.276000,  3.462770
  0.278000,  2.859550
  0.280000,  2.252100
  0.282000,  1.657800
  0.284000,  1.067630
  0.286000,  0.511970
  0.288000, -0.009180
  0.290000, -0.492530
  0.292000, -0.935220
  0.294000, -1.342740
  0.296000, -1.702610
  0.298000, -2.032540
  0.300000, -2.335540
  0.302000, -2.609210
  0.304000, -2.869180
  0.306000, -3.100570
  0.308000, -3.323660
  0.310000, -3.526310
  0.312000, -3.722050
  0.314000, -3.909070
  0.316000, -4.076510
  0.318000, -4.231260
  0.320000, -4.366860
  0.322000, -4.487690
  0.324000, -4.591490
  0.326000, -4.679720
  0.328000, -4.756580
  0.330000, -4.819920
  0.332000, -4.876810
  0.334000, -4.919770
  0.336000, -4.959370
  0.338000, -4.989160
  0.340000, -5.014700
  0.342000, -5.036280
  0.344000, -5.051990
  0.346000, -5.066640
  0.348000, -5.077820
  0.350000, -5.083040
  0.352000, -5.084660
  0.354000, -5.080400
  0.356000, -5.074630
  0.358000, -5.062190
  0.360000, -5.049880
  0.362000, -5.028620
  0.364000, -5.015560
  0.366000, -4.996910
  0.368000, -4.976000
  0.370000, -4.958500
  0.372000, -4.943100
  0.374000, -4.930110
  0.376000, -4.912130
  0.378000, -4.892270
  0.380000, -4.869380
  0.382000, -4.839750
  0.384000, -4.809700
  0.386000, -4.776720
  0.388000, -4.738340
  0.390000, -4.692370
  0.392000, -4.638430
  0.394000, -4.578300
  0.396000, -4.502950
  0.398000, -4.414650
  0.400000, -4.318340
  0.402000, -4.209820
  0.404000, -4.093450
  0.406000, -3.968090
  0.408000, -3.833380
  0.410000, -3.690000
  0.412000, -3.539820
  0.414000, -3.389950
  0.416000, -3.221930
  0.418000, -3.056300
  0.420000, -2.886560
  0.422000, -2.719190
  0.424000, -2.551000
  0.426000, -2.384420
  0.428000, -2.225220
  0.430000, -2.069370
  0.432000, -1.916550
  0.434000, -1.768900
  0.436000, -1.626660
  0.438000, -1.491430
  0.440000, -1.359190
  0.442000, -1.230980
  0.444000, -1.101290
  0.446000, -0.973250
  0.448000, -0.838070
  0.450000, -0.712730
  0.452000, -0.580970
  0.454000, -0.452370
  0.456000, -0.322840
  0.458000, -0.191770
  0.460000, -0.064510
  0.462000,  0.068500
  0.464000,  0.199270
  0.466000,  0.323620
  0.468000,  0.445430
  0.470000,  0.562680
  0.472000,  0.674020
  0.474000,  0.783680
  0.476000,  0.884450
  0.478000,  0.974010
  0.480000,  1.061230
  0.482000,  1.140080
  0.484000,  1.207600
  0.486000,  1.265290
  0.488000,  1.321770
  0.490000,  1.377070
  0.492000,  1.420380
  0.494000,  1.458630
  0.496000,  1.497450
  0.498000,  1.529110
  0.500000,  1.564580
  0.502000,  1.600360
  0.504000,  1.638740
  0.506000,  1.679610
  0.508000,  1.715380
  0.510000,  1.750640
  0.512000,  1.783980
  0.514000,  1.817830
  0.516000,  1.847450
  0.518000,  1.869570
  0.520000,  1.889270
  0.522000,  1.905240
  0.524000,  1.909990
  0.526000,  1.911590
  0.528000,  1.915400
  0.530000,  1.912620
  0.532000,  1.902450
  0.534000,  1.895510
  0.536000,  1.876500
  0.538000,  1.845300
  0.540000,  1.809040
  0.542000,  1.765560
  0.544000,  1.714020
  0.546000,  1.654860
  0.548000,  1.585980
  0.550000,  1.515280
  0.552000,  1.445920
  0.554000,  1.379450
  0.556000,  1.317810
  0.558000,  1.270580
  0.560000,  1.231350
  0.562000,  1.207570
  0.564000,  1.193330
  0.566000,  1.183760
  0.568000,  1.175410
  0.570000,  1.167830
  0.572000,  1.155010
  0.574000,  1.130990
  0.576000,  1.101240
  0.578000,  1.064000
  0.580000,  1.015370
  0.582000,  0.958770
  0.584000,  0.899020
  0.586000,  0.835880
  0.588000,  0.772730
  0.590000,  0.709920
  0.592000,  0.649980
  0.594000,  0.597650
  0.596000,  0.545360
  0.598000,  0.500020
  0.600000,  0.461950
  0.602000,  0.423490
  0.604000,  0.386320
  0.606000,  0.356430
  0.608000,  0.325380
  0.610000,  0.293590
  0.612000,  0.258210
  0.614000,  0.215750
  0.616000,  0.171000
  0.618000,  0.123550
  0.620000,  0.075190
  0.622000,  0.030870
  0.624000, -0.008090
  0.626000, -0.045510
  0.628000, -0.073430
  0.630000, -0.093900
  0.632000, -0.104510
  0.634000, -0.110480
  0.636000, -0.112950
  0.638000, -0.112000
  0.640000, -0.109490
  0.642000, -0.112500
  0.644000, -0.115140
  0.646000, -0.122210
  0.648000, -0.129650
  0.650000, -0.145280
  0.652000, -0.164480
  0.654000, -0.187980
  0.656000, -0.209430
  0.658000, -0.228710
  0.660000, -0.250100
  0.662000, -0.262800
  0.664000, -0.273320
  0.666000, -0.282110
  0.668000, -0.285440
  0.670000, -0.287800
  0.672000, -0.291200
  0.674000, -0.283200
  0.676000, -0.281850
  0.678000, -0.279580
  0.680000, -0.281260
  0.682000, -0.280050
  0.684000, -0.283830
  0.686000, -0.285520
  0.688000, -0.288470
  0.690000, -0.289300
  0.692000, -0.294590
  0.694000, -0.301270
  0.696000, -0.305310
  0.698000, -0.319560
  0.700000, -0.334250
  0.702000, -0.347430
  0.704000, -0.359870
  0.706000, -0.375120
  0.708000, -0.391630
  0.710000, -0.401970
  0.712000, -0.404970
  0.714000, -0.405460
  0.716000, -0.406200
  0.718000, -0.398240
  0.720000, -0.387770
  0.722000, -0.379550
  0.724000, -0.363370
  0.726000, -0.350010
  0.728000, -0.336340
  0.730000, -0.329650
  0.732000, -0.320740
  0.734000, -0.312080
  0.736000, -0.300990
  0.738000, -0.295810
  0.740000, -0.276520
  0.742000, -0.260590
  0.744000, -0.246340
  0.746000, -0.228800
  0.748000, -0.208410
  0.750000, -0.181970
  0.752000, -0.154220
  0.754000, -0.123000
  0.756000, -0.097370
  0.758000, -0.068720
  0.760000, -0.045040
  0.762000, -0.019000
  0.764000,  0.002210
  0.766000,  0.020100
  0.768000,  0.037120
  0.770000,  0.057300
  0.772000,  0.074740
  0.774000,  0.093520
  0.776000,  0.110850
  0.778000,  0.129140
  0.780000,  0.149050
  0.782000,  0.173650
  0.784000,  0.201120
  0.786000,  0.229450
  0.788000,  0.256780
  0.790000,  0.286100
  0.792000,  0.322300
  0.794000,  0.347570
  0.796000,  0.371040
  0.798000,  0.391470
  0.800000,  0.414290
  0.802000,  0.427510
  0.804000,  0.441360
  0.806000,  0.452540
  0.808000,  0.463580
  0.810000,  0.468400
  0.812000,  0.477430
  0.814000,  0.482600
  0.816000,  0.488470
  0.818000,  0.494770
  0.820000,  0.499850
  0.822000,  0.501380
  0.824000,  0.505740
  0.826000,  0.508700
  0.828000,  0.510500
  0.830000,  0.506900
  0.832000,  0.507250
  0.834000,  0.501990
  0.836000,  0.494510
  0.838000,  0.487190
  0.840000,  0.474770
  0.842000,  0.463300
  0.844000,  0.455450
  0.846000,  0.449110
  0.848000,  0.441690
  0.850000,  0.436080
  0.852000,  0.430590
  0.854000,  0.426360
  0.856000,  0.421410
  0.858000,  0.415680
  0.860000,  0.410430
  0.862000,  0.403510
  0.864000,  0.395200
  0.866000,  0.384480
  0.868000,  0.371570
  0.870000,  0.350310
  0.872000,  0.336170
  0.874000,  0.326600
  0.876000,  0.318820
  0.878000,  0.312470
  0.880000,  0.309030
  0.882000,  0.304300
  0.884000,  0.305040
  0.886000,  0.296430
  0.888000,  0.294260
  0.890000,  0.293650
  0.892000,  0.285860
  0.894000,  0.274610
  0.896000,  0.266450
  0.898000,  0.255950
  0.900000,  0.243790
  0.902000,  0.236070
  0.904000,  0.220550
  0.906000,  0.208410
  0.908000,  0.199890
  0.910000,  0.185910
  0.912000,  0.173030
  0.914000,  0.157650
  0.916000,  0.142930
  0.918000,  0.127660
  0.920000,  0.111700
  0.922000,  0.095240
  0.924000,  0.078930
  0.926000,  0.062430
  0.928000,  0.047180
  0.930000,  0.028700
  0.932000,  0.010300
  0.934000, -0.004530
  0.936000, -0.018100
  0.938000, -0.033620
  0.940000, -0.043530
  0.942000, -0.049490
  0.944000, -0.050770
  0.946000, -0.055460
  0.948000, -0.054710
  0.950000, -0.046680
  0.952000, -0.039420
  0.954000, -0.037050
  0.956000, -0.031000
  0.958000, -0.023890
  0.960000, -0.023310
  0.962000, -0.024330
  0.964000, -0.033250
  0.966000, -0.038480
  0.968000, -0.039710
  0.970000, -0.050240
  0.972000, -0.063690
  0.974000, -0.072720
  0.976000, -0.081140
  0.978000, -0.090960
  0.980000, -0.097580
  0.982000, -0.104920
  0.984000, -0.109970
  0.986000, -0.110460
  0.988000, -0.108090
  0.990000, -0.107340
  0.992000, -0.106940
  0.994000, -0.099440
  0.996000, -0.087840
  0.998000, -0.079940
  1.000000, -0.067970
