# z (nm)   (kJ/mol)
  0.072000,276.762980
  0.074000,272.015900
  0.076000,269.017090
  0.078000,266.171010
  0.080000,263.270440
  0.082000,260.333760
  0.084000,257.510910
  0.086000,254.598460
  0.088000,251.648160
  0.090000,248.660180
  0.092000,245.611270
  0.094000,242.487880
  0.096000,239.267380
  0.098000,235.937210
  0.100000,232.488630
  0.102000,228.909910
  0.104000,225.203530
  0.106000,221.380250
  0.108000,217.461070
  0.110000,213.473690
  0.112000,209.444680
  0.114000,205.387210
  0.116000,201.304380
  0.118000,197.198220
  0.120000,193.064700
  0.122000,188.908480
  0.124000,184.748410
  0.126000,180.614240
  0.128000,176.532880
  0.130000,172.524540
  0.132000,168.599000
  0.134000,164.752330
  0.136000,160.977150
  0.138000,157.280430
  0.140000,153.666970
  0.142000,150.145100
  0.144000,146.723020
  0.146000,143.403030
  0.148000,140.183570
  0.150000,137.038140
  0.152000,133.935730
  0.154000,130.860370
  0.156000,127.802920
  0.158000,124.760690
  0.160000,121.729630
  0.162000,118.722030
  0.164000,115.739500
  0.166000,112.785510
  0.168000,109.861620
  0.170000,106.957770
  0.172000,104.074780
  0.174000,101.209750
  0.176000, 98.361070
  0.178000, 95.544800
  0.180000, 92.768350
  0.182000, 90.049790
  0.184000, 87.397450
  0.186000, 84.805250
  0.188000, 82.267850
  0.190000, 79.776720
  0.192000, 77.318420
  0.194000, 74.888930
  0.196000, 72.479830
  0.198000, 70.093160
  0.200000, 67.726820
  0.202000, 65.394550
  0.204000, 63.095040
  0.206000, 60.829310
  0.208000, 58.612960
  0.210000, 56.447960
  0.212000, 54.341670
  0.214000, 52.296500
  0.216000, 50.321570
  0.218000, 48.413850
  0.220000, 46.571200
  0.222000, 44.780800
  0.224000, 43.030640
  0.226000, 41.312060
  0.228000, 39.607270
  0.230000, 37.916820
  0.232000, 36.237490
  0.234000, 34.577500
  0.236000, 32.938240
  0.238000, 31.320320
  0.240000, 29.744060
  0.242000, 28.222450
  0.244000, 26.753350
  0.246000, 25.337230
  0.248000, 23.970590
  0.250000, 22.650070
  0.252000, 21.376630
  0.254000, 20.147990
  0.256000, 18.953150
  0.258000, 17.791200
  0.260000, 16.666580
  0.262000, 15.573380
  0.264000, 14.508060
  0.266000, 13.472100
  0.268000, 12.472470
  0.270000, 11.507940
  0.272000, 10.573510
  0.274000,  9.672950
  0.276000,  8.796320
  0.278000,  7.950080
  0.280000,  7.129540
  0.282000,  6.334700
  0.284000,  5.566710
  0.286000,  4.813440
  0.288000,  4.097980
  0.290000,  3.408570
  0.292000,  2.752000
  0.294000,  2.123470
  0.296000,  1.535040
  0.298000,  0.984580
  0.300000,  0.461420
  0.302000, -0.031440
  0.304000, -0.490250
  0.306000, -0.922960
  0.308000, -1.337260
  0.310000, -1.740220
  0.312000, -2.122990
  0.314000, -2.499770
  0.316000, -2.866830
  0.318000, -3.222340
  0.320000, -3.549350
  0.322000, -3.860850
  0.324000, -4.154330
  0.326000, -4.423260
  0.328000, -4.671950
  0.330000, -4.904820
  0.332000, -5.117310
  0.334000, -5.320770
  0.336000, -5.502570
  0.338000, -5.681330
  0.340000, -5.849010
  0.342000, -6.002560
  0.344000, -6.141690
  0.346000, -6.271390
  0.348000, -6.392050
  0.350000, -6.501490
  0.352000, -6.598940
  0.354000, -6.688530
  0.356000, -6.774810
  0.358000, -6.852250
  0.360000, -6.922910
  0.362000, -6.978290
  0.364000, -7.032920
  0.366000, -7.075620
  0.368000, -7.107620
  0.370000, -7.130490
  0.372000, -7.143890
  0.374000, -7.150500
  0.376000, -7.146050
  0.378000, -7.129040
  0.380000, -7.098230
  0.382000, -7.060100
  0.384000, -7.011900
  0.386000, -6.955750
  0.388000, -6.896660
  0.390000, -6.840600
  0.392000, -6.770510
  0.394000, -6.695110
  0.396000, -6.618190
  0.398000, -6.543070
  0.400000, -6.456570
  0.402000, -6.366540
  0.404000, -6.273350
  0.406000, -6.176660
  0.408000, -6.077480
  0.410000, -5.973760
  0.412000, -5.867110
  0.414000, -5.757620
  0.416000, -5.645410
  0.418000, -5.538400
  0.420000, -5.424990
  0.422000, -5.312700
  0.424000, -5.201790
  0.426000, -5.086700
  0.428000, -4.975000
  0.430000, -4.861270
  0.432000, -4.746920
  0.434000, -4.637720
  0.436000, -4.526860
  0.438000, -4.423240
  0.440000, -4.311650
  0.442000, -4.210000
  0.444000, -4.108310
  0.446000, -4.004580
  0.448000, -3.901130
  0.450000, -3.789660
  0.452000, -3.671080
  0.454000, -3.549760
  0.456000, -3.437400
  0.458000, -3.317580
  0.460000, -3.189800
  0.462000, -3.065230
  0.464000, -2.934170
  0.466000, -2.807020
  0.468000, -2.675100
  0.470000, -2.538990
  0.472000, -2.401600
  0.474000, -2.264450
  0.476000, -2.127650
  0.478000, -1.991020
  0.480000, -1.849180
  0.482000, -1.708660
  0.484000, -1.564840
  0.486000, -1.423520
  0.488000, -1.280940
  0.490000, -1.135850
  0.492000, -0.993380
  0.494000, -0.848190
  0.496000, -0.703770
  0.498000, -0.564170
  0.500000, -0.425380
  0.502000, -0.293920
  0.504000, -0.167240
  0.506000, -0.042800
  0.508000,  0.073270
  0.510000,  0.185450
  0.512000,  0.292100
  0.514000,  0.394970
  0.516000,  0.495400
  0.518000,  0.584780
  0.520000,  0.678230
  0.522000,  0.767430
  0.524000,  0.857610
  0.526000,  0.951270
  0.528000,  1.038380
  0.530000,  1.121280
  0.532000,  1.204490
  0.534000,  1.275330
  0.536000,  1.344810
  0.538000,  1.405240
  0.540000,  1.460710
  0.542000,  1.509650
  0.544000,  1.551290
  0.546000,  1.581130
  0.548000,  1.606260
  0.550000,  1.621540
  0.552000,  1.637690
  0.554000,  1.646520
  0.556000,  1.654810
  0.558000,  1.665330
  0.560000,  1.668430
  0.562000,  1.678110
  0.564000,  1.684790
  0.566000,  1.695110
  0.568000,  1.703260
  0.570000,  1.707190
  0.572000,  1.710380
  0.574000,  1.708520
  0.576000,  1.698320
  0.578000,  1.681830
  0.580000,  1.665660
  0.582000,  1.640430
  0.584000,  1.607770
  0.586000,  1.578920
  0.588000,  1.548990
  0.590000,  1.512210
  0.592000,  1.480110
  0.594000,  1.445430
  0.596000,  1.408360
  0.598000,  1.373310
  0.600000,  1.335430
  0.602000,  1.291300
  0.604000,  1.241110
  0.606000,  1.186770
  0.608000,  1.129510
  0.610000,  1.067980
  0.612000,  1.005250
  0.614000,  0.938920
  0.616000,  0.874860
  0.618000,  0.818250
  0.620000,  0.760500
  0.622000,  0.710370
  0.624000,  0.666050
  0.626000,  0.617520
  0.628000,  0.575160
  0.630000,  0.535130
  0.632000,  0.496080
  0.634000,  0.454050
  0.636000,  0.410420
  0.638000,  0.369460
  0.640000,  0.325640
  0.642000,  0.283780
  0.644000,  0.247660
  0.646000,  0.205220
  0.648000,  0.167310
  0.650000,  0.125960
  0.652000,  0.092970
  0.654000,  0.060110
  0.656000,  0.027930
  0.658000, -0.000970
  0.660000, -0.034200
  0.662000, -0.061880
  0.664000, -0.086560
  0.666000, -0.108010
  0.668000, -0.126330
  0.670000, -0.134260
  0.672000, -0.133230
  0.674000, -0.132070
  0.676000, -0.136030
  0.678000, -0.133070
  0.680000, -0.136100
  0.682000, -0.144360
  0.684000, -0.165780
  0.686000, -0.190390
  0.688000, -0.224850
  0.690000, -0.267460
  0.692000, -0.306230
  0.694000, -0.341330
  0.696000, -0.379820
  0.698000, -0.415720
  0.700000, -0.442290
  0.702000, -0.464540
  0.704000, -0.478380
  0.706000, -0.487190
  0.708000, -0.497800
  0.710000, -0.502940
  0.712000, -0.500260
  0.714000, -0.495780
  0.716000, -0.494320
  0.718000, -0.491430
  0.720000, -0.482940
  0.722000, -0.478820
  0.724000, -0.479040
  0.726000, -0.473620
  0.728000, -0.463660
  0.730000, -0.449260
  0.732000, -0.433210
  0.734000, -0.412730
  0.736000, -0.393870
  0.738000, -0.371430
  0.740000, -0.350830
  0.742000, -0.331960
  0.744000, -0.325620
  0.746000, -0.318320
  0.748000, -0.318430
  0.750000, -0.330340
  0.752000, -0.343510
  0.754000, -0.357030
  0.756000, -0.365730
  0.758000, -0.371880
  0.760000, -0.364530
  0.762000, -0.346960
  0.764000, -0.319510
  0.766000, -0.282810
  0.768000, -0.239880
  0.770000, -0.186630
  0.772000, -0.137430
  0.774000, -0.084090
  0.776000, -0.043290
  0.778000, -0.008720
  0.780000,  0.022750
  0.782000,  0.038090
  0.784000,  0.046470
  0.786000,  0.049790
  0.788000,  0.051450
  0.790000,  0.053480
  0.792000,  0.053850
  0.794000,  0.052780
  0.796000,  0.048370
  0.798000,  0.050440
  0.800000,  0.057600
  0.802000,  0.063720
  0.804000,  0.081550
  0.806000,  0.093340
  0.808000,  0.104410
  0.810000,  0.117530
  0.812000,  0.132480
  0.814000,  0.143430
  0.816000,  0.155510
  0.818000,  0.162390
  0.820000,  0.170950
  0.822000,  0.179040
  0.824000,  0.176300
  0.826000,  0.177200
  0.828000,  0.183150
  0.830000,  0.185430
  0.832000,  0.182250
  0.834000,  0.187760
  0.836000,  0.195790
  0.838000,  0.208520
  0.840000,  0.222580
  0.842000,  0.237870
  0.844000,  0.255830
  0.846000,  0.274050
  0.848000,  0.296560
  0.850000,  0.317780
  0.852000,  0.339820
  0.854000,  0.354360
  0.856000,  0.370420
  0.858000,  0.379330
  0.860000,  0.384230
  0.862000,  0.387100
  0.864000,  0.389630
  0.866000,  0.388910
  0.868000,  0.381050
  0.870000,  0.370790
  0.872000,  0.357330
  0.874000,  0.344360
  0.876000,  0.326700
  0.878000,  0.314380
  0.880000,  0.304400
  0.882000,  0.295360
  0.884000,  0.288550
  0.886000,  0.288950
  0.888000,  0.288210
  0.890000,  0.285000
  0.892000,  0.287160
  0.894000,  0.290180
  0.896000,  0.294250
  0.898000,  0.295530
  0.900000,  0.298880
  0.902000,  0.302030
  0.904000,  0.307440
  0.906000,  0.301760
  0.908000,  0.295220
  0.910000,  0.288370
  0.912000,  0.283320
  0.914000,  0.275450
  0.916000,  0.260820
  0.918000,  0.253200
  0.920000,  0.242750
  0.922000,  0.228700
  0.924000,  0.209240
  0.926000,  0.183320
  0.928000,  0.165000
  0.930000,  0.136870
  0.932000,  0.106180
  0.934000,  0.074720
  0.936000,  0.042840
  0.938000,  0.016380
  0.940000, -0.011030
  0.942000, -0.038800
  0.944000, -0.059770
  0.946000, -0.083840
  0.948000, -0.104570
  0.950000, -0.118410
  0.952000, -0.130790
  0.954000, -0.137940
  0.956000, -0.138060
  0.958000, -0.136920
  0.960000, -0.139160
  0.962000, -0.132980
  0.964000, -0.125690
  0.966000, -0.119560
  0.968000, -0.106590
  0.970000, -0.104750
  0.972000, -0.099870
  0.974000, -0.096260
  0.976000, -0.096790
  0.978000, -0.095910
  0.980000, -0.097130
  0.982000, -0.104100
  0.984000, -0.116330
  0.986000, -0.128790
  0.988000, -0.149320
  0.990000, -0.170470
  0.992000, -0.186460
  0.994000, -0.208070
  0.996000, -0.228650
  0.998000, -0.245920
  1.000000, -0.260660
