# z (nm)   (kJ/mol)
  0.084000,261.801910
  0.086000,258.276300
  0.088000,255.276430
  0.090000,252.139030
  0.092000,249.118620
  0.094000,246.195600
  0.096000,243.225280
  0.098000,240.222310
  0.100000,237.160500
  0.102000,234.009930
  0.104000,230.748960
  0.106000,227.357030
  0.108000,223.827160
  0.110000,220.147060
  0.112000,216.307570
  0.114000,212.305280
  0.116000,208.140420
  0.118000,203.815380
  0.120000,199.350140
  0.122000,194.767350
  0.124000,190.098420
  0.126000,185.379980
  0.128000,180.654530
  0.130000,175.978210
  0.132000,171.385460
  0.134000,166.912940
  0.136000,162.575160
  0.138000,158.364290
  0.140000,154.269470
  0.142000,150.267090
  0.144000,146.335980
  0.146000,142.457180
  0.148000,138.628030
  0.150000,134.856190
  0.152000,131.156490
  0.154000,127.532280
  0.156000,123.980230
  0.158000,120.481710
  0.160000,117.023170
  0.162000,113.596930
  0.164000,110.202360
  0.166000,106.851910
  0.168000,103.555270
  0.170000,100.311320
  0.172000, 97.106030
  0.174000, 93.918590
  0.176000, 90.728270
  0.178000, 87.527720
  0.180000, 84.338660
  0.182000, 81.186690
  0.184000, 78.093050
  0.186000, 75.085170
  0.188000, 72.159520
  0.190000, 69.279320
  0.192000, 66.419710
  0.194000, 63.563180
  0.196000, 60.716050
  0.198000, 57.910020
  0.200000, 55.179810
  0.202000, 52.557080
  0.204000, 50.044790
  0.206000, 47.626410
  0.208000, 45.271430
  0.210000, 42.963990
  0.212000, 40.683810
  0.214000, 38.428110
  0.216000, 36.185910
  0.218000, 33.954500
  0.220000, 31.759930
  0.222000, 29.594690
  0.224000, 27.482370
  0.226000, 25.437250
  0.228000, 23.455950
  0.230000, 21.543730
  0.232000, 19.693240
  0.234000, 17.896910
  0.236000, 16.157270
  0.238000, 14.447980
  0.240000, 12.796600
  0.242000, 11.202280
  0.244000,  9.668110
  0.246000,  8.196970
  0.248000,  6.780750
  0.250000,  5.411760
  0.252000,  4.099000
  0.254000,  2.817260
  0.256000,  1.574210
  0.258000,  0.373910
  0.260000, -0.782050
  0.262000, -1.883580
  0.264000, -2.929250
  0.266000, -3.930070
  0.268000, -4.888660
  0.270000, -5.819970
  0.272000, -6.713250
  0.274000, -7.585370
  0.276000, -8.441900
  0.278000, -9.274480
  0.280000,-10.080340
  0.282000,-10.855310
  0.284000,-11.591410
  0.286000,-12.259100
  0.288000,-12.860600
  0.290000,-13.388010
  0.292000,-13.864140
  0.294000,-14.309710
  0.296000,-14.743680
  0.298000,-15.181010
  0.300000,-15.618820
  0.302000,-16.047100
  0.304000,-16.447050
  0.306000,-16.795840
  0.308000,-17.078210
  0.310000,-17.286150
  0.312000,-17.430470
  0.314000,-17.533280
  0.316000,-17.610760
  0.318000,-17.688370
  0.320000,-17.776590
  0.322000,-17.859780
  0.324000,-17.927070
  0.326000,-17.955610
  0.328000,-17.928090
  0.330000,-17.845190
  0.332000,-17.715640
  0.334000,-17.548780
  0.336000,-17.357680
  0.338000,-17.153640
  0.340000,-16.930760
  0.342000,-16.694980
  0.344000,-16.439730
  0.346000,-16.164330
  0.348000,-15.858270
  0.350000,-15.550050
  0.352000,-15.225370
  0.354000,-14.902660
  0.356000,-14.574970
  0.358000,-14.245610
  0.360000,-13.911410
  0.362000,-13.562920
  0.364000,-13.212220
  0.366000,-12.851970
  0.368000,-12.502740
  0.370000,-12.150900
  0.372000,-11.806820
  0.374000,-11.478510
  0.376000,-11.175690
  0.378000,-10.886930
  0.380000,-10.633470
  0.382000,-10.401220
  0.384000,-10.196440
  0.386000,-10.007400
  0.388000, -9.849360
  0.390000, -9.718250
  0.392000, -9.604050
  0.394000, -9.516070
  0.396000, -9.443230
  0.398000, -9.376000
  0.400000, -9.312760
  0.402000, -9.251040
  0.404000, -9.203800
  0.406000, -9.169850
  0.408000, -9.152320
  0.410000, -9.164730
  0.412000, -9.208800
  0.414000, -9.267030
  0.416000, -9.353950
  0.418000, -9.455850
  0.420000, -9.562780
  0.422000, -9.654970
  0.424000, -9.732270
  0.426000, -9.786310
  0.428000, -9.820040
  0.430000, -9.842740
  0.432000, -9.861040
  0.434000, -9.889580
  0.436000, -9.929900
  0.438000, -9.987530
  0.440000,-10.057370
  0.442000,-10.138190
  0.444000,-10.225870
  0.446000,-10.299080
  0.448000,-10.364020
  0.450000,-10.408440
  0.452000,-10.436770
  0.454000,-10.443010
  0.456000,-10.437190
  0.458000,-10.432360
  0.460000,-10.425110
  0.462000,-10.420790
  0.464000,-10.412290
  0.466000,-10.396110
  0.468000,-10.365440
  0.470000,-10.319370
  0.472000,-10.261710
  0.474000,-10.197480
  0.476000,-10.123590
  0.478000,-10.053780
  0.480000, -9.987530
  0.482000, -9.922350
  0.484000, -9.856880
  0.486000, -9.778390
  0.488000, -9.698930
  0.490000, -9.597010
  0.492000, -9.492290
  0.494000, -9.368910
  0.496000, -9.235000
  0.498000, -9.094150
  0.500000, -8.958170
  0.502000, -8.824700
  0.504000, -8.706470
  0.506000, -8.598460
  0.508000, -8.504250
  0.510000, -8.416290
  0.512000, -8.331410
  0.514000, -8.257030
  0.516000, -8.174960
  0.518000, -8.081810
  0.520000, -7.990040
  0.522000, -7.891150
  0.524000, -7.798080
  0.526000, -7.703500
  0.528000, -7.606660
  0.530000, -7.506430
  0.532000, -7.392640
  0.534000, -7.274050
  0.536000, -7.147720
  0.538000, -7.021640
  0.540000, -6.906430
  0.542000, -6.809140
  0.544000, -6.729850
  0.546000, -6.672170
  0.548000, -6.630040
  0.550000, -6.589990
  0.552000, -6.557270
  0.554000, -6.508000
  0.556000, -6.445910
  0.558000, -6.367680
  0.560000, -6.278200
  0.562000, -6.177500
  0.564000, -6.075400
  0.566000, -5.974210
  0.568000, -5.881430
  0.570000, -5.787630
  0.572000, -5.698340
  0.574000, -5.623660
  0.576000, -5.550360
  0.578000, -5.483140
  0.580000, -5.413200
  0.582000, -5.345120
  0.584000, -5.276180
  0.586000, -5.192380
  0.588000, -5.105090
  0.590000, -5.010090
  0.592000, -4.897100
  0.594000, -4.776030
  0.596000, -4.642160
  0.598000, -4.508990
  0.600000, -4.373950
  0.602000, -4.234930
  0.604000, -4.091450
  0.606000, -3.946240
  0.608000, -3.798390
  0.610000, -3.653560
  0.612000, -3.506300
  0.614000, -3.362180
  0.616000, -3.231830
  0.618000, -3.102850
  0.620000, -2.984490
  0.622000, -2.865090
  0.624000, -2.751250
  0.626000, -2.630430
  0.628000, -2.514060
  0.630000, -2.392430
  0.632000, -2.254520
  0.634000, -2.113630
  0.636000, -1.953220
  0.638000, -1.788700
  0.640000, -1.617700
  0.642000, -1.445890
  0.644000, -1.288320
  0.646000, -1.136390
  0.648000, -1.002960
  0.650000, -0.891450
  0.652000, -0.801110
  0.654000, -0.724490
  0.656000, -0.654260
  0.658000, -0.588450
  0.660000, -0.521910
  0.662000, -0.451550
  0.664000, -0.365920
  0.666000, -0.271850
  0.668000, -0.163910
  0.670000, -0.058320
  0.672000,  0.049120
  0.674000,  0.147660
  0.676000,  0.237450
  0.678000,  0.311000
  0.680000,  0.373270
  0.682000,  0.428360
  0.684000,  0.472470
  0.686000,  0.509110
  0.688000,  0.540890
  0.690000,  0.565800
  0.692000,  0.587440
  0.694000,  0.599720
  0.696000,  0.617180
  0.698000,  0.630070
  0.700000,  0.642840
  0.702000,  0.663750
  0.704000,  0.677840
  0.706000,  0.706300
  0.708000,  0.730980
  0.710000,  0.760220
  0.712000,  0.784880
  0.714000,  0.800840
  0.716000,  0.819270
  0.718000,  0.837450
  0.720000,  0.839310
  0.722000,  0.833820
  0.724000,  0.821970
  0.726000,  0.794080
  0.728000,  0.759870
  0.730000,  0.719180
  0.732000,  0.668100
  0.734000,  0.621070
  0.736000,  0.569610
  0.738000,  0.523770
  0.740000,  0.482310
  0.742000,  0.447730
  0.744000,  0.424060
  0.746000,  0.409220
  0.748000,  0.406100
  0.750000,  0.410270
  0.752000,  0.420010
  0.754000,  0.432000
  0.756000,  0.441110
  0.758000,  0.440220
  0.760000,  0.436350
  0.762000,  0.419460
  0.764000,  0.394360
  0.766000,  0.368980
  0.768000,  0.333800
  0.770000,  0.295890
  0.772000,  0.260850
  0.774000,  0.228400
  0.776000,  0.195380
  0.778000,  0.165140
  0.780000,  0.148120
  0.782000,  0.136200
  0.784000,  0.131140
  0.786000,  0.142540
  0.788000,  0.168950
  0.790000,  0.190090
  0.792000,  0.208380
  0.794000,  0.218210
  0.796000,  0.215700
  0.798000,  0.194650
  0.800000,  0.156570
  0.802000,  0.099710
  0.804000,  0.039540
  0.806000, -0.024090
  0.808000, -0.080540
  0.810000, -0.123670
  0.812000, -0.145830
  0.814000, -0.153170
  0.816000, -0.148200
  0.818000, -0.118880
  0.820000, -0.083520
  0.822000, -0.043540
  0.824000, -0.005130
  0.826000,  0.024250
  0.828000,  0.054890
  0.830000,  0.073140
  0.832000,  0.085090
  0.834000,  0.090200
  0.836000,  0.089500
  0.838000,  0.080240
  0.840000,  0.057420
  0.842000,  0.027720
  0.844000, -0.007590
  0.846000, -0.050220
  0.848000, -0.093280
  0.850000, -0.133290
  0.852000, -0.166770
  0.854000, -0.196390
  0.856000, -0.218510
  0.858000, -0.237440
  0.860000, -0.244390
  0.862000, -0.249530
  0.864000, -0.244400
  0.866000, -0.234870
  0.868000, -0.220470
  0.870000, -0.200070
  0.872000, -0.178220
  0.874000, -0.148440
  0.876000, -0.129780
  0.878000, -0.114220
  0.880000, -0.102490
  0.882000, -0.098410
  0.884000, -0.107190
  0.886000, -0.126120
  0.888000, -0.152350
  0.890000, -0.193090
  0.892000, -0.240210
  0.894000, -0.286430
  0.896000, -0.323410
  0.898000, -0.340040
  0.900000, -0.338600
  0.902000, -0.320100
  0.904000, -0.289590
  0.906000, -0.243170
  0.908000, -0.190470
  0.910000, -0.139110
  0.912000, -0.097590
  0.914000, -0.066760
  0.916000, -0.038370
  0.918000, -0.025730
  0.920000, -0.020490
  0.922000, -0.017510
  0.924000, -0.023070
  0.926000, -0.024390
  0.928000, -0.039090
  0.930000, -0.040810
  0.932000, -0.040900
  0.934000, -0.029930
  0.936000, -0.015940
  0.938000, -0.002850
  0.940000,  0.021810
  0.942000,  0.039620
  0.944000,  0.055000
  0.946000,  0.069990
  0.948000,  0.083440
  0.950000,  0.092980
  0.952000,  0.094570
  0.954000,  0.092400
  0.956000,  0.085400
  0.958000,  0.076390
  0.960000,  0.065390
  0.962000,  0.051100
  0.964000,  0.039300
  0.966000,  0.022480
  0.968000,  0.010890
  0.970000,  0.004490
  0.972000, -0.002960
  0.974000, -0.003810
  0.976000, -0.004890
  0.978000, -0.003150
  0.980000, -0.001720
  0.982000,  0.005310
  0.984000,  0.020970
  0.986000,  0.037190
  0.988000,  0.056430
  0.990000,  0.075850
  0.992000,  0.092850
  0.994000,  0.109680
  0.996000,  0.121390
  0.998000,  0.127740
  1.000000,  0.129780
