# z (nm)   (kJ/mol)
  0.056000,275.245530
  0.058000,274.927640
  0.060000,272.077820
  0.062000,268.772510
  0.064000,265.409860
  0.066000,262.076510
  0.068000,258.807310
  0.070000,255.692700
  0.072000,252.589360
  0.074000,249.416470
  0.076000,246.221860
  0.078000,242.963930
  0.080000,239.654860
  0.082000,236.289510
  0.084000,232.864440
  0.086000,229.375350
  0.088000,225.820910
  0.090000,222.199470
  0.092000,218.520000
  0.094000,214.787370
  0.096000,211.000100
  0.098000,207.162350
  0.100000,203.287940
  0.102000,199.382880
  0.104000,195.458740
  0.106000,191.529710
  0.108000,187.602860
  0.110000,183.693170
  0.112000,179.817740
  0.114000,175.988290
  0.116000,172.213570
  0.118000,168.496470
  0.120000,164.843730
  0.122000,161.257650
  0.124000,157.739590
  0.126000,154.285960
  0.128000,150.904680
  0.130000,147.586870
  0.132000,144.343180
  0.134000,141.168180
  0.136000,138.058630
  0.138000,135.009050
  0.140000,132.023680
  0.142000,129.087220
  0.144000,126.192540
  0.146000,123.331950
  0.148000,120.500660
  0.150000,117.690220
  0.152000,114.891870
  0.154000,112.112700
  0.156000,109.348140
  0.158000,106.601610
  0.160000,103.887390
  0.162000,101.213930
  0.164000, 98.588730
  0.166000, 96.012880
  0.168000, 93.491970
  0.170000, 91.019130
  0.172000, 88.587260
  0.174000, 86.188020
  0.176000, 83.807820
  0.178000, 81.447030
  0.180000, 79.106310
  0.182000, 76.794540
  0.184000, 74.507280
  0.186000, 72.253860
  0.188000, 70.031020
  0.190000, 67.838050
  0.192000, 65.666740
  0.194000, 63.521640
  0.196000, 61.397900
  0.198000, 59.299240
  0.200000, 57.231110
  0.202000, 55.187320
  0.204000, 53.192550
  0.206000, 51.239750
  0.208000, 49.344570
  0.210000, 47.509630
  0.212000, 45.730660
  0.214000, 44.002820
  0.216000, 42.325690
  0.218000, 40.683010
  0.220000, 39.072140
  0.222000, 37.482210
  0.224000, 35.912890
  0.226000, 34.356220
  0.228000, 32.817450
  0.230000, 31.300080
  0.232000, 29.807760
  0.234000, 28.348030
  0.236000, 26.921790
  0.238000, 25.543910
  0.240000, 24.206080
  0.242000, 22.912090
  0.244000, 21.655480
  0.246000, 20.438570
  0.248000, 19.255450
  0.250000, 18.113720
  0.252000, 17.013200
  0.254000, 15.940090
  0.256000, 14.902770
  0.258000, 13.904750
  0.260000, 12.933660
  0.262000, 11.988670
  0.264000, 11.082320
  0.266000, 10.201670
  0.268000,  9.355080
  0.270000,  8.544620
  0.272000,  7.757030
  0.274000,  6.996790
  0.276000,  6.267700
  0.278000,  5.573320
  0.280000,  4.911980
  0.282000,  4.280280
  0.284000,  3.683590
  0.286000,  3.116890
  0.288000,  2.581820
  0.290000,  2.077090
  0.292000,  1.601780
  0.294000,  1.153820
  0.296000,  0.737930
  0.298000,  0.344490
  0.300000, -0.020020
  0.302000, -0.358640
  0.304000, -0.673920
  0.306000, -0.965590
  0.308000, -1.238960
  0.310000, -1.488450
  0.312000, -1.715600
  0.314000, -1.924900
  0.316000, -2.111870
  0.318000, -2.283170
  0.320000, -2.430110
  0.322000, -2.559930
  0.324000, -2.670540
  0.326000, -2.762710
  0.328000, -2.836070
  0.330000, -2.892740
  0.332000, -2.935050
  0.334000, -2.961510
  0.336000, -2.975420
  0.338000, -2.977990
  0.340000, -2.964580
  0.342000, -2.933870
  0.344000, -2.898830
  0.346000, -2.851730
  0.348000, -2.796930
  0.350000, -2.730700
  0.352000, -2.649450
  0.354000, -2.565380
  0.356000, -2.477630
  0.358000, -2.379390
  0.360000, -2.273530
  0.362000, -2.160500
  0.364000, -2.041010
  0.366000, -1.915630
  0.368000, -1.780640
  0.370000, -1.639840
  0.372000, -1.495860
  0.374000, -1.344680
  0.376000, -1.189380
  0.378000, -1.028640
  0.380000, -0.868690
  0.382000, -0.706710
  0.384000, -0.539930
  0.386000, -0.374170
  0.388000, -0.208180
  0.390000, -0.048420
  0.392000,  0.105340
  0.394000,  0.259370
  0.396000,  0.414070
  0.398000,  0.561920
  0.400000,  0.713170
  0.402000,  0.865100
  0.404000,  1.015580
  0.406000,  1.169450
  0.408000,  1.323390
  0.410000,  1.477740
  0.412000,  1.633900
  0.414000,  1.790690
  0.416000,  1.953400
  0.418000,  2.112890
  0.420000,  2.274300
  0.422000,  2.429790
  0.424000,  2.575290
  0.426000,  2.722440
  0.428000,  2.859350
  0.430000,  2.996570
  0.432000,  3.121890
  0.434000,  3.243200
  0.436000,  3.357810
  0.438000,  3.476570
  0.440000,  3.585770
  0.442000,  3.690080
  0.444000,  3.791900
  0.446000,  3.895160
  0.448000,  3.995660
  0.450000,  4.100610
  0.452000,  4.200410
  0.454000,  4.296570
  0.456000,  4.393610
  0.458000,  4.489800
  0.460000,  4.582610
  0.462000,  4.678200
  0.464000,  4.767970
  0.466000,  4.853660
  0.468000,  4.933420
  0.470000,  5.015480
  0.472000,  5.094440
  0.474000,  5.171080
  0.476000,  5.237990
  0.478000,  5.302250
  0.480000,  5.360060
  0.482000,  5.415050
  0.484000,  5.467920
  0.486000,  5.511640
  0.488000,  5.555530
  0.490000,  5.594540
  0.492000,  5.632840
  0.494000,  5.660820
  0.496000,  5.682840
  0.498000,  5.705930
  0.500000,  5.726270
  0.502000,  5.742020
  0.504000,  5.754020
  0.506000,  5.759960
  0.508000,  5.763990
  0.510000,  5.763480
  0.512000,  5.761700
  0.514000,  5.754390
  0.516000,  5.742260
  0.518000,  5.732050
  0.520000,  5.710880
  0.522000,  5.684190
  0.524000,  5.646480
  0.526000,  5.606500
  0.528000,  5.563300
  0.530000,  5.509780
  0.532000,  5.451270
  0.534000,  5.390480
  0.536000,  5.323570
  0.538000,  5.250000
  0.540000,  5.167910
  0.542000,  5.087410
  0.544000,  4.993940
  0.546000,  4.891020
  0.548000,  4.786780
  0.550000,  4.670840
  0.552000,  4.555970
  0.554000,  4.433660
  0.556000,  4.313680
  0.558000,  4.187420
  0.560000,  4.058820
  0.562000,  3.932650
  0.564000,  3.804700
  0.566000,  3.680880
  0.568000,  3.560160
  0.570000,  3.438830
  0.572000,  3.319080
  0.574000,  3.204230
  0.576000,  3.087250
  0.578000,  2.970660
  0.580000,  2.858850
  0.582000,  2.750570
  0.584000,  2.642700
  0.586000,  2.532530
  0.588000,  2.422110
  0.590000,  2.312130
  0.592000,  2.194870
  0.594000,  2.084660
  0.596000,  1.973350
  0.598000,  1.859480
  0.600000,  1.754730
  0.602000,  1.640820
  0.604000,  1.535340
  0.606000,  1.436390
  0.608000,  1.339420
  0.610000,  1.247730
  0.612000,  1.162100
  0.614000,  1.080140
  0.616000,  1.006820
  0.618000,  0.939120
  0.620000,  0.876670
  0.622000,  0.815110
  0.624000,  0.761830
  0.626000,  0.711510
  0.628000,  0.661350
  0.630000,  0.618470
  0.632000,  0.579400
  0.634000,  0.540090
  0.636000,  0.506200
  0.638000,  0.471510
  0.640000,  0.440920
  0.642000,  0.412430
  0.644000,  0.381770
  0.646000,  0.358160
  0.648000,  0.336800
  0.650000,  0.313070
  0.652000,  0.288770
  0.654000,  0.267930
  0.656000,  0.248930
  0.658000,  0.237930
  0.660000,  0.225680
  0.662000,  0.220080
  0.664000,  0.215360
  0.666000,  0.217660
  0.668000,  0.228140
  0.670000,  0.236960
  0.672000,  0.250780
  0.674000,  0.265820
  0.676000,  0.282820
  0.678000,  0.300740
  0.680000,  0.315760
  0.682000,  0.330770
  0.684000,  0.346240
  0.686000,  0.363600
  0.688000,  0.373840
  0.690000,  0.385880
  0.692000,  0.401710
  0.694000,  0.417490
  0.696000,  0.434860
  0.698000,  0.455950
  0.700000,  0.470760
  0.702000,  0.486990
  0.704000,  0.506710
  0.706000,  0.526110
  0.708000,  0.542140
  0.710000,  0.564070
  0.712000,  0.582400
  0.714000,  0.602010
  0.716000,  0.623360
  0.718000,  0.643820
  0.720000,  0.661710
  0.722000,  0.680270
  0.724000,  0.701030
  0.726000,  0.726140
  0.728000,  0.750390
  0.730000,  0.783300
  0.732000,  0.808360
  0.734000,  0.835010
  0.736000,  0.865940
  0.738000,  0.888850
  0.740000,  0.921450
  0.742000,  0.948940
  0.744000,  0.974770
  0.746000,  0.998630
  0.748000,  1.023340
  0.750000,  1.043890
  0.752000,  1.062020
  0.754000,  1.079290
  0.756000,  1.097820
  0.758000,  1.115140
  0.760000,  1.126560
  0.762000,  1.146060
  0.764000,  1.165870
  0.766000,  1.185670
  0.768000,  1.203050
  0.770000,  1.222590
  0.772000,  1.240770
  0.774000,  1.253370
  0.776000,  1.261570
  0.778000,  1.269790
  0.780000,  1.275860
  0.782000,  1.284460
  0.784000,  1.285160
  0.786000,  1.284330
  0.788000,  1.278570
  0.790000,  1.273750
  0.792000,  1.268270
  0.794000,  1.266810
  0.796000,  1.267240
  0.798000,  1.277070
  0.800000,  1.279700
  0.802000,  1.283980
  0.804000,  1.286850
  0.806000,  1.291450
  0.808000,  1.294620
  0.810000,  1.295820
  0.812000,  1.299690
  0.814000,  1.301720
  0.816000,  1.299990
  0.818000,  1.291930
  0.820000,  1.283860
  0.822000,  1.267870
  0.824000,  1.255950
  0.826000,  1.237170
  0.828000,  1.219970
  0.830000,  1.199930
  0.832000,  1.179750
  0.834000,  1.164530
  0.836000,  1.138860
  0.838000,  1.114280
  0.840000,  1.092790
  0.842000,  1.070300
  0.844000,  1.053950
  0.846000,  1.031740
  0.848000,  1.007950
  0.850000,  0.987430
  0.852000,  0.966480
  0.854000,  0.942090
  0.856000,  0.911440
  0.858000,  0.881840
  0.860000,  0.846860
  0.862000,  0.812630
  0.864000,  0.776170
  0.866000,  0.740120
  0.868000,  0.702300
  0.870000,  0.661700
  0.872000,  0.622270
  0.874000,  0.585360
  0.876000,  0.547430
  0.878000,  0.519220
  0.880000,  0.486980
  0.882000,  0.456960
  0.884000,  0.432660
  0.886000,  0.404140
  0.888000,  0.378990
  0.890000,  0.361950
  0.892000,  0.345440
  0.894000,  0.328100
  0.896000,  0.310700
  0.898000,  0.290930
  0.900000,  0.279470
  0.902000,  0.269420
  0.904000,  0.263710
  0.906000,  0.256880
  0.908000,  0.248490
  0.910000,  0.240330
  0.912000,  0.228580
  0.914000,  0.212530
  0.916000,  0.196320
  0.918000,  0.177950
  0.920000,  0.157500
  0.922000,  0.133230
  0.924000,  0.111290
  0.926000,  0.085240
  0.928000,  0.059840
  0.930000,  0.030320
  0.932000,  0.009610
  0.934000, -0.014060
  0.936000, -0.035780
  0.938000, -0.053620
  0.940000, -0.068480
  0.942000, -0.077450
  0.944000, -0.083220
  0.946000, -0.089830
  0.948000, -0.090950
  0.950000, -0.090780
  0.952000, -0.088010
  0.954000, -0.084730
  0.956000, -0.091820
  0.958000, -0.087510
  0.960000, -0.090070
  0.962000, -0.091630
  0.964000, -0.099150
  0.966000, -0.105430
  0.968000, -0.111480
  0.970000, -0.117890
  0.972000, -0.121560
  0.974000, -0.125050
  0.976000, -0.120490
  0.978000, -0.116180
  0.980000, -0.108630
  0.982000, -0.093240
  0.984000, -0.083190
  0.986000, -0.073460
  0.988000, -0.061960
  0.990000, -0.054250
  0.992000, -0.046410
  0.994000, -0.038340
  0.996000, -0.030140
  0.998000, -0.022510
  1.000000, -0.013950
