# z (nm)   (kJ/mol)
  0.060000,247.486010
  0.062000,243.663750
  0.064000,242.214340
  0.066000,239.600640
  0.068000,237.205920
  0.070000,234.721070
  0.072000,232.286520
  0.074000,229.809720
  0.076000,227.255400
  0.078000,224.674800
  0.080000,222.003780
  0.082000,219.214410
  0.084000,216.284880
  0.086000,213.192970
  0.088000,209.927850
  0.090000,206.471750
  0.092000,202.830200
  0.094000,199.015040
  0.096000,195.039870
  0.098000,190.935080
  0.100000,186.727630
  0.102000,182.447290
  0.104000,178.137850
  0.106000,173.848090
  0.108000,169.621630
  0.110000,165.488640
  0.112000,161.455810
  0.114000,157.493890
  0.116000,153.564930
  0.118000,149.638180
  0.120000,145.694660
  0.122000,141.735830
  0.124000,137.787210
  0.126000,133.884520
  0.128000,130.054260
  0.130000,126.315530
  0.132000,122.665150
  0.134000,119.085710
  0.136000,115.538230
  0.138000,112.007410
  0.140000,108.468290
  0.142000,104.904650
  0.144000,101.328440
  0.146000, 97.753280
  0.148000, 94.197750
  0.150000, 90.672740
  0.152000, 87.175490
  0.154000, 83.706390
  0.156000, 80.262010
  0.158000, 76.832190
  0.160000, 73.417660
  0.162000, 70.014890
  0.164000, 66.635210
  0.166000, 63.299000
  0.168000, 60.023930
  0.170000, 56.823530
  0.172000, 53.713430
  0.174000, 50.691790
  0.176000, 47.746960
  0.178000, 44.877590
  0.180000, 42.057850
  0.182000, 39.282850
  0.184000, 36.548000
  0.186000, 33.866090
  0.188000, 31.236630
  0.190000, 28.669150
  0.192000, 26.169060
  0.194000, 23.738020
  0.196000, 21.378810
  0.198000, 19.084270
  0.200000, 16.855640
  0.202000, 14.686710
  0.204000, 12.571630
  0.206000, 10.512320
  0.208000,  8.504820
  0.210000,  6.554990
  0.212000,  4.670710
  0.214000,  2.856480
  0.216000,  1.116240
  0.218000, -0.544900
  0.220000, -2.126210
  0.222000, -3.638860
  0.224000, -5.094910
  0.226000, -6.498870
  0.228000, -7.861170
  0.230000, -9.182930
  0.232000,-10.462410
  0.234000,-11.683580
  0.236000,-12.824240
  0.238000,-13.890870
  0.240000,-14.868330
  0.242000,-15.758160
  0.244000,-16.567870
  0.246000,-17.303120
  0.248000,-17.982120
  0.250000,-18.609520
  0.252000,-19.195500
  0.254000,-19.754200
  0.256000,-20.296790
  0.258000,-20.819340
  0.260000,-21.320910
  0.262000,-21.814580
  0.264000,-22.292420
  0.266000,-22.751220
  0.268000,-23.193480
  0.270000,-23.615930
  0.272000,-24.023490
  0.274000,-24.418620
  0.276000,-24.817740
  0.278000,-25.227300
  0.280000,-25.637380
  0.282000,-26.063220
  0.284000,-26.500170
  0.286000,-26.944910
  0.288000,-27.397460
  0.290000,-27.842750
  0.292000,-28.281740
  0.294000,-28.700300
  0.296000,-29.085570
  0.298000,-29.430550
  0.300000,-29.744840
  0.302000,-30.022860
  0.304000,-30.278460
  0.306000,-30.507280
  0.308000,-30.719510
  0.310000,-30.921990
  0.312000,-31.113280
  0.314000,-31.289040
  0.316000,-31.452720
  0.318000,-31.601930
  0.320000,-31.748690
  0.322000,-31.883570
  0.324000,-32.003690
  0.326000,-32.119610
  0.328000,-32.232810
  0.330000,-32.339820
  0.332000,-32.443620
  0.334000,-32.553290
  0.336000,-32.668140
  0.338000,-32.798730
  0.340000,-32.932500
  0.342000,-33.085090
  0.344000,-33.243510
  0.346000,-33.420290
  0.348000,-33.611020
  0.350000,-33.817970
  0.352000,-34.030230
  0.354000,-34.247440
  0.356000,-34.464540
  0.358000,-34.678820
  0.360000,-34.876250
  0.362000,-35.060310
  0.364000,-35.228370
  0.366000,-35.375480
  0.368000,-35.497770
  0.370000,-35.599030
  0.372000,-35.672790
  0.374000,-35.711460
  0.376000,-35.720230
  0.378000,-35.692280
  0.380000,-35.632740
  0.382000,-35.547770
  0.384000,-35.433670
  0.386000,-35.302510
  0.388000,-35.158840
  0.390000,-34.995610
  0.392000,-34.824730
  0.394000,-34.638720
  0.396000,-34.435210
  0.398000,-34.202980
  0.400000,-33.942440
  0.402000,-33.628990
  0.404000,-33.276030
  0.406000,-32.884890
  0.408000,-32.458990
  0.410000,-32.005920
  0.412000,-31.525180
  0.414000,-31.027830
  0.416000,-30.502970
  0.418000,-29.942620
  0.420000,-29.347690
  0.422000,-28.705440
  0.424000,-28.006410
  0.426000,-27.251640
  0.428000,-26.463330
  0.430000,-25.656050
  0.432000,-24.849350
  0.434000,-24.038180
  0.436000,-23.249540
  0.438000,-22.477600
  0.440000,-21.732910
  0.442000,-21.008270
  0.444000,-20.312100
  0.446000,-19.650580
  0.448000,-19.024410
  0.450000,-18.435450
  0.452000,-17.885850
  0.454000,-17.377940
  0.456000,-16.900500
  0.458000,-16.452980
  0.460000,-16.032960
  0.462000,-15.638810
  0.464000,-15.262610
  0.466000,-14.905420
  0.468000,-14.560590
  0.470000,-14.224350
  0.472000,-13.899440
  0.474000,-13.588930
  0.476000,-13.278850
  0.478000,-12.966910
  0.480000,-12.649800
  0.482000,-12.324350
  0.484000,-11.986020
  0.486000,-11.644160
  0.488000,-11.290540
  0.490000,-10.917390
  0.492000,-10.529630
  0.494000,-10.121410
  0.496000, -9.692530
  0.498000, -9.239230
  0.500000, -8.775580
  0.502000, -8.307920
  0.504000, -7.835350
  0.506000, -7.373790
  0.508000, -6.912350
  0.510000, -6.460680
  0.512000, -6.017370
  0.514000, -5.582040
  0.516000, -5.155210
  0.518000, -4.741880
  0.520000, -4.353570
  0.522000, -3.993490
  0.524000, -3.661900
  0.526000, -3.369520
  0.528000, -3.112890
  0.530000, -2.890500
  0.532000, -2.705120
  0.534000, -2.542680
  0.536000, -2.405910
  0.538000, -2.289950
  0.540000, -2.201300
  0.542000, -2.128030
  0.544000, -2.073040
  0.546000, -2.037270
  0.548000, -2.024240
  0.550000, -2.033440
  0.552000, -2.056300
  0.554000, -2.096720
  0.556000, -2.140720
  0.558000, -2.191580
  0.560000, -2.243440
  0.562000, -2.297450
  0.564000, -2.354660
  0.566000, -2.408040
  0.568000, -2.459010
  0.570000, -2.511720
  0.572000, -2.566410
  0.574000, -2.619130
  0.576000, -2.670620
  0.578000, -2.728370
  0.580000, -2.796940
  0.582000, -2.872260
  0.584000, -2.953590
  0.586000, -3.041410
  0.588000, -3.130600
  0.590000, -3.222480
  0.592000, -3.310790
  0.594000, -3.389660
  0.596000, -3.450810
  0.598000, -3.494360
  0.600000, -3.511180
  0.602000, -3.505810
  0.604000, -3.489670
  0.606000, -3.466100
  0.608000, -3.441820
  0.610000, -3.421670
  0.612000, -3.419430
  0.614000, -3.433700
  0.616000, -3.462830
  0.618000, -3.505590
  0.620000, -3.556350
  0.622000, -3.608960
  0.624000, -3.655480
  0.626000, -3.678670
  0.628000, -3.682220
  0.630000, -3.652940
  0.632000, -3.588640
  0.634000, -3.491460
  0.636000, -3.366830
  0.638000, -3.226470
  0.640000, -3.064460
  0.642000, -2.929830
  0.644000, -2.811290
  0.646000, -2.723110
  0.648000, -2.674420
  0.650000, -2.679050
  0.652000, -2.727050
  0.654000, -2.799360
  0.656000, -2.876250
  0.658000, -2.921340
  0.660000, -2.906660
  0.662000, -2.823930
  0.664000, -2.658230
  0.666000, -2.448710
  0.668000, -2.213520
  0.670000, -1.981000
  0.672000, -1.788760
  0.674000, -1.653320
  0.676000, -1.573230
  0.678000, -1.546330
  0.680000, -1.550320
  0.682000, -1.564440
  0.684000, -1.576140
  0.686000, -1.571080
  0.688000, -1.544250
  0.690000, -1.494090
  0.692000, -1.426370
  0.694000, -1.343730
  0.696000, -1.270220
  0.698000, -1.190770
  0.700000, -1.116770
  0.702000, -1.064350
  0.704000, -1.023320
  0.706000, -0.998130
  0.708000, -0.982320
  0.710000, -0.976020
  0.712000, -0.975510
  0.714000, -0.971210
  0.716000, -0.972480
  0.718000, -0.963660
  0.720000, -0.951240
  0.722000, -0.932260
  0.724000, -0.904680
  0.726000, -0.868800
  0.728000, -0.834810
  0.730000, -0.792070
  0.732000, -0.753480
  0.734000, -0.720610
  0.736000, -0.691600
  0.738000, -0.673170
  0.740000, -0.661470
  0.742000, -0.652740
  0.744000, -0.643730
  0.746000, -0.641390
  0.748000, -0.645790
  0.750000, -0.643570
  0.752000, -0.644000
  0.754000, -0.637380
  0.756000, -0.634710
  0.758000, -0.623140
  0.760000, -0.606800
  0.762000, -0.586420
  0.764000, -0.567530
  0.766000, -0.542720
  0.768000, -0.517640
  0.770000, -0.493510
  0.772000, -0.465990
  0.774000, -0.440520
  0.776000, -0.418600
  0.778000, -0.401530
  0.780000, -0.397490
  0.782000, -0.401760
  0.784000, -0.420130
  0.786000, -0.446740
  0.788000, -0.482170
  0.790000, -0.515310
  0.792000, -0.555040
  0.794000, -0.589260
  0.796000, -0.611790
  0.798000, -0.625090
  0.800000, -0.623640
  0.802000, -0.602150
  0.804000, -0.567170
  0.806000, -0.521200
  0.808000, -0.472730
  0.810000, -0.424570
  0.812000, -0.376170
  0.814000, -0.334200
  0.816000, -0.293990
  0.818000, -0.268280
  0.820000, -0.253540
  0.822000, -0.248600
  0.824000, -0.245670
  0.826000, -0.252100
  0.828000, -0.262790
  0.830000, -0.270120
  0.832000, -0.273460
  0.834000, -0.273800
  0.836000, -0.275290
  0.838000, -0.268590
  0.840000, -0.256870
  0.842000, -0.240370
  0.844000, -0.219510
  0.846000, -0.200670
  0.848000, -0.179140
  0.850000, -0.164360
  0.852000, -0.151610
  0.854000, -0.141660
  0.856000, -0.143830
  0.858000, -0.148510
  0.860000, -0.155560
  0.862000, -0.163210
  0.864000, -0.172550
  0.866000, -0.187400
  0.868000, -0.197450
  0.870000, -0.201020
  0.872000, -0.192870
  0.874000, -0.181270
  0.876000, -0.160950
  0.878000, -0.134700
  0.880000, -0.101420
  0.882000, -0.067390
  0.884000, -0.029310
  0.886000, -0.000630
  0.888000,  0.022740
  0.890000,  0.042850
  0.892000,  0.055720
  0.894000,  0.062800
  0.896000,  0.065060
  0.898000,  0.067020
  0.900000,  0.061920
  0.902000,  0.056210
  0.904000,  0.053130
  0.906000,  0.049850
  0.908000,  0.045830
  0.910000,  0.037090
  0.912000,  0.029110
  0.914000,  0.021140
  0.916000,  0.014080
  0.918000,  0.014370
  0.920000,  0.019810
  0.922000,  0.015300
  0.924000,  0.023500
  0.926000,  0.031580
  0.928000,  0.045250
  0.930000,  0.065770
  0.932000,  0.084060
  0.934000,  0.096160
  0.936000,  0.110810
  0.938000,  0.119130
  0.940000,  0.124350
  0.942000,  0.128390
  0.944000,  0.119700
  0.946000,  0.110540
  0.948000,  0.087310
  0.950000,  0.060230
  0.952000,  0.020890
  0.954000, -0.034830
  0.956000, -0.088730
  0.958000, -0.138740
  0.960000, -0.175970
  0.962000, -0.198940
  0.964000, -0.195560
  0.966000, -0.169920
  0.968000, -0.136650
  0.970000, -0.096140
  0.972000, -0.052750
  0.974000, -0.032900
  0.976000, -0.021270
  0.978000, -0.015750
  0.980000, -0.021540
  0.982000, -0.029740
  0.984000, -0.036150
  0.986000, -0.033350
  0.988000, -0.037520
  0.990000, -0.032670
  0.992000, -0.024410
  0.994000, -0.014690
  0.996000, -0.006320
  0.998000,  0.004260
  1.000000,  0.006690
