# z (nm)   (kJ/mol)
  0.070000,258.650110
  0.072000,256.445670
  0.074000,257.556900
  0.076000,255.313010
  0.078000,253.100300
  0.080000,250.708290
  0.082000,248.375370
  0.084000,246.140620
  0.086000,243.736370
  0.088000,241.436230
  0.090000,239.052940
  0.092000,236.636460
  0.094000,234.153850
  0.096000,231.554950
  0.098000,228.838390
  0.100000,225.983250
  0.102000,222.963250
  0.104000,219.765000
  0.106000,216.373680
  0.108000,212.785690
  0.110000,209.011600
  0.112000,205.061320
  0.114000,200.956740
  0.116000,196.732650
  0.118000,192.430900
  0.120000,188.095030
  0.122000,183.761360
  0.124000,179.464570
  0.126000,175.229570
  0.128000,171.056730
  0.130000,166.939530
  0.132000,162.878750
  0.134000,158.893010
  0.136000,155.024610
  0.138000,151.316220
  0.140000,147.792820
  0.142000,144.443810
  0.144000,141.196880
  0.146000,137.946970
  0.148000,134.611310
  0.150000,131.146670
  0.152000,127.575210
  0.154000,123.958700
  0.156000,120.366100
  0.158000,116.855200
  0.160000,113.454210
  0.162000,110.161470
  0.164000,106.954050
  0.166000,103.815400
  0.168000,100.740880
  0.170000, 97.714800
  0.172000, 94.712040
  0.174000, 91.712210
  0.176000, 88.695000
  0.178000, 85.652050
  0.180000, 82.603120
  0.182000, 79.576570
  0.184000, 76.605710
  0.186000, 73.712830
  0.188000, 70.914120
  0.190000, 68.202760
  0.192000, 65.565550
  0.194000, 62.968210
  0.196000, 60.394800
  0.198000, 57.824670
  0.200000, 55.246050
  0.202000, 52.648360
  0.204000, 50.049650
  0.206000, 47.469920
  0.208000, 44.915900
  0.210000, 42.412260
  0.212000, 39.982090
  0.214000, 37.628610
  0.216000, 35.346050
  0.218000, 33.138800
  0.220000, 30.999180
  0.222000, 28.904350
  0.224000, 26.847060
  0.226000, 24.822820
  0.228000, 22.808510
  0.230000, 20.822620
  0.232000, 18.864820
  0.234000, 16.948570
  0.236000, 15.084840
  0.238000, 13.285690
  0.240000, 11.550200
  0.242000,  9.875570
  0.244000,  8.275260
  0.246000,  6.725910
  0.248000,  5.236680
  0.250000,  3.794220
  0.252000,  2.406340
  0.254000,  1.059010
  0.256000, -0.228380
  0.258000, -1.469490
  0.260000, -2.652030
  0.262000, -3.783300
  0.264000, -4.865460
  0.266000, -5.900930
  0.268000, -6.899220
  0.270000, -7.846960
  0.272000, -8.751960
  0.274000, -9.616610
  0.276000,-10.436350
  0.278000,-11.202500
  0.280000,-11.918010
  0.282000,-12.584620
  0.284000,-13.212910
  0.286000,-13.804490
  0.288000,-14.367660
  0.290000,-14.913060
  0.292000,-15.438980
  0.294000,-15.956670
  0.296000,-16.454600
  0.298000,-16.937330
  0.300000,-17.398740
  0.302000,-17.837790
  0.304000,-18.256250
  0.306000,-18.651540
  0.308000,-19.033700
  0.310000,-19.393200
  0.312000,-19.731580
  0.314000,-20.040320
  0.316000,-20.324890
  0.318000,-20.582200
  0.320000,-20.820540
  0.322000,-21.044290
  0.324000,-21.246750
  0.326000,-21.443890
  0.328000,-21.634250
  0.330000,-21.816940
  0.332000,-21.983240
  0.334000,-22.132200
  0.336000,-22.281100
  0.338000,-22.403580
  0.340000,-22.508120
  0.342000,-22.587870
  0.344000,-22.644980
  0.346000,-22.677040
  0.348000,-22.684430
  0.350000,-22.662320
  0.352000,-22.618740
  0.354000,-22.554660
  0.356000,-22.467770
  0.358000,-22.353850
  0.360000,-22.202590
  0.362000,-22.022920
  0.364000,-21.819380
  0.366000,-21.576920
  0.368000,-21.306140
  0.370000,-21.006500
  0.372000,-20.684200
  0.374000,-20.347760
  0.376000,-19.991090
  0.378000,-19.614840
  0.380000,-19.228970
  0.382000,-18.821520
  0.384000,-18.397390
  0.386000,-17.948860
  0.388000,-17.489670
  0.390000,-17.010620
  0.392000,-16.520700
  0.394000,-16.023700
  0.396000,-15.516960
  0.398000,-15.009050
  0.400000,-14.499530
  0.402000,-14.002210
  0.404000,-13.518950
  0.406000,-13.056980
  0.408000,-12.609440
  0.410000,-12.187580
  0.412000,-11.790700
  0.414000,-11.421790
  0.416000,-11.075660
  0.418000,-10.754830
  0.420000,-10.463970
  0.422000,-10.190630
  0.424000, -9.933050
  0.426000, -9.692260
  0.428000, -9.449300
  0.430000, -9.207180
  0.432000, -8.957140
  0.434000, -8.685440
  0.436000, -8.393000
  0.438000, -8.102760
  0.440000, -7.808420
  0.442000, -7.518630
  0.444000, -7.241600
  0.446000, -6.983050
  0.448000, -6.740720
  0.450000, -6.518540
  0.452000, -6.308140
  0.454000, -6.108800
  0.456000, -5.911810
  0.458000, -5.712730
  0.460000, -5.503380
  0.462000, -5.281770
  0.464000, -5.050140
  0.466000, -4.803580
  0.468000, -4.557180
  0.470000, -4.309550
  0.472000, -4.064070
  0.474000, -3.829670
  0.476000, -3.603340
  0.478000, -3.401950
  0.480000, -3.215400
  0.482000, -3.043300
  0.484000, -2.891070
  0.486000, -2.761220
  0.488000, -2.653680
  0.490000, -2.563000
  0.492000, -2.496820
  0.494000, -2.447370
  0.496000, -2.415500
  0.498000, -2.391610
  0.500000, -2.378290
  0.502000, -2.359130
  0.504000, -2.353570
  0.506000, -2.348260
  0.508000, -2.347190
  0.510000, -2.359580
  0.512000, -2.381580
  0.514000, -2.420910
  0.516000, -2.465070
  0.518000, -2.519590
  0.520000, -2.581550
  0.522000, -2.646770
  0.524000, -2.703480
  0.526000, -2.761810
  0.528000, -2.823810
  0.530000, -2.884960
  0.532000, -2.945090
  0.534000, -3.006250
  0.536000, -3.075380
  0.538000, -3.145510
  0.540000, -3.223810
  0.542000, -3.299690
  0.544000, -3.384040
  0.546000, -3.463910
  0.548000, -3.541400
  0.550000, -3.602060
  0.552000, -3.658900
  0.554000, -3.699380
  0.556000, -3.721290
  0.558000, -3.731230
  0.560000, -3.738330
  0.562000, -3.746960
  0.564000, -3.762840
  0.566000, -3.782720
  0.568000, -3.807840
  0.570000, -3.864250
  0.572000, -3.917270
  0.574000, -3.968400
  0.576000, -4.007700
  0.578000, -4.038320
  0.580000, -4.053750
  0.582000, -4.052110
  0.584000, -4.032970
  0.586000, -3.997600
  0.588000, -3.938400
  0.590000, -3.879820
  0.592000, -3.807580
  0.594000, -3.730350
  0.596000, -3.659490
  0.598000, -3.599230
  0.600000, -3.559550
  0.602000, -3.537090
  0.604000, -3.531470
  0.606000, -3.537450
  0.608000, -3.552580
  0.610000, -3.552620
  0.612000, -3.539930
  0.614000, -3.510940
  0.616000, -3.459240
  0.618000, -3.392960
  0.620000, -3.317290
  0.622000, -3.231720
  0.624000, -3.147950
  0.626000, -3.066630
  0.628000, -2.992360
  0.630000, -2.927940
  0.632000, -2.872820
  0.634000, -2.832700
  0.636000, -2.790540
  0.638000, -2.748230
  0.640000, -2.700870
  0.642000, -2.646970
  0.644000, -2.588340
  0.646000, -2.519750
  0.648000, -2.452930
  0.650000, -2.384350
  0.652000, -2.317210
  0.654000, -2.250840
  0.656000, -2.186100
  0.658000, -2.113930
  0.660000, -2.037850
  0.662000, -1.961700
  0.664000, -1.870340
  0.666000, -1.785230
  0.668000, -1.689780
  0.670000, -1.603590
  0.672000, -1.513840
  0.674000, -1.427490
  0.676000, -1.349200
  0.678000, -1.279300
  0.680000, -1.206730
  0.682000, -1.143480
  0.684000, -1.089040
  0.686000, -1.036430
  0.688000, -0.994620
  0.690000, -0.948840
  0.692000, -0.907730
  0.694000, -0.881490
  0.696000, -0.855610
  0.698000, -0.833300
  0.700000, -0.810290
  0.702000, -0.793050
  0.704000, -0.773910
  0.706000, -0.745460
  0.708000, -0.719380
  0.710000, -0.687260
  0.712000, -0.645980
  0.714000, -0.601980
  0.716000, -0.564220
  0.718000, -0.522610
  0.720000, -0.491380
  0.722000, -0.472890
  0.724000, -0.462160
  0.726000, -0.466310
  0.728000, -0.476580
  0.730000, -0.481650
  0.732000, -0.485390
  0.734000, -0.482380
  0.736000, -0.472650
  0.738000, -0.455750
  0.740000, -0.432640
  0.742000, -0.407570
  0.744000, -0.378210
  0.746000, -0.353800
  0.748000, -0.330390
  0.750000, -0.316880
  0.752000, -0.303890
  0.754000, -0.296110
  0.756000, -0.284970
  0.758000, -0.288780
  0.760000, -0.286120
  0.762000, -0.283790
  0.764000, -0.288690
  0.766000, -0.293020
  0.768000, -0.309570
  0.770000, -0.326380
  0.772000, -0.342480
  0.774000, -0.347960
  0.776000, -0.342240
  0.778000, -0.316750
  0.780000, -0.272650
  0.782000, -0.227180
  0.784000, -0.173770
  0.786000, -0.125670
  0.788000, -0.082600
  0.790000, -0.062750
  0.792000, -0.054350
  0.794000, -0.060430
  0.796000, -0.078660
  0.798000, -0.106430
  0.800000, -0.135170
  0.802000, -0.166520
  0.804000, -0.189610
  0.806000, -0.209890
  0.808000, -0.221500
  0.810000, -0.220420
  0.812000, -0.217790
  0.814000, -0.207540
  0.816000, -0.189800
  0.818000, -0.178780
  0.820000, -0.165520
  0.822000, -0.163670
  0.824000, -0.161750
  0.826000, -0.167090
  0.828000, -0.170540
  0.830000, -0.181990
  0.832000, -0.191950
  0.834000, -0.195110
  0.836000, -0.201240
  0.838000, -0.198440
  0.840000, -0.186880
  0.842000, -0.168000
  0.844000, -0.140600
  0.846000, -0.114360
  0.848000, -0.074670
  0.850000, -0.036330
  0.852000, -0.001920
  0.854000,  0.024120
  0.856000,  0.040490
  0.858000,  0.052880
  0.860000,  0.055410
  0.862000,  0.044930
  0.864000,  0.022030
  0.866000,  0.000700
  0.868000, -0.026260
  0.870000, -0.054270
  0.872000, -0.075440
  0.874000, -0.099250
  0.876000, -0.107980
  0.878000, -0.113750
  0.880000, -0.108770
  0.882000, -0.100840
  0.884000, -0.078490
  0.886000, -0.054010
  0.888000, -0.019700
  0.890000,  0.019470
  0.892000,  0.057390
  0.894000,  0.090260
  0.896000,  0.122310
  0.898000,  0.149930
  0.900000,  0.170510
  0.902000,  0.178310
  0.904000,  0.184690
  0.906000,  0.178550
  0.908000,  0.168480
  0.910000,  0.152980
  0.912000,  0.145680
  0.914000,  0.135980
  0.916000,  0.131630
  0.918000,  0.129970
  0.920000,  0.127660
  0.922000,  0.132420
  0.924000,  0.135990
  0.926000,  0.146490
  0.928000,  0.152750
  0.930000,  0.160770
  0.932000,  0.165030
  0.934000,  0.166060
  0.936000,  0.155770
  0.938000,  0.136390
  0.940000,  0.109370
  0.942000,  0.080610
  0.944000,  0.045250
  0.946000,  0.008100
  0.948000, -0.036110
  0.950000, -0.075550
  0.952000, -0.109560
  0.954000, -0.129270
  0.956000, -0.146070
  0.958000, -0.156600
  0.960000, -0.154030
  0.962000, -0.148190
  0.964000, -0.131550
  0.966000, -0.118530
  0.968000, -0.097360
  0.970000, -0.078300
  0.972000, -0.068530
  0.974000, -0.067630
  0.976000, -0.065320
  0.978000, -0.071810
  0.980000, -0.082410
  0.982000, -0.096920
  0.984000, -0.114850
  0.986000, -0.132320
  0.988000, -0.147780
  0.990000, -0.152850
  0.992000, -0.160280
  0.994000, -0.162680
  0.996000, -0.152220
  0.998000, -0.142870
  1.000000, -0.129360
