# z (nm)   (kJ/mol)
  0.128000,254.567320
  0.130000,251.210520
  0.132000,248.625850
  0.134000,246.329750
  0.136000,244.078570
  0.138000,241.804500
  0.140000,239.652730
  0.142000,237.419100
  0.144000,235.182800
  0.146000,232.835860
  0.148000,230.428950
  0.150000,227.897140
  0.152000,225.209630
  0.154000,222.335230
  0.156000,219.253690
  0.158000,215.943170
  0.160000,212.390220
  0.162000,208.586400
  0.164000,204.547420
  0.166000,200.296550
  0.168000,195.867310
  0.170000,191.306890
  0.172000,186.668700
  0.174000,182.007470
  0.176000,177.371130
  0.178000,172.802680
  0.180000,168.333620
  0.182000,163.988250
  0.184000,159.782170
  0.186000,155.724970
  0.188000,151.832290
  0.190000,148.106520
  0.192000,144.542130
  0.194000,141.104940
  0.196000,137.749920
  0.198000,134.413080
  0.200000,131.052340
  0.202000,127.642770
  0.204000,124.197620
  0.206000,120.763180
  0.208000,117.400350
  0.210000,114.151640
  0.212000,111.029680
  0.214000,108.002250
  0.216000,105.014310
  0.218000,102.014040
  0.220000, 98.998500
  0.222000, 96.000570
  0.224000, 93.045050
  0.226000, 90.129480
  0.228000, 87.236330
  0.230000, 84.326670
  0.232000, 81.394360
  0.234000, 78.460820
  0.236000, 75.566690
  0.238000, 72.755770
  0.240000, 70.048860
  0.242000, 67.456750
  0.244000, 64.962670
  0.246000, 62.537220
  0.248000, 60.142780
  0.250000, 57.763170
  0.252000, 55.380080
  0.254000, 52.991250
  0.256000, 50.623560
  0.258000, 48.298050
  0.260000, 46.052830
  0.262000, 43.886800
  0.264000, 41.791160
  0.266000, 39.762380
  0.268000, 37.798080
  0.270000, 35.871850
  0.272000, 33.986670
  0.274000, 32.139840
  0.276000, 30.331150
  0.278000, 28.570480
  0.280000, 26.872710
  0.282000, 25.221080
  0.284000, 23.614990
  0.286000, 22.043040
  0.288000, 20.488180
  0.290000, 18.957790
  0.292000, 17.450320
  0.294000, 15.970200
  0.296000, 14.540120
  0.298000, 13.150910
  0.300000, 11.824890
  0.302000, 10.563390
  0.304000,  9.379990
  0.306000,  8.277550
  0.308000,  7.240110
  0.310000,  6.260360
  0.312000,  5.297950
  0.314000,  4.340010
  0.316000,  3.386230
  0.318000,  2.422690
  0.320000,  1.469860
  0.322000,  0.543850
  0.324000, -0.333410
  0.326000, -1.142380
  0.328000, -1.867580
  0.330000, -2.516410
  0.332000, -3.095500
  0.334000, -3.645500
  0.336000, -4.177460
  0.338000, -4.718300
  0.340000, -5.281680
  0.342000, -5.847540
  0.344000, -6.399310
  0.346000, -6.917010
  0.348000, -7.388170
  0.350000, -7.821830
  0.352000, -8.214140
  0.354000, -8.568520
  0.356000, -8.899000
  0.358000, -9.220810
  0.360000, -9.536070
  0.362000, -9.829800
  0.364000,-10.095350
  0.366000,-10.325530
  0.368000,-10.505010
  0.370000,-10.657350
  0.372000,-10.789470
  0.374000,-10.923580
  0.376000,-11.051070
  0.378000,-11.172770
  0.380000,-11.288660
  0.382000,-11.386040
  0.384000,-11.467340
  0.386000,-11.528750
  0.388000,-11.581370
  0.390000,-11.622830
  0.392000,-11.634070
  0.394000,-11.638500
  0.396000,-11.603760
  0.398000,-11.562120
  0.400000,-11.520710
  0.402000,-11.503230
  0.404000,-11.523700
  0.406000,-11.593900
  0.408000,-11.686370
  0.410000,-11.800150
  0.412000,-11.899890
  0.414000,-11.974930
  0.416000,-12.032790
  0.418000,-12.080700
  0.420000,-12.135540
  0.422000,-12.207960
  0.424000,-12.299170
  0.426000,-12.403410
  0.428000,-12.508630
  0.430000,-12.610770
  0.432000,-12.702540
  0.434000,-12.792580
  0.436000,-12.870830
  0.438000,-12.930890
  0.440000,-12.976890
  0.442000,-13.003270
  0.444000,-13.012410
  0.446000,-13.014260
  0.448000,-13.027610
  0.450000,-13.039540
  0.452000,-13.071600
  0.454000,-13.111750
  0.456000,-13.128040
  0.458000,-13.131320
  0.460000,-13.091810
  0.462000,-13.020700
  0.464000,-12.932560
  0.466000,-12.848210
  0.468000,-12.777650
  0.470000,-12.729110
  0.472000,-12.677360
  0.474000,-12.624610
  0.476000,-12.539390
  0.478000,-12.422390
  0.480000,-12.297160
  0.482000,-12.169340
  0.484000,-12.041200
  0.486000,-11.920740
  0.488000,-11.785230
  0.490000,-11.632530
  0.492000,-11.440170
  0.494000,-11.227700
  0.496000,-10.994940
  0.498000,-10.751780
  0.500000,-10.520080
  0.502000,-10.312830
  0.504000,-10.140000
  0.506000,-10.008700
  0.508000, -9.906560
  0.510000, -9.811290
  0.512000, -9.694430
  0.514000, -9.525190
  0.516000, -9.302540
  0.518000, -9.011620
  0.520000, -8.698690
  0.522000, -8.391690
  0.524000, -8.125820
  0.526000, -7.929000
  0.528000, -7.787020
  0.530000, -7.684370
  0.532000, -7.589170
  0.534000, -7.477660
  0.536000, -7.331130
  0.538000, -7.146790
  0.540000, -6.938290
  0.542000, -6.725000
  0.544000, -6.514020
  0.546000, -6.313280
  0.548000, -6.123290
  0.550000, -5.945050
  0.552000, -5.784340
  0.554000, -5.646500
  0.556000, -5.541680
  0.558000, -5.470030
  0.560000, -5.432720
  0.562000, -5.409340
  0.564000, -5.366340
  0.566000, -5.296470
  0.568000, -5.186340
  0.570000, -5.060000
  0.572000, -4.923730
  0.574000, -4.812730
  0.576000, -4.726600
  0.578000, -4.675580
  0.580000, -4.652460
  0.582000, -4.644560
  0.584000, -4.620270
  0.586000, -4.568980
  0.588000, -4.471540
  0.590000, -4.343800
  0.592000, -4.199000
  0.594000, -4.072630
  0.596000, -3.967660
  0.598000, -3.878720
  0.600000, -3.784340
  0.602000, -3.669010
  0.604000, -3.523580
  0.606000, -3.360070
  0.608000, -3.184620
  0.610000, -3.023760
  0.612000, -2.871230
  0.614000, -2.736580
  0.616000, -2.606030
  0.618000, -2.476910
  0.620000, -2.343670
  0.622000, -2.201710
  0.624000, -2.066670
  0.626000, -1.932170
  0.628000, -1.796330
  0.630000, -1.671110
  0.632000, -1.550590
  0.634000, -1.444350
  0.636000, -1.350090
  0.638000, -1.261530
  0.640000, -1.168200
  0.642000, -1.094260
  0.644000, -1.021330
  0.646000, -0.936700
  0.648000, -0.846730
  0.650000, -0.750880
  0.652000, -0.659290
  0.654000, -0.573290
  0.656000, -0.498460
  0.658000, -0.445060
  0.660000, -0.409920
  0.662000, -0.404420
  0.664000, -0.409480
  0.666000, -0.417540
  0.668000, -0.437510
  0.670000, -0.448520
  0.672000, -0.455720
  0.674000, -0.465510
  0.676000, -0.475820
  0.678000, -0.498260
  0.680000, -0.533200
  0.682000, -0.568160
  0.684000, -0.590220
  0.686000, -0.616350
  0.688000, -0.636860
  0.690000, -0.653010
  0.692000, -0.684200
  0.694000, -0.719590
  0.696000, -0.772480
  0.698000, -0.831830
  0.700000, -0.897800
  0.702000, -0.963200
  0.704000, -1.022420
  0.706000, -1.070900
  0.708000, -1.097760
  0.710000, -1.108800
  0.712000, -1.111990
  0.714000, -1.106870
  0.716000, -1.106450
  0.718000, -1.118250
  0.720000, -1.139650
  0.722000, -1.173390
  0.724000, -1.214380
  0.726000, -1.265320
  0.728000, -1.314520
  0.730000, -1.358210
  0.732000, -1.400420
  0.734000, -1.433900
  0.736000, -1.460440
  0.738000, -1.496440
  0.740000, -1.529170
  0.742000, -1.559680
  0.744000, -1.602520
  0.746000, -1.638270
  0.748000, -1.663040
  0.750000, -1.679150
  0.752000, -1.683500
  0.754000, -1.680080
  0.756000, -1.663690
  0.758000, -1.648250
  0.760000, -1.643500
  0.762000, -1.649660
  0.764000, -1.671330
  0.766000, -1.699590
  0.768000, -1.736370
  0.770000, -1.775040
  0.772000, -1.824620
  0.774000, -1.867220
  0.776000, -1.897830
  0.778000, -1.897310
  0.780000, -1.864700
  0.782000, -1.801680
  0.784000, -1.716680
  0.786000, -1.631890
  0.788000, -1.559630
  0.790000, -1.506670
  0.792000, -1.478900
  0.794000, -1.478750
  0.796000, -1.503250
  0.798000, -1.542300
  0.800000, -1.577420
  0.802000, -1.600240
  0.804000, -1.603580
  0.806000, -1.575950
  0.808000, -1.516500
  0.810000, -1.431770
  0.812000, -1.332340
  0.814000, -1.232420
  0.816000, -1.150040
  0.818000, -1.099470
  0.820000, -1.080780
  0.822000, -1.096860
  0.824000, -1.127840
  0.826000, -1.163570
  0.828000, -1.189510
  0.830000, -1.187170
  0.832000, -1.153670
  0.834000, -1.082730
  0.836000, -0.989070
  0.838000, -0.877420
  0.840000, -0.765130
  0.842000, -0.674090
  0.844000, -0.608980
  0.846000, -0.580400
  0.848000, -0.575250
  0.850000, -0.596780
  0.852000, -0.614280
  0.854000, -0.622760
  0.856000, -0.620750
  0.858000, -0.598060
  0.860000, -0.569030
  0.862000, -0.528400
  0.864000, -0.495240
  0.866000, -0.463120
  0.868000, -0.437870
  0.870000, -0.408460
  0.872000, -0.382930
  0.874000, -0.347640
  0.876000, -0.320110
  0.878000, -0.289540
  0.880000, -0.262210
  0.882000, -0.230310
  0.884000, -0.211930
  0.886000, -0.200660
  0.888000, -0.195950
  0.890000, -0.198370
  0.892000, -0.202800
  0.894000, -0.219210
  0.896000, -0.232800
  0.898000, -0.242730
  0.900000, -0.242220
  0.902000, -0.229930
  0.904000, -0.215550
  0.906000, -0.200420
  0.908000, -0.173260
  0.910000, -0.139940
  0.912000, -0.110720
  0.914000, -0.088810
  0.916000, -0.084740
  0.918000, -0.101260
  0.920000, -0.131830
  0.922000, -0.158190
  0.924000, -0.173380
  0.926000, -0.163370
  0.928000, -0.143870
  0.930000, -0.103230
  0.932000, -0.070110
  0.934000, -0.038380
  0.936000, -0.017560
  0.938000, -0.010950
  0.940000, -0.018310
  0.942000, -0.029700
  0.944000, -0.035300
  0.946000, -0.034030
  0.948000, -0.026690
  0.950000, -0.026260
  0.952000, -0.032700
  0.954000, -0.037800
  0.956000, -0.043050
  0.958000, -0.040840
  0.960000, -0.028080
  0.962000, -0.013830
  0.964000,  0.003780
  0.966000,  0.018740
  0.968000,  0.028130
  0.970000,  0.049880
  0.972000,  0.078010
  0.974000,  0.123560
  0.976000,  0.182470
  0.978000,  0.234710
  0.980000,  0.272920
  0.982000,  0.282590
  0.984000,  0.254980
  0.986000,  0.211200
  0.988000,  0.152750
  0.990000,  0.098490
  0.992000,  0.081350
  0.994000,  0.085480
  0.996000,  0.131040
  0.998000,  0.186780
  1.000000,  0.245220
