# z (nm)   (kJ/mol)
  0.082000,262.143300
  0.084000,257.413960
  0.086000,254.394940
  0.088000,251.239680
  0.090000,248.346670
  0.092000,245.532860
  0.094000,242.639930
  0.096000,239.750870
  0.098000,236.796750
  0.100000,233.764670
  0.102000,230.632870
  0.104000,227.399100
  0.106000,224.050520
  0.108000,220.575720
  0.110000,216.975110
  0.112000,213.250460
  0.114000,209.405320
  0.116000,205.440140
  0.118000,201.373560
  0.120000,197.216600
  0.122000,192.984240
  0.124000,188.696290
  0.126000,184.373570
  0.128000,180.043250
  0.130000,175.716340
  0.132000,171.421910
  0.134000,167.178160
  0.136000,163.002920
  0.138000,158.909830
  0.140000,154.905310
  0.142000,150.995430
  0.144000,147.179930
  0.146000,143.460460
  0.148000,139.828700
  0.150000,136.285960
  0.152000,132.822570
  0.154000,129.433480
  0.156000,126.100380
  0.158000,122.817420
  0.160000,119.567330
  0.162000,116.326370
  0.164000,113.101390
  0.166000,109.877300
  0.168000,106.663790
  0.170000,103.463690
  0.172000,100.295720
  0.174000, 97.171290
  0.176000, 94.102590
  0.178000, 91.105940
  0.180000, 88.186140
  0.182000, 85.349520
  0.184000, 82.590830
  0.186000, 79.904490
  0.188000, 77.285300
  0.190000, 74.710830
  0.192000, 72.165480
  0.194000, 69.630990
  0.196000, 67.106320
  0.198000, 64.585760
  0.200000, 62.085050
  0.202000, 59.617510
  0.204000, 57.203870
  0.206000, 54.865170
  0.208000, 52.603100
  0.210000, 50.425940
  0.212000, 48.316280
  0.214000, 46.277820
  0.216000, 44.283730
  0.218000, 42.325520
  0.220000, 40.398560
  0.222000, 38.490760
  0.224000, 36.600310
  0.226000, 34.723140
  0.228000, 32.873470
  0.230000, 31.040840
  0.232000, 29.227760
  0.234000, 27.437600
  0.236000, 25.691490
  0.238000, 23.980430
  0.240000, 22.333700
  0.242000, 20.761160
  0.244000, 19.259880
  0.246000, 17.810270
  0.248000, 16.416320
  0.250000, 15.064950
  0.252000, 13.733440
  0.254000, 12.427850
  0.256000, 11.144470
  0.258000,  9.875210
  0.260000,  8.632050
  0.262000,  7.425020
  0.264000,  6.244980
  0.266000,  5.093800
  0.268000,  3.983910
  0.270000,  2.905150
  0.272000,  1.888730
  0.274000,  0.925870
  0.276000,  0.036070
  0.278000, -0.798050
  0.280000, -1.592370
  0.282000, -2.368280
  0.284000, -3.135760
  0.286000, -3.894560
  0.288000, -4.633220
  0.290000, -5.340800
  0.292000, -6.005450
  0.294000, -6.613330
  0.296000, -7.157890
  0.298000, -7.648720
  0.300000, -8.088360
  0.302000, -8.490930
  0.304000, -8.869510
  0.306000, -9.231940
  0.308000, -9.588830
  0.310000, -9.932260
  0.312000,-10.256800
  0.314000,-10.555370
  0.316000,-10.821770
  0.318000,-11.054880
  0.320000,-11.241700
  0.322000,-11.392830
  0.324000,-11.512670
  0.326000,-11.609740
  0.328000,-11.678740
  0.330000,-11.733740
  0.332000,-11.781650
  0.334000,-11.813970
  0.336000,-11.833700
  0.338000,-11.841170
  0.340000,-11.839010
  0.342000,-11.824350
  0.344000,-11.796640
  0.346000,-11.760380
  0.348000,-11.709470
  0.350000,-11.646000
  0.352000,-11.562580
  0.354000,-11.472870
  0.356000,-11.365860
  0.358000,-11.241390
  0.360000,-11.099570
  0.362000,-10.951190
  0.364000,-10.791980
  0.366000,-10.635780
  0.368000,-10.462630
  0.370000,-10.286280
  0.372000,-10.111410
  0.374000, -9.938070
  0.376000, -9.766520
  0.378000, -9.596780
  0.380000, -9.437160
  0.382000, -9.284600
  0.384000, -9.139280
  0.386000, -9.011010
  0.388000, -8.884170
  0.390000, -8.761760
  0.392000, -8.636280
  0.394000, -8.500510
  0.396000, -8.358370
  0.398000, -8.205720
  0.400000, -8.032420
  0.402000, -7.860120
  0.404000, -7.678620
  0.406000, -7.496870
  0.408000, -7.327890
  0.410000, -7.166010
  0.412000, -7.015090
  0.414000, -6.881570
  0.416000, -6.753610
  0.418000, -6.636960
  0.420000, -6.526070
  0.422000, -6.424290
  0.424000, -6.319450
  0.426000, -6.208880
  0.428000, -6.093990
  0.430000, -5.976900
  0.432000, -5.851780
  0.434000, -5.713650
  0.436000, -5.571780
  0.438000, -5.421460
  0.440000, -5.267940
  0.442000, -5.101320
  0.444000, -4.946130
  0.446000, -4.795160
  0.448000, -4.657900
  0.450000, -4.538980
  0.452000, -4.439130
  0.454000, -4.356810
  0.456000, -4.276710
  0.458000, -4.203590
  0.460000, -4.137330
  0.462000, -4.068010
  0.464000, -3.991710
  0.466000, -3.911510
  0.468000, -3.819420
  0.470000, -3.728250
  0.472000, -3.632270
  0.474000, -3.534240
  0.476000, -3.434960
  0.478000, -3.340300
  0.480000, -3.249690
  0.482000, -3.160350
  0.484000, -3.080630
  0.486000, -3.003020
  0.488000, -2.929580
  0.490000, -2.858830
  0.492000, -2.787520
  0.494000, -2.713850
  0.496000, -2.623290
  0.498000, -2.536320
  0.500000, -2.439820
  0.502000, -2.339150
  0.504000, -2.235200
  0.506000, -2.120010
  0.508000, -1.998850
  0.510000, -1.872260
  0.512000, -1.741950
  0.514000, -1.606970
  0.516000, -1.463240
  0.518000, -1.330700
  0.520000, -1.206080
  0.522000, -1.087360
  0.524000, -0.981380
  0.526000, -0.887400
  0.528000, -0.808130
  0.530000, -0.742380
  0.532000, -0.688030
  0.534000, -0.632460
  0.536000, -0.562160
  0.538000, -0.481560
  0.540000, -0.386150
  0.542000, -0.268280
  0.544000, -0.121730
  0.546000,  0.036640
  0.548000,  0.205740
  0.550000,  0.364570
  0.552000,  0.512150
  0.554000,  0.634940
  0.556000,  0.726470
  0.558000,  0.788820
  0.560000,  0.828290
  0.562000,  0.860250
  0.564000,  0.870090
  0.566000,  0.887560
  0.568000,  0.906100
  0.570000,  0.942220
  0.572000,  0.987420
  0.574000,  1.045260
  0.576000,  1.105210
  0.578000,  1.169330
  0.580000,  1.228270
  0.582000,  1.281060
  0.584000,  1.324800
  0.586000,  1.365620
  0.588000,  1.396910
  0.590000,  1.421360
  0.592000,  1.436580
  0.594000,  1.445280
  0.596000,  1.446340
  0.598000,  1.435720
  0.600000,  1.409830
  0.602000,  1.362680
  0.604000,  1.314370
  0.606000,  1.245320
  0.608000,  1.171100
  0.610000,  1.087840
  0.612000,  1.001130
  0.614000,  0.918130
  0.616000,  0.838760
  0.618000,  0.765350
  0.620000,  0.700460
  0.622000,  0.648260
  0.624000,  0.595710
  0.626000,  0.544770
  0.628000,  0.492640
  0.630000,  0.437420
  0.632000,  0.378780
  0.634000,  0.297150
  0.636000,  0.212400
  0.638000,  0.122720
  0.640000,  0.032100
  0.642000, -0.068980
  0.644000, -0.157870
  0.646000, -0.246630
  0.648000, -0.318390
  0.650000, -0.385930
  0.652000, -0.455200
  0.654000, -0.508510
  0.656000, -0.547930
  0.658000, -0.581360
  0.660000, -0.603020
  0.662000, -0.617250
  0.664000, -0.625330
  0.666000, -0.626790
  0.668000, -0.629120
  0.670000, -0.621660
  0.672000, -0.624530
  0.674000, -0.628240
  0.676000, -0.642970
  0.678000, -0.676330
  0.680000, -0.726100
  0.682000, -0.787600
  0.684000, -0.850580
  0.686000, -0.902600
  0.688000, -0.934770
  0.690000, -0.939650
  0.692000, -0.913790
  0.694000, -0.860230
  0.696000, -0.782700
  0.698000, -0.705420
  0.700000, -0.632690
  0.702000, -0.573020
  0.704000, -0.535410
  0.706000, -0.518570
  0.708000, -0.518550
  0.710000, -0.531040
  0.712000, -0.557450
  0.714000, -0.584870
  0.716000, -0.607900
  0.718000, -0.629040
  0.720000, -0.638950
  0.722000, -0.634340
  0.724000, -0.620710
  0.726000, -0.586230
  0.728000, -0.534010
  0.730000, -0.486640
  0.732000, -0.429690
  0.734000, -0.374760
  0.736000, -0.321410
  0.738000, -0.271140
  0.740000, -0.233340
  0.742000, -0.200390
  0.744000, -0.173900
  0.746000, -0.150970
  0.748000, -0.127320
  0.750000, -0.098030
  0.752000, -0.075440
  0.754000, -0.048560
  0.756000, -0.021720
  0.758000,  0.011730
  0.760000,  0.038220
  0.762000,  0.059150
  0.764000,  0.084920
  0.766000,  0.098780
  0.768000,  0.114730
  0.770000,  0.124030
  0.772000,  0.137650
  0.774000,  0.143850
  0.776000,  0.153680
  0.778000,  0.165490
  0.780000,  0.178060
  0.782000,  0.192570
  0.784000,  0.213020
  0.786000,  0.225240
  0.788000,  0.240980
  0.790000,  0.249130
  0.792000,  0.255390
  0.794000,  0.258620
  0.796000,  0.261290
  0.798000,  0.266720
  0.800000,  0.266840
  0.802000,  0.270490
  0.804000,  0.288260
  0.806000,  0.302300
  0.808000,  0.329060
  0.810000,  0.353020
  0.812000,  0.385790
  0.814000,  0.417490
  0.816000,  0.441510
  0.818000,  0.468540
  0.820000,  0.479440
  0.822000,  0.484020
  0.824000,  0.475800
  0.826000,  0.449070
  0.828000,  0.418540
  0.830000,  0.377630
  0.832000,  0.334590
  0.834000,  0.295330
  0.836000,  0.256980
  0.838000,  0.230680
  0.840000,  0.212370
  0.842000,  0.205300
  0.844000,  0.214720
  0.846000,  0.228350
  0.848000,  0.246340
  0.850000,  0.269790
  0.852000,  0.296670
  0.854000,  0.317720
  0.856000,  0.333720
  0.858000,  0.341760
  0.860000,  0.336390
  0.862000,  0.329540
  0.864000,  0.316920
  0.866000,  0.294790
  0.868000,  0.269270
  0.870000,  0.239950
  0.872000,  0.208860
  0.874000,  0.179350
  0.876000,  0.152700
  0.878000,  0.134000
  0.880000,  0.123920
  0.882000,  0.113820
  0.884000,  0.109570
  0.886000,  0.105640
  0.888000,  0.113040
  0.890000,  0.116260
  0.892000,  0.120200
  0.894000,  0.116600
  0.896000,  0.117850
  0.898000,  0.122230
  0.900000,  0.128730
  0.902000,  0.135210
  0.904000,  0.147060
  0.906000,  0.159380
  0.908000,  0.165090
  0.910000,  0.169740
  0.912000,  0.172280
  0.914000,  0.165660
  0.916000,  0.158850
  0.918000,  0.147550
  0.920000,  0.132870
  0.922000,  0.112630
  0.924000,  0.091370
  0.926000,  0.062810
  0.928000,  0.037130
  0.930000,  0.008190
  0.932000, -0.024270
  0.934000, -0.052740
  0.936000, -0.073590
  0.938000, -0.094640
  0.940000, -0.106360
  0.942000, -0.109440
  0.944000, -0.101330
  0.946000, -0.090770
  0.948000, -0.070160
  0.950000, -0.046300
  0.952000, -0.028500
  0.954000, -0.020020
  0.956000, -0.019940
  0.958000, -0.028210
  0.960000, -0.045530
  0.962000, -0.069580
  0.964000, -0.099200
  0.966000, -0.129320
  0.968000, -0.154210
  0.970000, -0.176650
  0.972000, -0.180390
  0.974000, -0.185300
  0.976000, -0.172120
  0.978000, -0.140340
  0.980000, -0.104010
  0.982000, -0.064400
  0.984000, -0.020320
  0.986000,  0.018530
  0.988000,  0.056290
  0.990000,  0.079320
  0.992000,  0.092040
  0.994000,  0.094790
  0.996000,  0.089820
  0.998000,  0.067260
  1.000000,  0.043780
