# z (nm)   (kJ/mol)
  0.072000,265.612220
  0.074000,263.251810
  0.076000,260.923590
  0.078000,258.634660
  0.080000,258.999100
  0.082000,256.499490
  0.084000,253.830120
  0.086000,251.453030
  0.088000,248.933710
  0.090000,246.445290
  0.092000,243.871610
  0.094000,241.276300
  0.096000,238.631910
  0.098000,235.905490
  0.100000,233.087020
  0.102000,230.168010
  0.104000,227.126770
  0.106000,223.959380
  0.108000,220.656060
  0.110000,217.212770
  0.112000,213.633720
  0.114000,209.911080
  0.116000,206.054260
  0.118000,202.073590
  0.120000,197.982780
  0.122000,193.796740
  0.124000,189.537960
  0.126000,185.240030
  0.128000,180.943760
  0.130000,176.704060
  0.132000,172.581660
  0.134000,168.614410
  0.136000,164.810610
  0.138000,161.154710
  0.140000,157.604910
  0.142000,154.115120
  0.144000,150.665750
  0.146000,147.241870
  0.148000,143.840670
  0.150000,140.455650
  0.152000,137.088300
  0.154000,133.746740
  0.156000,130.433240
  0.158000,127.171420
  0.160000,123.971420
  0.162000,120.842610
  0.164000,117.790020
  0.166000,114.800860
  0.168000,111.860520
  0.170000,108.959350
  0.172000,106.081350
  0.174000,103.217480
  0.176000,100.360000
  0.178000, 97.508180
  0.180000, 94.651860
  0.182000, 91.800830
  0.184000, 88.961260
  0.186000, 86.151420
  0.188000, 83.392430
  0.190000, 80.700560
  0.192000, 78.084700
  0.194000, 75.543410
  0.196000, 73.077800
  0.198000, 70.667950
  0.200000, 68.298740
  0.202000, 65.959600
  0.204000, 63.638460
  0.206000, 61.328800
  0.208000, 59.041620
  0.210000, 56.783790
  0.212000, 54.549950
  0.214000, 52.347610
  0.216000, 50.175920
  0.218000, 48.039850
  0.220000, 45.951390
  0.222000, 43.916860
  0.224000, 41.940480
  0.226000, 40.025250
  0.228000, 38.171090
  0.230000, 36.380990
  0.232000, 34.644760
  0.234000, 32.959870
  0.236000, 31.326650
  0.238000, 29.724380
  0.240000, 28.146230
  0.242000, 26.565730
  0.244000, 25.000090
  0.246000, 23.461540
  0.248000, 21.941860
  0.250000, 20.483680
  0.252000, 19.080250
  0.254000, 17.724120
  0.256000, 16.389870
  0.258000, 15.065410
  0.260000, 13.746000
  0.262000, 12.439960
  0.264000, 11.170690
  0.266000,  9.954830
  0.268000,  8.808880
  0.270000,  7.729480
  0.272000,  6.724570
  0.274000,  5.769540
  0.276000,  4.859440
  0.278000,  3.964830
  0.280000,  3.088420
  0.282000,  2.232190
  0.284000,  1.386100
  0.286000,  0.564180
  0.288000, -0.229910
  0.290000, -0.991840
  0.292000, -1.718810
  0.294000, -2.402610
  0.296000, -3.048720
  0.298000, -3.654700
  0.300000, -4.217210
  0.302000, -4.736330
  0.304000, -5.227140
  0.306000, -5.696470
  0.308000, -6.138620
  0.310000, -6.560200
  0.312000, -6.958260
  0.314000, -7.336180
  0.316000, -7.699120
  0.318000, -8.041810
  0.320000, -8.361320
  0.322000, -8.654840
  0.324000, -8.925070
  0.326000, -9.166970
  0.328000, -9.383200
  0.330000, -9.564180
  0.332000, -9.723460
  0.334000, -9.862290
  0.336000, -9.971110
  0.338000,-10.056890
  0.340000,-10.120120
  0.342000,-10.171920
  0.344000,-10.205940
  0.346000,-10.219630
  0.348000,-10.209090
  0.350000,-10.191180
  0.352000,-10.168980
  0.354000,-10.138580
  0.356000,-10.104790
  0.358000,-10.062220
  0.360000,-10.014830
  0.362000, -9.957190
  0.364000, -9.910740
  0.366000, -9.850720
  0.368000, -9.784210
  0.370000, -9.710320
  0.372000, -9.628320
  0.374000, -9.541720
  0.376000, -9.452850
  0.378000, -9.369340
  0.380000, -9.274380
  0.382000, -9.188940
  0.384000, -9.092640
  0.386000, -8.989690
  0.388000, -8.886780
  0.390000, -8.781540
  0.392000, -8.667010
  0.394000, -8.557060
  0.396000, -8.441780
  0.398000, -8.327760
  0.400000, -8.208970
  0.402000, -8.076780
  0.404000, -7.946440
  0.406000, -7.804520
  0.408000, -7.660060
  0.410000, -7.522710
  0.412000, -7.385980
  0.414000, -7.251140
  0.416000, -7.121900
  0.418000, -6.999740
  0.420000, -6.882910
  0.422000, -6.774470
  0.424000, -6.659810
  0.426000, -6.541720
  0.428000, -6.431520
  0.430000, -6.323570
  0.432000, -6.214420
  0.434000, -6.110600
  0.436000, -6.006100
  0.438000, -5.904730
  0.440000, -5.805390
  0.442000, -5.700510
  0.444000, -5.585710
  0.446000, -5.458050
  0.448000, -5.322480
  0.450000, -5.178350
  0.452000, -5.025920
  0.454000, -4.879850
  0.456000, -4.739410
  0.458000, -4.616700
  0.460000, -4.512950
  0.462000, -4.421080
  0.464000, -4.342200
  0.466000, -4.268480
  0.468000, -4.199610
  0.470000, -4.118840
  0.472000, -4.030910
  0.474000, -3.942210
  0.476000, -3.834570
  0.478000, -3.711500
  0.480000, -3.582210
  0.482000, -3.448530
  0.484000, -3.306910
  0.486000, -3.165280
  0.488000, -3.032170
  0.490000, -2.907800
  0.492000, -2.789740
  0.494000, -2.683470
  0.496000, -2.589630
  0.498000, -2.503360
  0.500000, -2.420920
  0.502000, -2.349770
  0.504000, -2.269890
  0.506000, -2.187010
  0.508000, -2.091440
  0.510000, -1.986790
  0.512000, -1.864750
  0.514000, -1.742800
  0.516000, -1.607090
  0.518000, -1.466260
  0.520000, -1.325760
  0.522000, -1.182700
  0.524000, -1.045870
  0.526000, -0.903670
  0.528000, -0.761030
  0.530000, -0.620890
  0.532000, -0.493240
  0.534000, -0.359450
  0.536000, -0.222110
  0.538000, -0.074190
  0.540000,  0.084960
  0.542000,  0.244050
  0.544000,  0.399950
  0.546000,  0.567750
  0.548000,  0.736250
  0.550000,  0.898140
  0.552000,  1.046060
  0.554000,  1.190350
  0.556000,  1.313720
  0.558000,  1.421980
  0.560000,  1.523350
  0.562000,  1.619000
  0.564000,  1.713550
  0.566000,  1.801630
  0.568000,  1.892450
  0.570000,  1.981580
  0.572000,  2.069230
  0.574000,  2.153270
  0.576000,  2.233430
  0.578000,  2.301520
  0.580000,  2.362380
  0.582000,  2.403200
  0.584000,  2.441130
  0.586000,  2.470180
  0.588000,  2.483250
  0.590000,  2.486450
  0.592000,  2.477350
  0.594000,  2.461200
  0.596000,  2.432310
  0.598000,  2.400700
  0.600000,  2.360290
  0.602000,  2.308370
  0.604000,  2.245880
  0.606000,  2.183220
  0.608000,  2.121030
  0.610000,  2.063640
  0.612000,  2.009770
  0.614000,  1.959600
  0.616000,  1.912840
  0.618000,  1.869740
  0.620000,  1.819490
  0.622000,  1.764330
  0.624000,  1.701250
  0.626000,  1.626140
  0.628000,  1.542080
  0.630000,  1.449800
  0.632000,  1.359870
  0.634000,  1.263830
  0.636000,  1.164740
  0.638000,  1.080350
  0.640000,  1.000820
  0.642000,  0.932260
  0.644000,  0.869450
  0.646000,  0.803220
  0.648000,  0.747520
  0.650000,  0.682780
  0.652000,  0.621910
  0.654000,  0.560810
  0.656000,  0.493650
  0.658000,  0.429270
  0.660000,  0.369800
  0.662000,  0.316580
  0.664000,  0.269410
  0.666000,  0.234780
  0.668000,  0.202310
  0.670000,  0.179080
  0.672000,  0.162940
  0.674000,  0.150230
  0.676000,  0.137250
  0.678000,  0.121020
  0.680000,  0.101910
  0.682000,  0.091250
  0.684000,  0.070380
  0.686000,  0.054400
  0.688000,  0.044500
  0.690000,  0.038180
  0.692000,  0.036850
  0.694000,  0.042650
  0.696000,  0.050310
  0.698000,  0.056030
  0.700000,  0.069360
  0.702000,  0.087290
  0.704000,  0.096250
  0.706000,  0.099220
  0.708000,  0.095870
  0.710000,  0.093490
  0.712000,  0.094510
  0.714000,  0.096120
  0.716000,  0.102610
  0.718000,  0.116260
  0.720000,  0.138900
  0.722000,  0.157590
  0.724000,  0.177410
  0.726000,  0.189630
  0.728000,  0.200460
  0.730000,  0.200580
  0.732000,  0.196930
  0.734000,  0.188220
  0.736000,  0.176590
  0.738000,  0.165380
  0.740000,  0.158520
  0.742000,  0.153780
  0.744000,  0.159900
  0.746000,  0.175360
  0.748000,  0.194380
  0.750000,  0.219260
  0.752000,  0.245660
  0.754000,  0.273500
  0.756000,  0.299600
  0.758000,  0.324790
  0.760000,  0.345790
  0.762000,  0.367120
  0.764000,  0.376930
  0.766000,  0.389930
  0.768000,  0.402240
  0.770000,  0.412360
  0.772000,  0.414890
  0.774000,  0.421080
  0.776000,  0.426350
  0.778000,  0.435790
  0.780000,  0.440370
  0.782000,  0.452440
  0.784000,  0.456100
  0.786000,  0.458240
  0.788000,  0.461620
  0.790000,  0.471310
  0.792000,  0.480090
  0.794000,  0.493420
  0.796000,  0.507360
  0.798000,  0.518750
  0.800000,  0.530480
  0.802000,  0.551440
  0.804000,  0.566290
  0.806000,  0.588290
  0.808000,  0.602390
  0.810000,  0.627750
  0.812000,  0.647500
  0.814000,  0.673350
  0.816000,  0.700680
  0.818000,  0.712920
  0.820000,  0.729780
  0.822000,  0.746490
  0.824000,  0.740720
  0.826000,  0.720690
  0.828000,  0.698590
  0.830000,  0.669410
  0.832000,  0.640120
  0.834000,  0.612540
  0.836000,  0.589800
  0.838000,  0.576500
  0.840000,  0.568310
  0.842000,  0.566040
  0.844000,  0.574330
  0.846000,  0.587000
  0.848000,  0.598870
  0.850000,  0.611570
  0.852000,  0.617130
  0.854000,  0.612070
  0.856000,  0.597080
  0.858000,  0.575600
  0.860000,  0.553840
  0.862000,  0.520740
  0.864000,  0.488010
  0.866000,  0.455420
  0.868000,  0.424900
  0.870000,  0.398700
  0.872000,  0.386840
  0.874000,  0.379530
  0.876000,  0.374610
  0.878000,  0.376020
  0.880000,  0.382520
  0.882000,  0.389890
  0.884000,  0.392460
  0.886000,  0.394210
  0.888000,  0.391430
  0.890000,  0.383120
  0.892000,  0.369920
  0.894000,  0.357330
  0.896000,  0.343770
  0.898000,  0.325660
  0.900000,  0.311480
  0.902000,  0.299810
  0.904000,  0.288270
  0.906000,  0.279670
  0.908000,  0.264780
  0.910000,  0.254210
  0.912000,  0.241390
  0.914000,  0.232680
  0.916000,  0.214320
  0.918000,  0.190320
  0.920000,  0.162230
  0.922000,  0.136660
  0.924000,  0.110470
  0.926000,  0.085820
  0.928000,  0.058690
  0.930000,  0.038030
  0.932000,  0.025920
  0.934000,  0.013640
  0.936000, -0.001230
  0.938000, -0.015320
  0.940000, -0.024280
  0.942000, -0.031940
  0.944000, -0.038860
  0.946000, -0.045740
  0.948000, -0.055460
  0.950000, -0.068200
  0.952000, -0.078730
  0.954000, -0.085560
  0.956000, -0.101470
  0.958000, -0.106930
  0.960000, -0.117590
  0.962000, -0.125460
  0.964000, -0.131880
  0.966000, -0.139140
  0.968000, -0.145880
  0.970000, -0.147850
  0.972000, -0.148990
  0.974000, -0.145460
  0.976000, -0.143470
  0.978000, -0.138870
  0.980000, -0.124700
  0.982000, -0.113780
  0.984000, -0.104790
  0.986000, -0.094420
  0.988000, -0.080800
  0.990000, -0.074360
  0.992000, -0.063190
  0.994000, -0.058170
  0.996000, -0.052770
  0.998000, -0.048160
  1.000000, -0.043490
