# z (nm)   (kJ/mol)
  0.076000,250.951790
  0.078000,247.860680
  0.080000,245.619250
  0.082000,242.852450
  0.084000,240.340470
  0.086000,237.814640
  0.088000,235.405860
  0.090000,232.944400
  0.092000,230.400920
  0.094000,227.813950
  0.096000,225.132110
  0.098000,222.333890
  0.100000,219.395720
  0.102000,216.300430
  0.104000,213.030000
  0.106000,209.570680
  0.108000,205.917910
  0.110000,202.072250
  0.112000,198.048220
  0.114000,193.874680
  0.116000,189.574040
  0.118000,185.188900
  0.120000,180.770340
  0.122000,176.355880
  0.124000,171.972280
  0.126000,167.643750
  0.128000,163.379110
  0.130000,159.178920
  0.132000,155.039860
  0.134000,150.957820
  0.136000,146.938920
  0.138000,142.994790
  0.140000,139.144280
  0.142000,135.413260
  0.144000,131.811620
  0.146000,128.337790
  0.148000,124.984960
  0.150000,121.726820
  0.152000,118.544510
  0.154000,115.412350
  0.156000,112.305270
  0.158000,109.214570
  0.160000,106.137180
  0.162000,103.064680
  0.164000,100.002640
  0.166000, 96.951240
  0.168000, 93.904480
  0.170000, 90.853250
  0.172000, 87.798530
  0.174000, 84.759960
  0.176000, 81.644930
  0.178000, 78.913780
  0.180000, 76.089470
  0.182000, 73.269250
  0.184000, 70.435850
  0.186000, 67.604010
  0.188000, 64.794840
  0.190000, 62.041320
  0.192000, 59.367060
  0.194000, 56.776050
  0.196000, 54.255950
  0.198000, 51.774010
  0.200000, 49.306950
  0.202000, 46.832540
  0.204000, 44.346990
  0.206000, 41.877650
  0.208000, 39.440370
  0.210000, 37.067800
  0.212000, 34.778510
  0.214000, 32.576030
  0.216000, 30.461510
  0.218000, 28.420150
  0.220000, 26.429390
  0.222000, 24.471010
  0.224000, 22.535310
  0.226000, 20.606750
  0.228000, 18.692950
  0.230000, 16.814600
  0.232000, 14.974750
  0.234000, 13.188950
  0.236000, 11.471150
  0.238000,  9.808200
  0.240000,  8.222440
  0.242000,  6.684120
  0.244000,  5.202910
  0.246000,  3.776470
  0.248000,  2.406170
  0.250000,  1.098690
  0.252000, -0.147690
  0.254000, -1.325710
  0.256000, -2.438420
  0.258000, -3.513540
  0.260000, -4.532470
  0.262000, -5.507740
  0.264000, -6.444110
  0.266000, -7.330210
  0.268000, -8.163740
  0.270000, -8.936660
  0.272000, -9.649120
  0.274000,-10.309460
  0.276000,-10.939700
  0.278000,-11.555040
  0.280000,-12.175400
  0.282000,-12.804360
  0.284000,-13.442290
  0.286000,-14.089890
  0.288000,-14.744840
  0.290000,-15.403940
  0.292000,-16.074040
  0.294000,-16.739950
  0.296000,-17.399120
  0.298000,-18.055040
  0.300000,-18.694490
  0.302000,-19.319800
  0.304000,-19.925880
  0.306000,-20.504140
  0.308000,-21.057810
  0.310000,-21.589230
  0.312000,-22.091640
  0.314000,-22.561210
  0.316000,-23.002350
  0.318000,-23.407890
  0.320000,-23.774710
  0.322000,-24.097920
  0.324000,-24.382980
  0.326000,-24.633640
  0.328000,-24.848500
  0.330000,-25.024900
  0.332000,-25.160290
  0.334000,-25.262900
  0.336000,-25.337480
  0.338000,-25.383020
  0.340000,-25.415500
  0.342000,-25.438490
  0.344000,-25.453590
  0.346000,-25.459180
  0.348000,-25.445880
  0.350000,-25.419830
  0.352000,-25.366880
  0.354000,-25.295350
  0.356000,-25.198030
  0.358000,-25.072650
  0.360000,-24.930070
  0.362000,-24.786620
  0.364000,-24.654430
  0.366000,-24.540940
  0.368000,-24.447390
  0.370000,-24.385520
  0.372000,-24.341510
  0.374000,-24.330950
  0.376000,-24.345040
  0.378000,-24.392420
  0.380000,-24.464600
  0.382000,-24.568700
  0.384000,-24.694810
  0.386000,-24.843540
  0.388000,-25.005480
  0.390000,-25.176790
  0.392000,-25.367150
  0.394000,-25.573270
  0.396000,-25.784740
  0.398000,-25.998830
  0.400000,-26.203880
  0.402000,-26.386990
  0.404000,-26.545730
  0.406000,-26.680560
  0.408000,-26.790550
  0.410000,-26.871720
  0.412000,-26.932360
  0.414000,-26.975090
  0.416000,-26.994370
  0.418000,-26.991290
  0.420000,-26.971490
  0.422000,-26.926940
  0.424000,-26.858730
  0.426000,-26.757250
  0.428000,-26.643780
  0.430000,-26.497920
  0.432000,-26.326820
  0.434000,-26.129100
  0.436000,-25.905670
  0.438000,-25.654090
  0.440000,-25.380680
  0.442000,-25.088550
  0.444000,-24.779200
  0.446000,-24.454820
  0.448000,-24.113200
  0.450000,-23.745010
  0.452000,-23.333170
  0.454000,-22.882830
  0.456000,-22.401510
  0.458000,-21.899720
  0.460000,-21.392020
  0.462000,-20.886620
  0.464000,-20.391270
  0.466000,-19.892930
  0.468000,-19.390580
  0.470000,-18.880870
  0.472000,-18.366410
  0.474000,-17.848500
  0.476000,-17.337780
  0.478000,-16.831310
  0.480000,-16.335770
  0.482000,-15.865670
  0.484000,-15.434600
  0.486000,-15.045980
  0.488000,-14.704600
  0.490000,-14.404330
  0.492000,-14.137380
  0.494000,-13.903070
  0.496000,-13.669810
  0.498000,-13.450730
  0.500000,-13.224250
  0.502000,-12.994080
  0.504000,-12.751180
  0.506000,-12.503910
  0.508000,-12.243870
  0.510000,-11.976570
  0.512000,-11.686720
  0.514000,-11.399310
  0.516000,-11.091960
  0.518000,-10.776220
  0.520000,-10.447210
  0.522000,-10.105830
  0.524000, -9.769440
  0.526000, -9.417470
  0.528000, -9.060360
  0.530000, -8.697610
  0.532000, -8.316970
  0.534000, -7.917980
  0.536000, -7.502930
  0.538000, -7.066490
  0.540000, -6.618600
  0.542000, -6.177070
  0.544000, -5.740770
  0.546000, -5.330360
  0.548000, -4.943880
  0.550000, -4.579000
  0.552000, -4.227850
  0.554000, -3.879390
  0.556000, -3.542740
  0.558000, -3.206680
  0.560000, -2.886710
  0.562000, -2.590930
  0.564000, -2.332590
  0.566000, -2.108960
  0.568000, -1.936210
  0.570000, -1.812090
  0.572000, -1.735920
  0.574000, -1.709770
  0.576000, -1.715470
  0.578000, -1.748090
  0.580000, -1.801140
  0.582000, -1.861630
  0.584000, -1.921920
  0.586000, -1.984340
  0.588000, -2.055650
  0.590000, -2.131800
  0.592000, -2.211660
  0.594000, -2.302070
  0.596000, -2.391430
  0.598000, -2.488900
  0.600000, -2.583820
  0.602000, -2.666100
  0.604000, -2.727880
  0.606000, -2.785040
  0.608000, -2.829460
  0.610000, -2.864560
  0.612000, -2.907560
  0.614000, -2.949060
  0.616000, -2.989160
  0.618000, -3.031440
  0.620000, -3.071010
  0.622000, -3.103870
  0.624000, -3.132340
  0.626000, -3.154740
  0.628000, -3.165510
  0.630000, -3.159290
  0.632000, -3.156270
  0.634000, -3.147480
  0.636000, -3.133020
  0.638000, -3.126790
  0.640000, -3.117340
  0.642000, -3.118750
  0.644000, -3.121120
  0.646000, -3.112760
  0.648000, -3.095090
  0.650000, -3.066150
  0.652000, -3.036190
  0.654000, -2.995050
  0.656000, -2.949950
  0.658000, -2.902710
  0.660000, -2.854250
  0.662000, -2.803050
  0.664000, -2.760300
  0.666000, -2.713370
  0.668000, -2.669600
  0.670000, -2.622000
  0.672000, -2.575370
  0.674000, -2.531620
  0.676000, -2.486890
  0.678000, -2.438370
  0.680000, -2.379920
  0.682000, -2.308770
  0.684000, -2.226340
  0.686000, -2.134350
  0.688000, -2.038880
  0.690000, -1.942550
  0.692000, -1.850400
  0.694000, -1.761440
  0.696000, -1.687380
  0.698000, -1.618680
  0.700000, -1.562690
  0.702000, -1.505520
  0.704000, -1.458160
  0.706000, -1.416140
  0.708000, -1.383130
  0.710000, -1.344770
  0.712000, -1.321380
  0.714000, -1.303440
  0.716000, -1.285350
  0.718000, -1.265270
  0.720000, -1.252580
  0.722000, -1.231650
  0.724000, -1.206790
  0.726000, -1.166800
  0.728000, -1.120560
  0.730000, -1.068860
  0.732000, -1.018250
  0.734000, -0.966190
  0.736000, -0.909280
  0.738000, -0.851860
  0.740000, -0.784600
  0.742000, -0.722880
  0.744000, -0.656990
  0.746000, -0.596630
  0.748000, -0.552260
  0.750000, -0.525060
  0.752000, -0.515590
  0.754000, -0.523560
  0.756000, -0.542590
  0.758000, -0.570360
  0.760000, -0.598430
  0.762000, -0.628070
  0.764000, -0.646780
  0.766000, -0.656830
  0.768000, -0.649820
  0.770000, -0.635630
  0.772000, -0.610390
  0.774000, -0.583980
  0.776000, -0.549720
  0.778000, -0.516060
  0.780000, -0.480020
  0.782000, -0.445060
  0.784000, -0.409500
  0.786000, -0.377440
  0.788000, -0.354330
  0.790000, -0.337830
  0.792000, -0.335290
  0.794000, -0.345520
  0.796000, -0.378920
  0.798000, -0.427980
  0.800000, -0.489680
  0.802000, -0.549530
  0.804000, -0.605880
  0.806000, -0.630950
  0.808000, -0.617330
  0.810000, -0.572410
  0.812000, -0.513140
  0.814000, -0.446590
  0.816000, -0.386930
  0.818000, -0.355130
  0.820000, -0.353660
  0.822000, -0.373490
  0.824000, -0.415900
  0.826000, -0.472250
  0.828000, -0.527600
  0.830000, -0.577930
  0.832000, -0.616610
  0.834000, -0.638210
  0.836000, -0.645070
  0.838000, -0.638360
  0.840000, -0.620880
  0.842000, -0.606740
  0.844000, -0.593610
  0.846000, -0.570770
  0.848000, -0.552780
  0.850000, -0.544190
  0.852000, -0.547570
  0.854000, -0.546300
  0.856000, -0.552050
  0.858000, -0.566900
  0.860000, -0.576190
  0.862000, -0.585110
  0.864000, -0.590450
  0.866000, -0.591310
  0.868000, -0.587870
  0.870000, -0.590200
  0.872000, -0.587670
  0.874000, -0.590240
  0.876000, -0.599240
  0.878000, -0.614160
  0.880000, -0.628900
  0.882000, -0.640780
  0.884000, -0.645620
  0.886000, -0.644570
  0.888000, -0.637850
  0.890000, -0.628660
  0.892000, -0.608170
  0.894000, -0.590610
  0.896000, -0.560530
  0.898000, -0.542800
  0.900000, -0.525590
  0.902000, -0.513380
  0.904000, -0.502400
  0.906000, -0.501040
  0.908000, -0.492970
  0.910000, -0.484020
  0.912000, -0.468740
  0.914000, -0.441490
  0.916000, -0.414990
  0.918000, -0.386950
  0.920000, -0.358650
  0.922000, -0.329830
  0.924000, -0.299660
  0.926000, -0.280560
  0.928000, -0.262140
  0.930000, -0.240400
  0.932000, -0.225950
  0.934000, -0.199390
  0.936000, -0.176990
  0.938000, -0.142670
  0.940000, -0.100890
  0.942000, -0.057540
  0.944000, -0.009650
  0.946000,  0.038160
  0.948000,  0.077550
  0.950000,  0.109710
  0.952000,  0.127470
  0.954000,  0.127750
  0.956000,  0.123780
  0.958000,  0.114010
  0.960000,  0.099490
  0.962000,  0.085960
  0.964000,  0.085760
  0.966000,  0.091690
  0.968000,  0.107990
  0.970000,  0.138800
  0.972000,  0.183180
  0.974000,  0.236520
  0.976000,  0.289530
  0.978000,  0.347690
  0.980000,  0.400930
  0.982000,  0.444270
  0.984000,  0.480750
  0.986000,  0.498490
  0.988000,  0.498050
  0.990000,  0.483470
  0.992000,  0.443780
  0.994000,  0.394820
  0.996000,  0.338640
  0.998000,  0.285080
  1.000000,  0.236980
