# z (nm)   (kJ/mol)
  0.072000,261.703920
  0.074000,258.655240
  0.076000,256.214650
  0.078000,253.800910
  0.080000,251.304780
  0.082000,248.754990
  0.084000,246.226760
  0.086000,243.708680
  0.088000,241.159930
  0.090000,238.581330
  0.092000,235.944230
  0.094000,233.249430
  0.096000,230.470020
  0.098000,227.602970
  0.100000,224.623910
  0.102000,221.520450
  0.104000,218.288230
  0.106000,214.924240
  0.108000,211.422820
  0.110000,207.782240
  0.112000,204.010370
  0.114000,200.111790
  0.116000,196.108030
  0.118000,192.014530
  0.120000,187.858300
  0.122000,183.656280
  0.124000,179.440900
  0.126000,175.240840
  0.128000,171.068630
  0.130000,166.956590
  0.132000,162.911770
  0.134000,158.946010
  0.136000,155.064850
  0.138000,151.264990
  0.140000,147.550800
  0.142000,143.922040
  0.144000,140.385010
  0.146000,136.932880
  0.148000,133.564590
  0.150000,130.261600
  0.152000,127.006720
  0.154000,123.767570
  0.156000,120.544550
  0.158000,117.338500
  0.160000,114.170750
  0.162000,111.079430
  0.164000,108.092390
  0.166000,105.198880
  0.168000,102.370170
  0.170000, 99.545560
  0.172000, 96.690910
  0.174000, 93.796090
  0.176000, 90.865390
  0.178000, 87.959910
  0.180000, 85.113110
  0.182000, 82.358080
  0.184000, 79.691030
  0.186000, 77.091980
  0.188000, 74.524520
  0.190000, 71.959370
  0.192000, 69.389900
  0.194000, 66.818460
  0.196000, 64.264470
  0.198000, 61.766210
  0.200000, 59.358020
  0.202000, 57.065540
  0.204000, 54.890920
  0.206000, 52.825820
  0.208000, 50.828840
  0.210000, 48.860910
  0.212000, 46.896130
  0.214000, 44.915940
  0.216000, 42.918670
  0.218000, 40.926540
  0.220000, 38.959890
  0.222000, 37.042160
  0.224000, 35.198380
  0.226000, 33.422870
  0.228000, 31.718300
  0.230000, 30.069280
  0.232000, 28.448850
  0.234000, 26.851090
  0.236000, 25.257190
  0.238000, 23.682930
  0.240000, 22.125730
  0.242000, 20.605300
  0.244000, 19.132530
  0.246000, 17.717060
  0.248000, 16.363080
  0.250000, 15.083220
  0.252000, 13.866470
  0.254000, 12.698740
  0.256000, 11.570190
  0.258000, 10.463400
  0.260000,  9.369310
  0.262000,  8.284070
  0.264000,  7.216500
  0.266000,  6.162320
  0.268000,  5.145030
  0.270000,  4.173570
  0.272000,  3.249440
  0.274000,  2.377170
  0.276000,  1.565740
  0.278000,  0.805550
  0.280000,  0.090990
  0.282000, -0.593790
  0.284000, -1.252800
  0.286000, -1.895780
  0.288000, -2.529260
  0.290000, -3.159460
  0.292000, -3.774290
  0.294000, -4.369200
  0.296000, -4.933490
  0.298000, -5.458490
  0.300000, -5.928780
  0.302000, -6.353050
  0.304000, -6.722940
  0.306000, -7.050550
  0.308000, -7.336760
  0.310000, -7.601610
  0.312000, -7.847000
  0.314000, -8.084390
  0.316000, -8.308620
  0.318000, -8.526480
  0.320000, -8.734310
  0.322000, -8.917140
  0.324000, -9.085600
  0.326000, -9.224640
  0.328000, -9.347680
  0.330000, -9.448010
  0.332000, -9.530210
  0.334000, -9.600820
  0.336000, -9.654000
  0.338000, -9.692420
  0.340000, -9.709730
  0.342000, -9.715430
  0.344000, -9.706940
  0.346000, -9.680660
  0.348000, -9.637700
  0.350000, -9.571400
  0.352000, -9.502020
  0.354000, -9.418340
  0.356000, -9.322630
  0.358000, -9.227250
  0.360000, -9.132180
  0.362000, -9.038710
  0.364000, -8.944770
  0.366000, -8.860000
  0.368000, -8.780250
  0.370000, -8.702860
  0.372000, -8.632520
  0.374000, -8.569660
  0.376000, -8.506200
  0.378000, -8.438250
  0.380000, -8.376110
  0.382000, -8.296930
  0.384000, -8.199780
  0.386000, -8.085380
  0.388000, -7.951740
  0.390000, -7.812530
  0.392000, -7.667980
  0.394000, -7.528150
  0.396000, -7.407460
  0.398000, -7.308980
  0.400000, -7.217030
  0.402000, -7.134930
  0.404000, -7.058830
  0.406000, -6.985560
  0.408000, -6.895140
  0.410000, -6.791400
  0.412000, -6.678820
  0.414000, -6.551170
  0.416000, -6.403890
  0.418000, -6.238550
  0.420000, -6.057220
  0.422000, -5.874200
  0.424000, -5.682910
  0.426000, -5.498640
  0.428000, -5.327240
  0.430000, -5.159030
  0.432000, -5.003160
  0.434000, -4.855100
  0.436000, -4.713380
  0.438000, -4.573630
  0.440000, -4.436680
  0.442000, -4.298840
  0.444000, -4.160760
  0.446000, -4.026060
  0.448000, -3.885610
  0.450000, -3.746700
  0.452000, -3.608230
  0.454000, -3.465850
  0.456000, -3.332260
  0.458000, -3.187200
  0.460000, -3.044210
  0.462000, -2.902510
  0.464000, -2.762010
  0.466000, -2.615220
  0.468000, -2.470360
  0.470000, -2.336700
  0.472000, -2.206740
  0.474000, -2.080310
  0.476000, -1.972400
  0.478000, -1.868510
  0.480000, -1.772460
  0.482000, -1.685380
  0.484000, -1.597960
  0.486000, -1.505460
  0.488000, -1.402920
  0.490000, -1.295520
  0.492000, -1.171370
  0.494000, -1.052200
  0.496000, -0.926940
  0.498000, -0.797150
  0.500000, -0.678100
  0.502000, -0.551470
  0.504000, -0.437030
  0.506000, -0.338790
  0.508000, -0.247520
  0.510000, -0.169290
  0.512000, -0.106210
  0.514000, -0.048830
  0.516000,  0.001410
  0.518000,  0.054320
  0.520000,  0.115070
  0.522000,  0.181070
  0.524000,  0.256220
  0.526000,  0.342100
  0.528000,  0.429050
  0.530000,  0.525570
  0.532000,  0.621820
  0.534000,  0.718920
  0.536000,  0.803250
  0.538000,  0.884430
  0.540000,  0.954250
  0.542000,  1.012480
  0.544000,  1.066960
  0.546000,  1.098210
  0.548000,  1.121520
  0.550000,  1.129810
  0.552000,  1.125610
  0.554000,  1.112170
  0.556000,  1.094310
  0.558000,  1.071940
  0.560000,  1.049520
  0.562000,  1.025270
  0.564000,  1.010700
  0.566000,  0.998950
  0.568000,  0.986050
  0.570000,  0.971150
  0.572000,  0.953040
  0.574000,  0.931920
  0.576000,  0.901120
  0.578000,  0.859110
  0.580000,  0.811970
  0.582000,  0.761600
  0.584000,  0.702600
  0.586000,  0.646830
  0.588000,  0.595850
  0.590000,  0.546040
  0.592000,  0.502730
  0.594000,  0.448130
  0.596000,  0.392440
  0.598000,  0.341390
  0.600000,  0.271270
  0.602000,  0.190930
  0.604000,  0.105470
  0.606000,  0.013040
  0.608000, -0.073120
  0.610000, -0.158620
  0.612000, -0.234850
  0.614000, -0.297790
  0.616000, -0.352330
  0.618000, -0.395520
  0.620000, -0.432210
  0.622000, -0.466960
  0.624000, -0.488790
  0.626000, -0.529210
  0.628000, -0.563780
  0.630000, -0.602710
  0.632000, -0.634720
  0.634000, -0.675590
  0.636000, -0.704910
  0.638000, -0.734470
  0.640000, -0.755300
  0.642000, -0.774010
  0.644000, -0.797150
  0.646000, -0.821230
  0.648000, -0.848730
  0.650000, -0.888100
  0.652000, -0.918600
  0.654000, -0.969900
  0.656000, -1.015610
  0.658000, -1.053340
  0.660000, -1.090200
  0.662000, -1.117010
  0.664000, -1.135150
  0.666000, -1.149030
  0.668000, -1.164830
  0.670000, -1.180110
  0.672000, -1.203100
  0.674000, -1.225160
  0.676000, -1.251340
  0.678000, -1.271550
  0.680000, -1.284570
  0.682000, -1.294690
  0.684000, -1.288320
  0.686000, -1.274240
  0.688000, -1.260290
  0.690000, -1.241320
  0.692000, -1.226180
  0.694000, -1.219340
  0.696000, -1.220150
  0.698000, -1.219700
  0.700000, -1.227170
  0.702000, -1.228450
  0.704000, -1.225130
  0.706000, -1.217390
  0.708000, -1.196600
  0.710000, -1.170760
  0.712000, -1.131200
  0.714000, -1.091670
  0.716000, -1.044180
  0.718000, -0.990670
  0.720000, -0.930230
  0.722000, -0.875550
  0.724000, -0.816380
  0.726000, -0.764300
  0.728000, -0.722730
  0.730000, -0.680190
  0.732000, -0.651120
  0.734000, -0.626130
  0.736000, -0.594490
  0.738000, -0.574970
  0.740000, -0.552480
  0.742000, -0.529220
  0.744000, -0.509840
  0.746000, -0.484170
  0.748000, -0.454180
  0.750000, -0.424250
  0.752000, -0.395030
  0.754000, -0.362780
  0.756000, -0.334740
  0.758000, -0.310980
  0.760000, -0.282410
  0.762000, -0.255210
  0.764000, -0.225270
  0.766000, -0.182380
  0.768000, -0.134880
  0.770000, -0.085950
  0.772000, -0.022350
  0.774000,  0.037970
  0.776000,  0.104240
  0.778000,  0.157870
  0.780000,  0.197120
  0.782000,  0.222290
  0.784000,  0.239740
  0.786000,  0.248950
  0.788000,  0.250020
  0.790000,  0.246170
  0.792000,  0.253090
  0.794000,  0.255460
  0.796000,  0.268140
  0.798000,  0.286640
  0.800000,  0.309560
  0.802000,  0.341750
  0.804000,  0.380770
  0.806000,  0.424100
  0.808000,  0.475240
  0.810000,  0.528930
  0.812000,  0.581950
  0.814000,  0.627030
  0.816000,  0.673070
  0.818000,  0.700890
  0.820000,  0.717280
  0.822000,  0.712480
  0.824000,  0.695020
  0.826000,  0.668670
  0.828000,  0.651180
  0.830000,  0.633730
  0.832000,  0.632310
  0.834000,  0.634840
  0.836000,  0.641030
  0.838000,  0.646720
  0.840000,  0.658630
  0.842000,  0.661750
  0.844000,  0.660560
  0.846000,  0.663140
  0.848000,  0.658860
  0.850000,  0.658720
  0.852000,  0.666610
  0.854000,  0.686440
  0.856000,  0.711190
  0.858000,  0.736490
  0.860000,  0.762700
  0.862000,  0.784640
  0.864000,  0.801050
  0.866000,  0.803450
  0.868000,  0.789830
  0.870000,  0.760590
  0.872000,  0.716410
  0.874000,  0.662050
  0.876000,  0.600370
  0.878000,  0.546410
  0.880000,  0.498800
  0.882000,  0.464940
  0.884000,  0.451250
  0.886000,  0.443600
  0.888000,  0.448490
  0.890000,  0.466440
  0.892000,  0.476750
  0.894000,  0.488010
  0.896000,  0.494780
  0.898000,  0.494100
  0.900000,  0.487130
  0.902000,  0.468490
  0.904000,  0.443490
  0.906000,  0.414230
  0.908000,  0.383810
  0.910000,  0.349760
  0.912000,  0.325050
  0.914000,  0.294590
  0.916000,  0.270750
  0.918000,  0.247350
  0.920000,  0.224660
  0.922000,  0.204570
  0.924000,  0.186140
  0.926000,  0.161430
  0.928000,  0.138710
  0.930000,  0.117520
  0.932000,  0.099910
  0.934000,  0.082040
  0.936000,  0.076510
  0.938000,  0.069130
  0.940000,  0.070820
  0.942000,  0.072210
  0.944000,  0.076670
  0.946000,  0.078890
  0.948000,  0.077750
  0.950000,  0.064460
  0.952000,  0.020850
  0.954000, -0.041330
  0.956000, -0.121090
  0.958000, -0.213620
  0.960000, -0.299870
  0.962000, -0.363770
  0.964000, -0.401140
  0.966000, -0.398300
  0.968000, -0.352870
  0.970000, -0.276600
  0.972000, -0.190350
  0.974000, -0.109440
  0.976000, -0.055950
  0.978000, -0.026560
  0.980000, -0.026990
  0.982000, -0.049510
  0.984000, -0.092720
  0.986000, -0.144400
  0.988000, -0.195200
  0.990000, -0.239340
  0.992000, -0.272360
  0.994000, -0.285410
  0.996000, -0.291170
  0.998000, -0.289680
  1.000000, -0.282130
