# z (nm)   (kJ/mol)
  0.074000,261.727210
  0.076000,258.462430
  0.078000,255.407130
  0.080000,252.698450
  0.082000,250.099490
  0.084000,247.531030
  0.086000,244.930880
  0.088000,242.304290
  0.090000,239.633650
  0.092000,236.907590
  0.094000,234.091430
  0.096000,231.164660
  0.098000,228.105640
  0.100000,224.893320
  0.102000,221.519370
  0.104000,217.977490
  0.106000,214.262420
  0.108000,210.404810
  0.110000,206.422530
  0.112000,202.354710
  0.114000,198.228900
  0.116000,194.076550
  0.118000,189.919060
  0.120000,185.775620
  0.122000,181.639870
  0.124000,177.516370
  0.126000,173.396840
  0.128000,169.290890
  0.130000,165.216030
  0.132000,161.212740
  0.134000,157.327960
  0.136000,153.576590
  0.138000,149.939430
  0.140000,146.364650
  0.142000,142.802900
  0.144000,139.227530
  0.146000,135.656900
  0.148000,132.124630
  0.150000,128.664940
  0.152000,125.313820
  0.154000,122.068730
  0.156000,118.929180
  0.158000,115.864010
  0.160000,112.832840
  0.162000,109.812630
  0.164000,106.781010
  0.166000,103.715080
  0.168000,100.610490
  0.170000, 97.473550
  0.172000, 94.311340
  0.174000, 91.147650
  0.176000, 88.003140
  0.178000, 84.899490
  0.180000, 81.855950
  0.182000, 78.881220
  0.184000, 75.989830
  0.186000, 73.179150
  0.188000, 70.449600
  0.190000, 67.801540
  0.192000, 65.232010
  0.194000, 62.730960
  0.196000, 60.284340
  0.198000, 57.884530
  0.200000, 55.523450
  0.202000, 53.187360
  0.204000, 50.856630
  0.206000, 48.539620
  0.208000, 46.232470
  0.210000, 43.940880
  0.212000, 41.675630
  0.214000, 39.442760
  0.216000, 37.260580
  0.218000, 35.126040
  0.220000, 33.065100
  0.222000, 31.075310
  0.224000, 29.156640
  0.226000, 27.305490
  0.228000, 25.501590
  0.230000, 23.757770
  0.232000, 22.067130
  0.234000, 20.407330
  0.236000, 18.778860
  0.238000, 17.186490
  0.240000, 15.622000
  0.242000, 14.090700
  0.244000, 12.595350
  0.246000, 11.136970
  0.248000,  9.722950
  0.250000,  8.354150
  0.252000,  7.049770
  0.254000,  5.814010
  0.256000,  4.641230
  0.258000,  3.522280
  0.260000,  2.434850
  0.262000,  1.371440
  0.264000,  0.317890
  0.266000, -0.726800
  0.268000, -1.748480
  0.270000, -2.734350
  0.272000, -3.678390
  0.274000, -4.566350
  0.276000, -5.406610
  0.278000, -6.187700
  0.280000, -6.923730
  0.282000, -7.629760
  0.284000, -8.316110
  0.286000, -8.982840
  0.288000, -9.625790
  0.290000,-10.225830
  0.292000,-10.777140
  0.294000,-11.262880
  0.296000,-11.690290
  0.298000,-12.069720
  0.300000,-12.438930
  0.302000,-12.792930
  0.304000,-13.151960
  0.306000,-13.506930
  0.308000,-13.841770
  0.310000,-14.148710
  0.312000,-14.409550
  0.314000,-14.610730
  0.316000,-14.750790
  0.318000,-14.839070
  0.320000,-14.869360
  0.322000,-14.845460
  0.324000,-14.792660
  0.326000,-14.727040
  0.328000,-14.663150
  0.330000,-14.640150
  0.332000,-14.653840
  0.334000,-14.708980
  0.336000,-14.776070
  0.338000,-14.835490
  0.340000,-14.831630
  0.342000,-14.755550
  0.344000,-14.581940
  0.346000,-14.337700
  0.348000,-14.042980
  0.350000,-13.758810
  0.352000,-13.493690
  0.354000,-13.265790
  0.356000,-13.072710
  0.358000,-12.901730
  0.360000,-12.737250
  0.362000,-12.560240
  0.364000,-12.359760
  0.366000,-12.131620
  0.368000,-11.894840
  0.370000,-11.644290
  0.372000,-11.395610
  0.374000,-11.145810
  0.376000,-10.901760
  0.378000,-10.650820
  0.380000,-10.419730
  0.382000,-10.185670
  0.384000, -9.966060
  0.386000, -9.752220
  0.388000, -9.549920
  0.390000, -9.355490
  0.392000, -9.182880
  0.394000, -9.031490
  0.396000, -8.896940
  0.398000, -8.789690
  0.400000, -8.692720
  0.402000, -8.612040
  0.404000, -8.543170
  0.406000, -8.477550
  0.408000, -8.395540
  0.410000, -8.312610
  0.412000, -8.226320
  0.414000, -8.128440
  0.416000, -8.022290
  0.418000, -7.915310
  0.420000, -7.807550
  0.422000, -7.714160
  0.424000, -7.635910
  0.426000, -7.564500
  0.428000, -7.511440
  0.430000, -7.462360
  0.432000, -7.421970
  0.434000, -7.374340
  0.436000, -7.305750
  0.438000, -7.224000
  0.440000, -7.128300
  0.442000, -7.012300
  0.444000, -6.888640
  0.446000, -6.776920
  0.448000, -6.669250
  0.450000, -6.580270
  0.452000, -6.517610
  0.454000, -6.470260
  0.456000, -6.436920
  0.458000, -6.404620
  0.460000, -6.369780
  0.462000, -6.329230
  0.464000, -6.269990
  0.466000, -6.198050
  0.468000, -6.101080
  0.470000, -5.997110
  0.472000, -5.884220
  0.474000, -5.770360
  0.476000, -5.665250
  0.478000, -5.571710
  0.480000, -5.497960
  0.482000, -5.436510
  0.484000, -5.386240
  0.486000, -5.334430
  0.488000, -5.276160
  0.490000, -5.200020
  0.492000, -5.099990
  0.494000, -4.973660
  0.496000, -4.828160
  0.498000, -4.665830
  0.500000, -4.501400
  0.502000, -4.346040
  0.504000, -4.208470
  0.506000, -4.085320
  0.508000, -3.978430
  0.510000, -3.902140
  0.512000, -3.835490
  0.514000, -3.774920
  0.516000, -3.717450
  0.518000, -3.655400
  0.520000, -3.588920
  0.522000, -3.506210
  0.524000, -3.407710
  0.526000, -3.303330
  0.528000, -3.189140
  0.530000, -3.073550
  0.532000, -2.959260
  0.534000, -2.853350
  0.536000, -2.755280
  0.538000, -2.658510
  0.540000, -2.581150
  0.542000, -2.509570
  0.544000, -2.430130
  0.546000, -2.346530
  0.548000, -2.256020
  0.550000, -2.157910
  0.552000, -2.053050
  0.554000, -1.928220
  0.556000, -1.801470
  0.558000, -1.666510
  0.560000, -1.526180
  0.562000, -1.384950
  0.564000, -1.238290
  0.566000, -1.101610
  0.568000, -0.968850
  0.570000, -0.830890
  0.572000, -0.703190
  0.574000, -0.582050
  0.576000, -0.461540
  0.578000, -0.348990
  0.580000, -0.235900
  0.582000, -0.133130
  0.584000, -0.034820
  0.586000,  0.059270
  0.588000,  0.139650
  0.590000,  0.215450
  0.592000,  0.279470
  0.594000,  0.332950
  0.596000,  0.377660
  0.598000,  0.405550
  0.600000,  0.425570
  0.602000,  0.432450
  0.604000,  0.432490
  0.606000,  0.430260
  0.608000,  0.419840
  0.610000,  0.404900
  0.612000,  0.398470
  0.614000,  0.387900
  0.616000,  0.370270
  0.618000,  0.346660
  0.620000,  0.319200
  0.622000,  0.277770
  0.624000,  0.229720
  0.626000,  0.166460
  0.628000,  0.103020
  0.630000,  0.031420
  0.632000, -0.044010
  0.634000, -0.104910
  0.636000, -0.154450
  0.638000, -0.194960
  0.640000, -0.220080
  0.642000, -0.234630
  0.644000, -0.234210
  0.646000, -0.231050
  0.648000, -0.217770
  0.650000, -0.208560
  0.652000, -0.210600
  0.654000, -0.222980
  0.656000, -0.246560
  0.658000, -0.279640
  0.660000, -0.334440
  0.662000, -0.394800
  0.664000, -0.457410
  0.666000, -0.510950
  0.668000, -0.566010
  0.670000, -0.609140
  0.672000, -0.639300
  0.674000, -0.656120
  0.676000, -0.666610
  0.678000, -0.680560
  0.680000, -0.701190
  0.682000, -0.721220
  0.684000, -0.756040
  0.686000, -0.798170
  0.688000, -0.852990
  0.690000, -0.907460
  0.692000, -0.957810
  0.694000, -0.998240
  0.696000, -1.030760
  0.698000, -1.055960
  0.700000, -1.060940
  0.702000, -1.050010
  0.704000, -1.031600
  0.706000, -1.011670
  0.708000, -0.986470
  0.710000, -0.963730
  0.712000, -0.945970
  0.714000, -0.934150
  0.716000, -0.933860
  0.718000, -0.953450
  0.720000, -0.980970
  0.722000, -1.017890
  0.724000, -1.059150
  0.726000, -1.103390
  0.728000, -1.145690
  0.730000, -1.178830
  0.732000, -1.212800
  0.734000, -1.241950
  0.736000, -1.257030
  0.738000, -1.263330
  0.740000, -1.259410
  0.742000, -1.251400
  0.744000, -1.234150
  0.746000, -1.204790
  0.748000, -1.175010
  0.750000, -1.133080
  0.752000, -1.091280
  0.754000, -1.053400
  0.756000, -1.022910
  0.758000, -0.997670
  0.760000, -0.983310
  0.762000, -0.984020
  0.764000, -0.987590
  0.766000, -1.000460
  0.768000, -1.014460
  0.770000, -1.026130
  0.772000, -1.035610
  0.774000, -1.032920
  0.776000, -1.020710
  0.778000, -0.992580
  0.780000, -0.961360
  0.782000, -0.922520
  0.784000, -0.872800
  0.786000, -0.823150
  0.788000, -0.774900
  0.790000, -0.728220
  0.792000, -0.682620
  0.794000, -0.645070
  0.796000, -0.614820
  0.798000, -0.599160
  0.800000, -0.590950
  0.802000, -0.590260
  0.804000, -0.593530
  0.806000, -0.604960
  0.808000, -0.621220
  0.810000, -0.635300
  0.812000, -0.648690
  0.814000, -0.653990
  0.816000, -0.650360
  0.818000, -0.648750
  0.820000, -0.642690
  0.822000, -0.627380
  0.824000, -0.615420
  0.826000, -0.602880
  0.828000, -0.592300
  0.830000, -0.581470
  0.832000, -0.567780
  0.834000, -0.553220
  0.836000, -0.534330
  0.838000, -0.506110
  0.840000, -0.484720
  0.842000, -0.454440
  0.844000, -0.419170
  0.846000, -0.382850
  0.848000, -0.349510
  0.850000, -0.317910
  0.852000, -0.296990
  0.854000, -0.275890
  0.856000, -0.268990
  0.858000, -0.253870
  0.860000, -0.248260
  0.862000, -0.235780
  0.864000, -0.224340
  0.866000, -0.208030
  0.868000, -0.185890
  0.870000, -0.156630
  0.872000, -0.127830
  0.874000, -0.101580
  0.876000, -0.074060
  0.878000, -0.046210
  0.880000, -0.026050
  0.882000, -0.009640
  0.884000,  0.009590
  0.886000,  0.025490
  0.888000,  0.045600
  0.890000,  0.056880
  0.892000,  0.075990
  0.894000,  0.099840
  0.896000,  0.118410
  0.898000,  0.136160
  0.900000,  0.150220
  0.902000,  0.162160
  0.904000,  0.164460
  0.906000,  0.152870
  0.908000,  0.145710
  0.910000,  0.138270
  0.912000,  0.122500
  0.914000,  0.107660
  0.916000,  0.097430
  0.918000,  0.087400
  0.920000,  0.076830
  0.922000,  0.071840
  0.924000,  0.066620
  0.926000,  0.067040
  0.928000,  0.067640
  0.930000,  0.067690
  0.932000,  0.064500
  0.934000,  0.064230
  0.936000,  0.066040
  0.938000,  0.062850
  0.940000,  0.062670
  0.942000,  0.057850
  0.944000,  0.047300
  0.946000,  0.033790
  0.948000,  0.015650
  0.950000, -0.001850
  0.952000, -0.028450
  0.954000, -0.059180
  0.956000, -0.087640
  0.958000, -0.111480
  0.960000, -0.125660
  0.962000, -0.132620
  0.964000, -0.119930
  0.966000, -0.106470
  0.968000, -0.091320
  0.970000, -0.066370
  0.972000, -0.039160
  0.974000, -0.012400
  0.976000,  0.005410
  0.978000,  0.011470
  0.980000,  0.013160
  0.982000,  0.005640
  0.984000, -0.008650
  0.986000, -0.032460
  0.988000, -0.065230
  0.990000, -0.092690
  0.992000, -0.125310
  0.994000, -0.164000
  0.996000, -0.191030
  0.998000, -0.212020
  1.000000, -0.232730
