# z (nm)   (kJ/mol)
  0.080000,263.938120
  0.082000,260.492630
  0.084000,257.557920
  0.086000,254.839220
  0.088000,252.474510
  0.090000,250.009690
  0.092000,247.584660
  0.094000,245.165600
  0.096000,242.715050
  0.098000,240.206410
  0.100000,237.636180
  0.102000,234.978460
  0.104000,232.221790
  0.106000,229.344400
  0.108000,226.351640
  0.110000,223.213950
  0.112000,219.930690
  0.114000,216.492960
  0.116000,212.895220
  0.118000,209.133700
  0.120000,205.209670
  0.122000,201.127960
  0.124000,196.904850
  0.126000,192.565310
  0.128000,188.143340
  0.130000,183.682110
  0.132000,179.223620
  0.134000,174.803300
  0.136000,170.463140
  0.138000,166.218000
  0.140000,162.100460
  0.142000,158.116960
  0.144000,154.278760
  0.146000,150.579950
  0.148000,147.001560
  0.150000,143.515140
  0.152000,140.093020
  0.154000,136.706890
  0.156000,133.337800
  0.158000,129.990800
  0.160000,126.671950
  0.162000,123.406610
  0.164000,120.210540
  0.166000,117.088050
  0.168000,114.029970
  0.170000,111.005090
  0.172000,107.973480
  0.174000,104.903260
  0.176000,101.787680
  0.178000, 98.623910
  0.180000, 95.439630
  0.182000, 92.281340
  0.184000, 89.191180
  0.186000, 86.188100
  0.188000, 83.281090
  0.190000, 80.461660
  0.192000, 77.706080
  0.194000, 74.995810
  0.196000, 72.311900
  0.198000, 69.653870
  0.200000, 67.038410
  0.202000, 64.465030
  0.204000, 61.950720
  0.206000, 59.504010
  0.208000, 57.111250
  0.210000, 54.762190
  0.212000, 52.446810
  0.214000, 50.158100
  0.216000, 47.870500
  0.218000, 45.606200
  0.220000, 43.365180
  0.222000, 41.171450
  0.224000, 39.035070
  0.226000, 36.964260
  0.228000, 34.974600
  0.230000, 33.068810
  0.232000, 31.242930
  0.234000, 29.479860
  0.236000, 27.761660
  0.238000, 26.061340
  0.240000, 24.372700
  0.242000, 22.697130
  0.244000, 21.033650
  0.246000, 19.385620
  0.248000, 17.765670
  0.250000, 16.202030
  0.252000, 14.704230
  0.254000, 13.271240
  0.256000, 11.909850
  0.258000, 10.608140
  0.260000,  9.361570
  0.262000,  8.144530
  0.264000,  6.965920
  0.266000,  5.820560
  0.268000,  4.697150
  0.270000,  3.594490
  0.272000,  2.540190
  0.274000,  1.524720
  0.276000,  0.560790
  0.278000, -0.350780
  0.280000, -1.205430
  0.282000, -2.003570
  0.284000, -2.755730
  0.286000, -3.481330
  0.288000, -4.182450
  0.290000, -4.855170
  0.292000, -5.507900
  0.294000, -6.135170
  0.296000, -6.717290
  0.298000, -7.260650
  0.300000, -7.745450
  0.302000, -8.176710
  0.304000, -8.543950
  0.306000, -8.874600
  0.308000, -9.158390
  0.310000, -9.418090
  0.312000, -9.654380
  0.314000, -9.879140
  0.316000,-10.088270
  0.318000,-10.286650
  0.320000,-10.464060
  0.322000,-10.613420
  0.324000,-10.739820
  0.326000,-10.822270
  0.328000,-10.867910
  0.330000,-10.867940
  0.332000,-10.839330
  0.334000,-10.774450
  0.336000,-10.686090
  0.338000,-10.576870
  0.340000,-10.450730
  0.342000,-10.319070
  0.344000,-10.171920
  0.346000,-10.027670
  0.348000, -9.874970
  0.350000, -9.714420
  0.352000, -9.547910
  0.354000, -9.365290
  0.356000, -9.164640
  0.358000, -8.941380
  0.360000, -8.695350
  0.362000, -8.437930
  0.364000, -8.156140
  0.366000, -7.871760
  0.368000, -7.579380
  0.370000, -7.283660
  0.372000, -6.996010
  0.374000, -6.726170
  0.376000, -6.462700
  0.378000, -6.208760
  0.380000, -5.967330
  0.382000, -5.728030
  0.384000, -5.495510
  0.386000, -5.254930
  0.388000, -5.000320
  0.390000, -4.741770
  0.392000, -4.469660
  0.394000, -4.184090
  0.396000, -3.906680
  0.398000, -3.636260
  0.400000, -3.362230
  0.402000, -3.097300
  0.404000, -2.850030
  0.406000, -2.624220
  0.408000, -2.408600
  0.410000, -2.211610
  0.412000, -2.030780
  0.414000, -1.865540
  0.416000, -1.705090
  0.418000, -1.546670
  0.420000, -1.392260
  0.422000, -1.234210
  0.424000, -1.072500
  0.426000, -0.901220
  0.428000, -0.724500
  0.430000, -0.555250
  0.432000, -0.391330
  0.434000, -0.235650
  0.436000, -0.092600
  0.438000,  0.031940
  0.440000,  0.139420
  0.442000,  0.232300
  0.444000,  0.316020
  0.446000,  0.384450
  0.448000,  0.446980
  0.450000,  0.509390
  0.452000,  0.572820
  0.454000,  0.648070
  0.456000,  0.724010
  0.458000,  0.814130
  0.460000,  0.894210
  0.462000,  0.976490
  0.464000,  1.059210
  0.466000,  1.130160
  0.468000,  1.190070
  0.470000,  1.245380
  0.472000,  1.296600
  0.474000,  1.337900
  0.476000,  1.373720
  0.478000,  1.404330
  0.480000,  1.424840
  0.482000,  1.436650
  0.484000,  1.443640
  0.486000,  1.448370
  0.488000,  1.451310
  0.490000,  1.455890
  0.492000,  1.464560
  0.494000,  1.472080
  0.496000,  1.478890
  0.498000,  1.475920
  0.500000,  1.468250
  0.502000,  1.438730
  0.504000,  1.398640
  0.506000,  1.338920
  0.508000,  1.276660
  0.510000,  1.201660
  0.512000,  1.106460
  0.514000,  1.013910
  0.516000,  0.926190
  0.518000,  0.838430
  0.520000,  0.756620
  0.522000,  0.689420
  0.524000,  0.637840
  0.526000,  0.607320
  0.528000,  0.594280
  0.530000,  0.603310
  0.532000,  0.633060
  0.534000,  0.673290
  0.536000,  0.731640
  0.538000,  0.805640
  0.540000,  0.882260
  0.542000,  0.958100
  0.544000,  1.037550
  0.546000,  1.113140
  0.548000,  1.195840
  0.550000,  1.277330
  0.552000,  1.358700
  0.554000,  1.444600
  0.556000,  1.539140
  0.558000,  1.640500
  0.560000,  1.743020
  0.562000,  1.849630
  0.564000,  1.957790
  0.566000,  2.067770
  0.568000,  2.175960
  0.570000,  2.278850
  0.572000,  2.383890
  0.574000,  2.490970
  0.576000,  2.589880
  0.578000,  2.677240
  0.580000,  2.756410
  0.582000,  2.837760
  0.584000,  2.916510
  0.586000,  2.976150
  0.588000,  3.027920
  0.590000,  3.067540
  0.592000,  3.094000
  0.594000,  3.111000
  0.596000,  3.118590
  0.598000,  3.117900
  0.600000,  3.105800
  0.602000,  3.091480
  0.604000,  3.056210
  0.606000,  3.011560
  0.608000,  2.947870
  0.610000,  2.874490
  0.612000,  2.785590
  0.614000,  2.693340
  0.616000,  2.594540
  0.618000,  2.492490
  0.620000,  2.386850
  0.622000,  2.286360
  0.624000,  2.181500
  0.626000,  2.081650
  0.628000,  1.973200
  0.630000,  1.858820
  0.632000,  1.736100
  0.634000,  1.615490
  0.636000,  1.495120
  0.638000,  1.375740
  0.640000,  1.267450
  0.642000,  1.172100
  0.644000,  1.094930
  0.646000,  1.035010
  0.648000,  0.985420
  0.650000,  0.940440
  0.652000,  0.896230
  0.654000,  0.843050
  0.656000,  0.785630
  0.658000,  0.718140
  0.660000,  0.643320
  0.662000,  0.571280
  0.664000,  0.492840
  0.666000,  0.416080
  0.668000,  0.346130
  0.670000,  0.279680
  0.672000,  0.217920
  0.674000,  0.172950
  0.676000,  0.135870
  0.678000,  0.113980
  0.680000,  0.099310
  0.682000,  0.100030
  0.684000,  0.113380
  0.686000,  0.140530
  0.688000,  0.177290
  0.690000,  0.217330
  0.692000,  0.256270
  0.694000,  0.285110
  0.696000,  0.304540
  0.698000,  0.308140
  0.700000,  0.286970
  0.702000,  0.251600
  0.704000,  0.195360
  0.706000,  0.123660
  0.708000,  0.046270
  0.710000, -0.032720
  0.712000, -0.101670
  0.714000, -0.148030
  0.716000, -0.161080
  0.718000, -0.144650
  0.720000, -0.102150
  0.722000, -0.032280
  0.724000,  0.041550
  0.726000,  0.111950
  0.728000,  0.165020
  0.730000,  0.192230
  0.732000,  0.190350
  0.734000,  0.152950
  0.736000,  0.073240
  0.738000, -0.036760
  0.740000, -0.176990
  0.742000, -0.319560
  0.744000, -0.449990
  0.746000, -0.542960
  0.748000, -0.577760
  0.750000, -0.547230
  0.752000, -0.462080
  0.754000, -0.324240
  0.756000, -0.166590
  0.758000, -0.008230
  0.760000,  0.127660
  0.762000,  0.219880
  0.764000,  0.264430
  0.766000,  0.256990
  0.768000,  0.215110
  0.770000,  0.148960
  0.772000,  0.078050
  0.774000,  0.010180
  0.776000, -0.038240
  0.778000, -0.070970
  0.780000, -0.083730
  0.782000, -0.064070
  0.784000, -0.032430
  0.786000,  0.010490
  0.788000,  0.066520
  0.790000,  0.129670
  0.792000,  0.188230
  0.794000,  0.248240
  0.796000,  0.303370
  0.798000,  0.343580
  0.800000,  0.377540
  0.802000,  0.396050
  0.804000,  0.404730
  0.806000,  0.391020
  0.808000,  0.360590
  0.810000,  0.319560
  0.812000,  0.274240
  0.814000,  0.224180
  0.816000,  0.180820
  0.818000,  0.136650
  0.820000,  0.107960
  0.822000,  0.087060
  0.824000,  0.079620
  0.826000,  0.081760
  0.828000,  0.103440
  0.830000,  0.130210
  0.832000,  0.163460
  0.834000,  0.200420
  0.836000,  0.233820
  0.838000,  0.266030
  0.840000,  0.292940
  0.842000,  0.310970
  0.844000,  0.317030
  0.846000,  0.313760
  0.848000,  0.302460
  0.850000,  0.280420
  0.852000,  0.253530
  0.854000,  0.223160
  0.856000,  0.198140
  0.858000,  0.179460
  0.860000,  0.167000
  0.862000,  0.160870
  0.864000,  0.171050
  0.866000,  0.193610
  0.868000,  0.226240
  0.870000,  0.264170
  0.872000,  0.299920
  0.874000,  0.348170
  0.876000,  0.384380
  0.878000,  0.413750
  0.880000,  0.432380
  0.882000,  0.443410
  0.884000,  0.447660
  0.886000,  0.438660
  0.888000,  0.424120
  0.890000,  0.412520
  0.892000,  0.404060
  0.894000,  0.397550
  0.896000,  0.394330
  0.898000,  0.397900
  0.900000,  0.406970
  0.902000,  0.413080
  0.904000,  0.416020
  0.906000,  0.408170
  0.908000,  0.396410
  0.910000,  0.376850
  0.912000,  0.343310
  0.914000,  0.308870
  0.916000,  0.278410
  0.918000,  0.252450
  0.920000,  0.228620
  0.922000,  0.216420
  0.924000,  0.211080
  0.926000,  0.215200
  0.928000,  0.213000
  0.930000,  0.208280
  0.932000,  0.201120
  0.934000,  0.187710
  0.936000,  0.167550
  0.938000,  0.144680
  0.940000,  0.113010
  0.942000,  0.077940
  0.944000,  0.041060
  0.946000,  0.000680
  0.948000, -0.044010
  0.950000, -0.084080
  0.952000, -0.115260
  0.954000, -0.138730
  0.956000, -0.157580
  0.958000, -0.161390
  0.960000, -0.155980
  0.962000, -0.141620
  0.964000, -0.128070
  0.966000, -0.110340
  0.968000, -0.093170
  0.970000, -0.081850
  0.972000, -0.077780
  0.974000, -0.080810
  0.976000, -0.086500
  0.978000, -0.113580
  0.980000, -0.140300
  0.982000, -0.177550
  0.984000, -0.214320
  0.986000, -0.258720
  0.988000, -0.304640
  0.990000, -0.341220
  0.992000, -0.383550
  0.994000, -0.419650
  0.996000, -0.451800
  0.998000, -0.472120
  1.000000, -0.485290
