# z (nm)   (kJ/mol)
  0.114000,263.176190
  0.116000,257.732210
  0.118000,254.763360
  0.120000,251.879890
  0.122000,249.097580
  0.124000,246.242780
  0.126000,243.403400
  0.128000,240.484790
  0.130000,237.502470
  0.132000,234.448880
  0.134000,231.280450
  0.136000,227.998390
  0.138000,224.593240
  0.140000,221.062050
  0.142000,217.400350
  0.144000,213.632360
  0.146000,209.761730
  0.148000,205.812920
  0.150000,201.805400
  0.152000,197.754480
  0.154000,193.681160
  0.156000,189.593660
  0.158000,185.492230
  0.160000,181.387800
  0.162000,177.280440
  0.164000,173.174640
  0.166000,169.068320
  0.168000,164.982650
  0.170000,160.930060
  0.172000,156.929920
  0.174000,153.007860
  0.176000,149.179950
  0.178000,145.469900
  0.180000,141.886200
  0.182000,138.415580
  0.184000,135.041590
  0.186000,131.736330
  0.188000,128.460540
  0.190000,125.194040
  0.192000,121.921300
  0.194000,118.651210
  0.196000,115.403390
  0.198000,112.217390
  0.200000,109.124050
  0.202000,106.146420
  0.204000,103.288690
  0.206000,100.540670
  0.208000, 97.872580
  0.210000, 95.247370
  0.212000, 92.641180
  0.214000, 90.026880
  0.216000, 87.398910
  0.218000, 84.761340
  0.220000, 82.116060
  0.222000, 79.478980
  0.224000, 76.866820
  0.226000, 74.292820
  0.228000, 71.772560
  0.230000, 69.314950
  0.232000, 66.935740
  0.234000, 64.634820
  0.236000, 62.408860
  0.238000, 60.241630
  0.240000, 58.128230
  0.242000, 56.054480
  0.244000, 54.009890
  0.246000, 52.004690
  0.248000, 50.044120
  0.250000, 48.129510
  0.252000, 46.280270
  0.254000, 44.475330
  0.256000, 42.692070
  0.258000, 40.917420
  0.260000, 39.138110
  0.262000, 37.348510
  0.264000, 35.596560
  0.266000, 33.915380
  0.268000, 32.343650
  0.270000, 30.870980
  0.272000, 29.474210
  0.274000, 28.129690
  0.276000, 26.806430
  0.278000, 25.503780
  0.280000, 24.216960
  0.282000, 22.957700
  0.284000, 21.720320
  0.286000, 20.509100
  0.288000, 19.321750
  0.290000, 18.171730
  0.292000, 17.068510
  0.294000, 16.011810
  0.296000, 15.006070
  0.298000, 14.050510
  0.300000, 13.132370
  0.302000, 12.249540
  0.304000, 11.393040
  0.306000, 10.554690
  0.308000,  9.737390
  0.310000,  8.954220
  0.312000,  8.209150
  0.314000,  7.495860
  0.316000,  6.826290
  0.318000,  6.199420
  0.320000,  5.610550
  0.322000,  5.045590
  0.324000,  4.506660
  0.326000,  3.990600
  0.328000,  3.483060
  0.330000,  3.008290
  0.332000,  2.544550
  0.334000,  2.107480
  0.336000,  1.708060
  0.338000,  1.335400
  0.340000,  0.990860
  0.342000,  0.660300
  0.344000,  0.354410
  0.346000,  0.061290
  0.348000, -0.213850
  0.350000, -0.465310
  0.352000, -0.686720
  0.354000, -0.875370
  0.356000, -1.026290
  0.358000, -1.157470
  0.360000, -1.284740
  0.362000, -1.406580
  0.364000, -1.535010
  0.366000, -1.679940
  0.368000, -1.830050
  0.370000, -1.974350
  0.372000, -2.102160
  0.374000, -2.199210
  0.376000, -2.263490
  0.378000, -2.302860
  0.380000, -2.320910
  0.382000, -2.344010
  0.384000, -2.370360
  0.386000, -2.410940
  0.388000, -2.453040
  0.390000, -2.502010
  0.392000, -2.531890
  0.394000, -2.550930
  0.396000, -2.559710
  0.398000, -2.560340
  0.400000, -2.566710
  0.402000, -2.588820
  0.404000, -2.621790
  0.406000, -2.670960
  0.408000, -2.718560
  0.410000, -2.761290
  0.412000, -2.788130
  0.414000, -2.769930
  0.416000, -2.706970
  0.418000, -2.601940
  0.420000, -2.474860
  0.422000, -2.331520
  0.424000, -2.199040
  0.426000, -2.079710
  0.428000, -1.996910
  0.430000, -1.948190
  0.432000, -1.926500
  0.434000, -1.920540
  0.436000, -1.911770
  0.438000, -1.896310
  0.440000, -1.848180
  0.442000, -1.784130
  0.444000, -1.692910
  0.446000, -1.577930
  0.448000, -1.454500
  0.450000, -1.329790
  0.452000, -1.217520
  0.454000, -1.115600
  0.456000, -1.040410
  0.458000, -0.977360
  0.460000, -0.922280
  0.462000, -0.870080
  0.464000, -0.813170
  0.466000, -0.763420
  0.468000, -0.714230
  0.470000, -0.658160
  0.472000, -0.607440
  0.474000, -0.557250
  0.476000, -0.517360
  0.478000, -0.476510
  0.480000, -0.430790
  0.482000, -0.380150
  0.484000, -0.320780
  0.486000, -0.253280
  0.488000, -0.172460
  0.490000, -0.085980
  0.492000,  0.015750
  0.494000,  0.114260
  0.496000,  0.218260
  0.498000,  0.313430
  0.500000,  0.396220
  0.502000,  0.465040
  0.504000,  0.508270
  0.506000,  0.537000
  0.508000,  0.560580
  0.510000,  0.586130
  0.512000,  0.619890
  0.514000,  0.675030
  0.516000,  0.749040
  0.518000,  0.840950
  0.520000,  0.947170
  0.522000,  1.063960
  0.524000,  1.176830
  0.526000,  1.280640
  0.528000,  1.362170
  0.530000,  1.423350
  0.532000,  1.463120
  0.534000,  1.484260
  0.536000,  1.492640
  0.538000,  1.490860
  0.540000,  1.496750
  0.542000,  1.509630
  0.544000,  1.534830
  0.546000,  1.570530
  0.548000,  1.621200
  0.550000,  1.681320
  0.552000,  1.749350
  0.554000,  1.818880
  0.556000,  1.882120
  0.558000,  1.938780
  0.560000,  1.986310
  0.562000,  2.025360
  0.564000,  2.066740
  0.566000,  2.105550
  0.568000,  2.148530
  0.570000,  2.211210
  0.572000,  2.288580
  0.574000,  2.380890
  0.576000,  2.490940
  0.578000,  2.612450
  0.580000,  2.738700
  0.582000,  2.870720
  0.584000,  2.995230
  0.586000,  3.119710
  0.588000,  3.241780
  0.590000,  3.355920
  0.592000,  3.460830
  0.594000,  3.563780
  0.596000,  3.666370
  0.598000,  3.769140
  0.600000,  3.857830
  0.602000,  3.947020
  0.604000,  4.029370
  0.606000,  4.111580
  0.608000,  4.182440
  0.610000,  4.248070
  0.612000,  4.312100
  0.614000,  4.372400
  0.616000,  4.434640
  0.618000,  4.497300
  0.620000,  4.543410
  0.622000,  4.579130
  0.624000,  4.596880
  0.626000,  4.598730
  0.628000,  4.574400
  0.630000,  4.526480
  0.632000,  4.477030
  0.634000,  4.403250
  0.636000,  4.326350
  0.638000,  4.248570
  0.640000,  4.166520
  0.642000,  4.089220
  0.644000,  3.999930
  0.646000,  3.914520
  0.648000,  3.825660
  0.650000,  3.733960
  0.652000,  3.639950
  0.654000,  3.541550
  0.656000,  3.449500
  0.658000,  3.358850
  0.660000,  3.274880
  0.662000,  3.194560
  0.664000,  3.114500
  0.666000,  3.041990
  0.668000,  2.972170
  0.670000,  2.902070
  0.672000,  2.836230
  0.674000,  2.766130
  0.676000,  2.693980
  0.678000,  2.619880
  0.680000,  2.545230
  0.682000,  2.456910
  0.684000,  2.363850
  0.686000,  2.262550
  0.688000,  2.165570
  0.690000,  2.073150
  0.692000,  1.986990
  0.694000,  1.914000
  0.696000,  1.850090
  0.698000,  1.807180
  0.700000,  1.773500
  0.702000,  1.751170
  0.704000,  1.739590
  0.706000,  1.727210
  0.708000,  1.709600
  0.710000,  1.692160
  0.712000,  1.660240
  0.714000,  1.613160
  0.716000,  1.563580
  0.718000,  1.514150
  0.720000,  1.470850
  0.722000,  1.424330
  0.724000,  1.376010
  0.726000,  1.336000
  0.728000,  1.295690
  0.730000,  1.268770
  0.732000,  1.247880
  0.734000,  1.238710
  0.736000,  1.243050
  0.738000,  1.255420
  0.740000,  1.275550
  0.742000,  1.298840
  0.744000,  1.319050
  0.746000,  1.339080
  0.748000,  1.346760
  0.750000,  1.345230
  0.752000,  1.341540
  0.754000,  1.325330
  0.756000,  1.287900
  0.758000,  1.247420
  0.760000,  1.206980
  0.762000,  1.166970
  0.764000,  1.144430
  0.766000,  1.118980
  0.768000,  1.098380
  0.770000,  1.090640
  0.772000,  1.091690
  0.774000,  1.095740
  0.776000,  1.107480
  0.778000,  1.122280
  0.780000,  1.144450
  0.782000,  1.164980
  0.784000,  1.179810
  0.786000,  1.197160
  0.788000,  1.200120
  0.790000,  1.197530
  0.792000,  1.193390
  0.794000,  1.174160
  0.796000,  1.150020
  0.798000,  1.122250
  0.800000,  1.089600
  0.802000,  1.059240
  0.804000,  1.034100
  0.806000,  1.011730
  0.808000,  0.991280
  0.810000,  0.982540
  0.812000,  0.979670
  0.814000,  0.980810
  0.816000,  0.985440
  0.818000,  0.997330
  0.820000,  1.006580
  0.822000,  1.023990
  0.824000,  1.041370
  0.826000,  1.049830
  0.828000,  1.054590
  0.830000,  1.053240
  0.832000,  1.044830
  0.834000,  1.033350
  0.836000,  1.021260
  0.838000,  1.007340
  0.840000,  0.995630
  0.842000,  0.981040
  0.844000,  0.971200
  0.846000,  0.965570
  0.848000,  0.962700
  0.850000,  0.955320
  0.852000,  0.950100
  0.854000,  0.939770
  0.856000,  0.919580
  0.858000,  0.896640
  0.860000,  0.869130
  0.862000,  0.842900
  0.864000,  0.814610
  0.866000,  0.785780
  0.868000,  0.765700
  0.870000,  0.747290
  0.872000,  0.736080
  0.874000,  0.721650
  0.876000,  0.710180
  0.878000,  0.688900
  0.880000,  0.671170
  0.882000,  0.644100
  0.884000,  0.610050
  0.886000,  0.578250
  0.888000,  0.550090
  0.890000,  0.526880
  0.892000,  0.509840
  0.894000,  0.501990
  0.896000,  0.491600
  0.898000,  0.485500
  0.900000,  0.470650
  0.902000,  0.449750
  0.904000,  0.422860
  0.906000,  0.399150
  0.908000,  0.373110
  0.910000,  0.351120
  0.912000,  0.335510
  0.914000,  0.323620
  0.916000,  0.319700
  0.918000,  0.324430
  0.920000,  0.327680
  0.922000,  0.325530
  0.924000,  0.317650
  0.926000,  0.303970
  0.928000,  0.280680
  0.930000,  0.256650
  0.932000,  0.225000
  0.934000,  0.186950
  0.936000,  0.145310
  0.938000,  0.107450
  0.940000,  0.065880
  0.942000,  0.027280
  0.944000, -0.006970
  0.946000, -0.033170
  0.948000, -0.054750
  0.950000, -0.072450
  0.952000, -0.086260
  0.954000, -0.094470
  0.956000, -0.101620
  0.958000, -0.111270
  0.960000, -0.120190
  0.962000, -0.131300
  0.964000, -0.145920
  0.966000, -0.158720
  0.968000, -0.172210
  0.970000, -0.175050
  0.972000, -0.184710
  0.974000, -0.196560
  0.976000, -0.206760
  0.978000, -0.215560
  0.980000, -0.239800
  0.982000, -0.263570
  0.984000, -0.285770
  0.986000, -0.313830
  0.988000, -0.332190
  0.990000, -0.350860
  0.992000, -0.366480
  0.994000, -0.373160
  0.996000, -0.371760
  0.998000, -0.360370
  1.000000, -0.343560
