# z (nm)   (kJ/mol)
  0.086000,267.544770
  0.088000,263.524650
  0.090000,261.147940
  0.092000,258.375160
  0.094000,255.859890
  0.096000,253.477040
  0.098000,250.962870
  0.100000,248.482500
  0.102000,245.948270
  0.104000,243.335570
  0.106000,240.639480
  0.108000,237.817630
  0.110000,234.843170
  0.112000,231.709730
  0.114000,228.400990
  0.116000,224.926240
  0.118000,221.301160
  0.120000,217.545170
  0.122000,213.688430
  0.124000,209.749040
  0.126000,205.749940
  0.128000,201.695210
  0.130000,197.586620
  0.132000,193.426310
  0.134000,189.215280
  0.136000,184.963340
  0.138000,180.691930
  0.140000,176.432040
  0.142000,172.215050
  0.144000,168.088110
  0.146000,164.070150
  0.148000,160.183130
  0.150000,156.416930
  0.152000,152.758300
  0.154000,149.187760
  0.156000,145.685240
  0.158000,142.248040
  0.160000,138.873140
  0.162000,135.552270
  0.164000,132.281470
  0.166000,129.043010
  0.168000,125.821510
  0.170000,122.612730
  0.172000,119.414490
  0.174000,116.234830
  0.176000,113.080230
  0.178000,109.964410
  0.180000,106.893350
  0.182000,103.871630
  0.184000,100.905880
  0.186000, 97.996280
  0.188000, 95.135950
  0.190000, 92.333650
  0.192000, 89.586940
  0.194000, 86.892240
  0.196000, 84.246350
  0.198000, 81.648440
  0.200000, 79.086870
  0.202000, 76.572490
  0.204000, 74.107060
  0.206000, 71.684120
  0.208000, 69.300100
  0.210000, 66.954510
  0.212000, 64.644780
  0.214000, 62.355570
  0.216000, 60.074370
  0.218000, 57.803800
  0.220000, 55.536340
  0.222000, 53.277700
  0.224000, 51.045260
  0.226000, 48.855400
  0.228000, 46.717170
  0.230000, 44.633900
  0.232000, 42.615990
  0.234000, 40.657760
  0.236000, 38.755720
  0.238000, 36.891810
  0.240000, 35.066350
  0.242000, 33.274790
  0.244000, 31.523300
  0.246000, 29.808970
  0.248000, 28.146720
  0.250000, 26.535540
  0.252000, 24.981680
  0.254000, 23.478400
  0.256000, 22.026650
  0.258000, 20.612010
  0.260000, 19.236810
  0.262000, 17.885260
  0.264000, 16.562090
  0.266000, 15.253770
  0.268000, 13.974210
  0.270000, 12.711250
  0.272000, 11.491460
  0.274000, 10.304770
  0.276000,  9.166310
  0.278000,  8.080400
  0.280000,  7.040840
  0.282000,  6.053760
  0.284000,  5.101550
  0.286000,  4.191920
  0.288000,  3.311590
  0.290000,  2.454410
  0.292000,  1.603460
  0.294000,  0.771840
  0.296000, -0.030740
  0.298000, -0.800930
  0.300000, -1.536090
  0.302000, -2.209820
  0.304000, -2.825640
  0.306000, -3.381820
  0.308000, -3.885550
  0.310000, -4.355850
  0.312000, -4.814950
  0.314000, -5.260190
  0.316000, -5.693320
  0.318000, -6.118270
  0.320000, -6.523800
  0.322000, -6.908270
  0.324000, -7.267430
  0.326000, -7.604190
  0.328000, -7.904310
  0.330000, -8.182640
  0.332000, -8.438870
  0.334000, -8.673220
  0.336000, -8.888800
  0.338000, -9.080170
  0.340000, -9.254230
  0.342000, -9.405850
  0.344000, -9.535830
  0.346000, -9.639150
  0.348000, -9.726350
  0.350000, -9.794690
  0.352000, -9.852450
  0.354000, -9.901830
  0.356000, -9.938220
  0.358000, -9.970260
  0.360000, -9.997100
  0.362000,-10.013770
  0.364000,-10.023720
  0.366000,-10.018880
  0.368000,-10.007830
  0.370000, -9.999710
  0.372000, -9.976480
  0.374000, -9.939140
  0.376000, -9.903370
  0.378000, -9.857120
  0.380000, -9.811990
  0.382000, -9.752460
  0.384000, -9.693320
  0.386000, -9.621820
  0.388000, -9.549830
  0.390000, -9.470190
  0.392000, -9.392570
  0.394000, -9.308010
  0.396000, -9.226060
  0.398000, -9.140660
  0.400000, -9.049500
  0.402000, -8.946690
  0.404000, -8.836010
  0.406000, -8.723190
  0.408000, -8.596490
  0.410000, -8.456760
  0.412000, -8.307220
  0.414000, -8.154170
  0.416000, -8.000980
  0.418000, -7.855880
  0.420000, -7.709860
  0.422000, -7.573470
  0.424000, -7.445520
  0.426000, -7.320240
  0.428000, -7.197170
  0.430000, -7.072990
  0.432000, -6.943810
  0.434000, -6.810760
  0.436000, -6.676990
  0.438000, -6.539370
  0.440000, -6.391210
  0.442000, -6.243980
  0.444000, -6.099450
  0.446000, -5.956420
  0.448000, -5.815410
  0.450000, -5.684440
  0.452000, -5.566540
  0.454000, -5.455490
  0.456000, -5.354180
  0.458000, -5.259390
  0.460000, -5.171210
  0.462000, -5.088060
  0.464000, -5.009730
  0.466000, -4.935890
  0.468000, -4.864210
  0.470000, -4.782050
  0.472000, -4.697330
  0.474000, -4.609100
  0.476000, -4.513300
  0.478000, -4.413540
  0.480000, -4.313310
  0.482000, -4.201640
  0.484000, -4.088660
  0.486000, -3.980290
  0.488000, -3.881760
  0.490000, -3.790240
  0.492000, -3.713400
  0.494000, -3.663820
  0.496000, -3.633440
  0.498000, -3.619140
  0.500000, -3.624600
  0.502000, -3.624220
  0.504000, -3.619300
  0.506000, -3.594580
  0.508000, -3.545500
  0.510000, -3.461980
  0.512000, -3.351810
  0.514000, -3.224170
  0.516000, -3.094680
  0.518000, -2.971790
  0.520000, -2.862530
  0.522000, -2.767710
  0.524000, -2.691500
  0.526000, -2.626410
  0.528000, -2.566840
  0.530000, -2.513850
  0.532000, -2.452680
  0.534000, -2.377320
  0.536000, -2.285390
  0.538000, -2.180730
  0.540000, -2.053020
  0.542000, -1.910330
  0.544000, -1.749370
  0.546000, -1.585480
  0.548000, -1.422290
  0.550000, -1.261850
  0.552000, -1.110000
  0.554000, -0.972730
  0.556000, -0.845920
  0.558000, -0.726770
  0.560000, -0.611740
  0.562000, -0.496110
  0.564000, -0.376030
  0.566000, -0.248130
  0.568000, -0.120210
  0.570000,  0.014840
  0.572000,  0.151980
  0.574000,  0.284510
  0.576000,  0.420710
  0.578000,  0.552490
  0.580000,  0.678450
  0.582000,  0.810350
  0.584000,  0.941360
  0.586000,  1.070050
  0.588000,  1.195800
  0.590000,  1.318850
  0.592000,  1.442330
  0.594000,  1.554450
  0.596000,  1.659230
  0.598000,  1.750510
  0.600000,  1.830170
  0.602000,  1.895890
  0.604000,  1.933340
  0.606000,  1.963640
  0.608000,  1.973410
  0.610000,  1.976590
  0.612000,  1.967880
  0.614000,  1.951200
  0.616000,  1.926610
  0.618000,  1.904400
  0.620000,  1.875220
  0.622000,  1.837660
  0.624000,  1.793660
  0.626000,  1.743590
  0.628000,  1.688350
  0.630000,  1.620170
  0.632000,  1.547690
  0.634000,  1.465680
  0.636000,  1.381920
  0.638000,  1.292970
  0.640000,  1.201580
  0.642000,  1.112790
  0.644000,  1.026560
  0.646000,  0.943720
  0.648000,  0.862150
  0.650000,  0.788220
  0.652000,  0.713560
  0.654000,  0.635500
  0.656000,  0.557930
  0.658000,  0.489280
  0.660000,  0.418630
  0.662000,  0.351770
  0.664000,  0.285350
  0.666000,  0.222450
  0.668000,  0.171810
  0.670000,  0.125040
  0.672000,  0.087020
  0.674000,  0.051140
  0.676000,  0.023670
  0.678000, -0.003550
  0.680000, -0.028360
  0.682000, -0.044420
  0.684000, -0.069030
  0.686000, -0.084600
  0.688000, -0.098930
  0.690000, -0.117610
  0.692000, -0.129500
  0.694000, -0.146510
  0.696000, -0.173730
  0.698000, -0.198280
  0.700000, -0.223920
  0.702000, -0.241920
  0.704000, -0.268500
  0.706000, -0.288860
  0.708000, -0.301860
  0.710000, -0.305050
  0.712000, -0.319200
  0.714000, -0.330670
  0.716000, -0.325790
  0.718000, -0.323560
  0.720000, -0.311310
  0.722000, -0.290660
  0.724000, -0.275390
  0.726000, -0.260090
  0.728000, -0.244960
  0.730000, -0.242090
  0.732000, -0.246390
  0.734000, -0.262660
  0.736000, -0.285200
  0.738000, -0.308630
  0.740000, -0.333550
  0.742000, -0.349490
  0.744000, -0.366730
  0.746000, -0.377340
  0.748000, -0.375020
  0.750000, -0.369590
  0.752000, -0.367000
  0.754000, -0.361620
  0.756000, -0.367150
  0.758000, -0.379350
  0.760000, -0.394450
  0.762000, -0.413690
  0.764000, -0.434660
  0.766000, -0.454840
  0.768000, -0.465000
  0.770000, -0.468430
  0.772000, -0.467540
  0.774000, -0.463400
  0.776000, -0.451970
  0.778000, -0.442130
  0.780000, -0.435860
  0.782000, -0.434340
  0.784000, -0.431100
  0.786000, -0.425280
  0.788000, -0.426520
  0.790000, -0.436420
  0.792000, -0.450460
  0.794000, -0.458280
  0.796000, -0.465030
  0.798000, -0.462270
  0.800000, -0.452020
  0.802000, -0.449130
  0.804000, -0.445120
  0.806000, -0.431010
  0.808000, -0.418380
  0.810000, -0.402690
  0.812000, -0.386760
  0.814000, -0.381930
  0.816000, -0.368240
  0.818000, -0.360100
  0.820000, -0.354750
  0.822000, -0.342580
  0.824000, -0.335630
  0.826000, -0.322650
  0.828000, -0.307820
  0.830000, -0.283280
  0.832000, -0.257420
  0.834000, -0.223220
  0.836000, -0.187460
  0.838000, -0.155660
  0.840000, -0.123690
  0.842000, -0.088510
  0.844000, -0.065480
  0.846000, -0.038830
  0.848000, -0.014320
  0.850000,  0.002390
  0.852000,  0.021520
  0.854000,  0.038280
  0.856000,  0.049670
  0.858000,  0.054900
  0.860000,  0.054670
  0.862000,  0.055070
  0.864000,  0.044960
  0.866000,  0.037790
  0.868000,  0.028270
  0.870000,  0.012960
  0.872000,  0.008840
  0.874000,  0.003770
  0.876000,  0.009990
  0.878000,  0.018450
  0.880000,  0.033810
  0.882000,  0.060820
  0.884000,  0.092100
  0.886000,  0.130630
  0.888000,  0.173320
  0.890000,  0.216800
  0.892000,  0.252350
  0.894000,  0.289120
  0.896000,  0.323770
  0.898000,  0.339160
  0.900000,  0.351330
  0.902000,  0.348220
  0.904000,  0.330140
  0.906000,  0.312820
  0.908000,  0.289790
  0.910000,  0.266180
  0.912000,  0.242020
  0.914000,  0.221020
  0.916000,  0.198030
  0.918000,  0.183440
  0.920000,  0.174510
  0.922000,  0.166500
  0.924000,  0.151070
  0.926000,  0.143070
  0.928000,  0.127380
  0.930000,  0.112970
  0.932000,  0.097880
  0.934000,  0.077530
  0.936000,  0.060420
  0.938000,  0.040270
  0.940000,  0.027430
  0.942000,  0.012650
  0.944000, -0.001000
  0.946000, -0.013530
  0.948000, -0.029100
  0.950000, -0.043600
  0.952000, -0.060380
  0.954000, -0.075280
  0.956000, -0.085500
  0.958000, -0.100670
  0.960000, -0.113360
  0.962000, -0.118520
  0.964000, -0.123410
  0.966000, -0.126520
  0.968000, -0.128950
  0.970000, -0.125970
  0.972000, -0.123550
  0.974000, -0.117530
  0.976000, -0.114300
  0.978000, -0.113120
  0.980000, -0.113780
  0.982000, -0.118950
  0.984000, -0.127350
  0.986000, -0.140290
  0.988000, -0.157400
  0.990000, -0.174470
  0.992000, -0.196260
  0.994000, -0.213530
  0.996000, -0.231810
  0.998000, -0.243930
  1.000000, -0.251260
