# z (nm)   (kJ/mol)
  0.074000,261.997390
  0.076000,259.692790
  0.078000,257.433400
  0.080000,254.934680
  0.082000,252.659510
  0.084000,250.274730
  0.086000,247.884100
  0.088000,245.591920
  0.090000,243.261830
  0.092000,240.901910
  0.094000,238.499460
  0.096000,236.015060
  0.098000,233.459970
  0.100000,230.814410
  0.102000,228.076050
  0.104000,225.228960
  0.106000,222.271500
  0.108000,219.197350
  0.110000,216.011390
  0.112000,212.705510
  0.114000,209.283710
  0.116000,205.735570
  0.118000,202.053440
  0.120000,198.228140
  0.122000,194.247640
  0.124000,190.108680
  0.126000,185.828290
  0.128000,181.460170
  0.130000,177.083280
  0.132000,172.783130
  0.134000,168.637500
  0.136000,164.691480
  0.138000,160.929060
  0.140000,157.307350
  0.142000,153.751210
  0.144000,150.199940
  0.146000,146.600780
  0.148000,142.946220
  0.150000,139.258330
  0.152000,135.579430
  0.154000,131.960430
  0.156000,128.440680
  0.158000,125.036720
  0.160000,121.742300
  0.162000,118.550480
  0.164000,115.456890
  0.166000,112.450000
  0.168000,109.496740
  0.170000,106.559710
  0.172000,103.595530
  0.174000,100.584940
  0.176000, 97.537480
  0.178000, 94.462800
  0.180000, 91.385500
  0.182000, 88.321950
  0.184000, 85.299400
  0.186000, 82.322210
  0.188000, 79.389450
  0.190000, 76.498530
  0.192000, 73.656090
  0.194000, 70.857050
  0.196000, 68.110130
  0.198000, 65.409740
  0.200000, 62.760460
  0.202000, 60.158780
  0.204000, 57.606230
  0.206000, 55.091300
  0.208000, 52.617990
  0.210000, 50.192560
  0.212000, 47.813780
  0.214000, 45.487190
  0.216000, 43.212440
  0.218000, 40.995900
  0.220000, 38.839470
  0.222000, 36.733980
  0.224000, 34.664490
  0.226000, 32.646290
  0.228000, 30.657040
  0.230000, 28.703810
  0.232000, 26.774740
  0.234000, 24.886930
  0.236000, 23.034150
  0.238000, 21.229060
  0.240000, 19.468170
  0.242000, 17.761060
  0.244000, 16.104280
  0.246000, 14.504480
  0.248000, 12.949680
  0.250000, 11.450090
  0.252000, 10.003640
  0.254000,  8.602800
  0.256000,  7.248970
  0.258000,  5.941920
  0.260000,  4.676470
  0.262000,  3.457870
  0.264000,  2.281790
  0.266000,  1.143540
  0.268000,  0.031340
  0.270000, -1.036220
  0.272000, -2.061220
  0.274000, -3.052240
  0.276000, -3.995370
  0.278000, -4.883120
  0.280000, -5.728570
  0.282000, -6.519820
  0.284000, -7.256020
  0.286000, -7.943030
  0.288000, -8.595130
  0.290000, -9.200200
  0.292000, -9.779760
  0.294000,-10.327480
  0.296000,-10.846260
  0.298000,-11.335800
  0.300000,-11.783410
  0.302000,-12.206790
  0.304000,-12.585250
  0.306000,-12.923250
  0.308000,-13.225690
  0.310000,-13.500550
  0.312000,-13.733690
  0.314000,-13.926190
  0.316000,-14.075090
  0.318000,-14.188820
  0.320000,-14.259120
  0.322000,-14.299850
  0.324000,-14.314600
  0.326000,-14.301860
  0.328000,-14.277400
  0.330000,-14.233050
  0.332000,-14.183780
  0.334000,-14.134010
  0.336000,-14.073210
  0.338000,-14.011810
  0.340000,-13.934060
  0.342000,-13.846840
  0.344000,-13.738710
  0.346000,-13.595880
  0.348000,-13.415830
  0.350000,-13.199090
  0.352000,-12.955840
  0.354000,-12.694790
  0.356000,-12.414290
  0.358000,-12.142080
  0.360000,-11.865860
  0.362000,-11.610390
  0.364000,-11.378140
  0.366000,-11.164060
  0.368000,-10.975620
  0.370000,-10.797160
  0.372000,-10.619260
  0.374000,-10.438140
  0.376000,-10.256030
  0.378000,-10.055010
  0.380000, -9.847620
  0.382000, -9.641930
  0.384000, -9.446620
  0.386000, -9.257650
  0.388000, -9.090680
  0.390000, -8.962070
  0.392000, -8.862200
  0.394000, -8.790190
  0.396000, -8.739800
  0.398000, -8.712920
  0.400000, -8.700800
  0.402000, -8.698290
  0.404000, -8.705450
  0.406000, -8.708420
  0.408000, -8.708410
  0.410000, -8.700920
  0.412000, -8.692500
  0.414000, -8.674330
  0.416000, -8.655970
  0.418000, -8.641230
  0.420000, -8.626990
  0.422000, -8.617020
  0.424000, -8.611570
  0.426000, -8.601330
  0.428000, -8.585340
  0.430000, -8.554800
  0.432000, -8.539510
  0.434000, -8.522410
  0.436000, -8.509490
  0.438000, -8.504230
  0.440000, -8.492180
  0.442000, -8.473690
  0.444000, -8.443900
  0.446000, -8.396970
  0.448000, -8.333920
  0.450000, -8.260920
  0.452000, -8.184860
  0.454000, -8.114140
  0.456000, -8.047010
  0.458000, -7.985130
  0.460000, -7.927860
  0.462000, -7.865240
  0.464000, -7.790410
  0.466000, -7.713090
  0.468000, -7.625960
  0.470000, -7.540410
  0.472000, -7.452790
  0.474000, -7.363490
  0.476000, -7.280600
  0.478000, -7.200560
  0.480000, -7.122530
  0.482000, -7.044670
  0.484000, -6.961720
  0.486000, -6.874690
  0.488000, -6.778540
  0.490000, -6.681380
  0.492000, -6.582350
  0.494000, -6.475010
  0.496000, -6.362850
  0.498000, -6.248340
  0.500000, -6.134830
  0.502000, -6.025360
  0.504000, -5.916420
  0.506000, -5.812170
  0.508000, -5.709340
  0.510000, -5.613350
  0.512000, -5.512890
  0.514000, -5.414740
  0.516000, -5.311010
  0.518000, -5.204470
  0.520000, -5.095160
  0.522000, -4.978880
  0.524000, -4.863210
  0.526000, -4.748550
  0.528000, -4.631240
  0.530000, -4.514490
  0.532000, -4.404110
  0.534000, -4.300170
  0.536000, -4.190070
  0.538000, -4.093580
  0.540000, -4.002610
  0.542000, -3.912830
  0.544000, -3.823370
  0.546000, -3.739160
  0.548000, -3.655530
  0.550000, -3.575610
  0.552000, -3.489600
  0.554000, -3.397680
  0.556000, -3.303660
  0.558000, -3.203930
  0.560000, -3.093860
  0.562000, -2.981150
  0.564000, -2.871940
  0.566000, -2.753690
  0.568000, -2.630550
  0.570000, -2.519970
  0.572000, -2.407950
  0.574000, -2.305400
  0.576000, -2.204560
  0.578000, -2.089090
  0.580000, -1.970550
  0.582000, -1.840100
  0.584000, -1.699130
  0.586000, -1.549620
  0.588000, -1.393080
  0.590000, -1.236320
  0.592000, -1.080500
  0.594000, -0.933580
  0.596000, -0.798490
  0.598000, -0.682810
  0.600000, -0.576590
  0.602000, -0.485010
  0.604000, -0.404070
  0.606000, -0.329540
  0.608000, -0.249510
  0.610000, -0.177680
  0.612000, -0.098960
  0.614000, -0.014100
  0.616000,  0.062270
  0.618000,  0.150920
  0.620000,  0.233170
  0.622000,  0.301860
  0.624000,  0.364600
  0.626000,  0.415990
  0.628000,  0.460570
  0.630000,  0.497770
  0.632000,  0.531080
  0.634000,  0.557880
  0.636000,  0.580590
  0.638000,  0.609690
  0.640000,  0.634180
  0.642000,  0.664760
  0.644000,  0.697940
  0.646000,  0.746270
  0.648000,  0.791940
  0.650000,  0.843850
  0.652000,  0.892430
  0.654000,  0.922920
  0.656000,  0.942760
  0.658000,  0.948670
  0.660000,  0.931780
  0.662000,  0.908740
  0.664000,  0.892060
  0.666000,  0.867040
  0.668000,  0.850460
  0.670000,  0.847710
  0.672000,  0.844330
  0.674000,  0.840880
  0.676000,  0.834970
  0.678000,  0.834800
  0.680000,  0.823650
  0.682000,  0.808840
  0.684000,  0.787060
  0.686000,  0.764100
  0.688000,  0.731590
  0.690000,  0.705160
  0.692000,  0.678920
  0.694000,  0.655970
  0.696000,  0.639960
  0.698000,  0.622290
  0.700000,  0.605550
  0.702000,  0.582330
  0.704000,  0.557420
  0.706000,  0.519480
  0.708000,  0.473820
  0.710000,  0.420100
  0.712000,  0.351280
  0.714000,  0.277770
  0.716000,  0.201240
  0.718000,  0.126550
  0.720000,  0.060230
  0.722000, -0.000320
  0.724000, -0.049280
  0.726000, -0.086980
  0.728000, -0.108890
  0.730000, -0.131820
  0.732000, -0.154150
  0.734000, -0.175410
  0.736000, -0.207540
  0.738000, -0.251470
  0.740000, -0.293690
  0.742000, -0.345990
  0.744000, -0.404930
  0.746000, -0.458160
  0.748000, -0.511300
  0.750000, -0.563890
  0.752000, -0.608650
  0.754000, -0.636500
  0.756000, -0.661170
  0.758000, -0.677820
  0.760000, -0.686050
  0.762000, -0.687330
  0.764000, -0.689970
  0.766000, -0.702570
  0.768000, -0.726470
  0.770000, -0.752430
  0.772000, -0.795150
  0.774000, -0.843900
  0.776000, -0.899250
  0.778000, -0.944030
  0.780000, -0.979940
  0.782000, -1.009610
  0.784000, -1.023040
  0.786000, -1.022140
  0.788000, -1.017940
  0.790000, -1.000240
  0.792000, -0.981910
  0.794000, -0.973670
  0.796000, -0.974220
  0.798000, -0.980340
  0.800000, -0.984720
  0.802000, -0.989120
  0.804000, -1.001440
  0.806000, -1.017550
  0.808000, -1.034360
  0.810000, -1.058410
  0.812000, -1.078080
  0.814000, -1.094370
  0.816000, -1.089020
  0.818000, -1.075280
  0.820000, -1.042030
  0.822000, -0.990840
  0.824000, -0.941520
  0.826000, -0.889420
  0.828000, -0.848900
  0.830000, -0.811770
  0.832000, -0.788190
  0.834000, -0.759550
  0.836000, -0.731980
  0.838000, -0.709050
  0.840000, -0.679410
  0.842000, -0.648660
  0.844000, -0.612920
  0.846000, -0.573210
  0.848000, -0.540080
  0.850000, -0.503210
  0.852000, -0.469830
  0.854000, -0.446930
  0.856000, -0.420640
  0.858000, -0.396630
  0.860000, -0.382420
  0.862000, -0.376050
  0.864000, -0.372390
  0.866000, -0.369530
  0.868000, -0.371420
  0.870000, -0.373750
  0.872000, -0.373340
  0.874000, -0.375800
  0.876000, -0.355950
  0.878000, -0.345370
  0.880000, -0.322550
  0.882000, -0.292940
  0.884000, -0.264210
  0.886000, -0.237580
  0.888000, -0.213720
  0.890000, -0.189220
  0.892000, -0.171840
  0.894000, -0.157720
  0.896000, -0.140160
  0.898000, -0.126990
  0.900000, -0.115050
  0.902000, -0.106150
  0.904000, -0.100300
  0.906000, -0.094580
  0.908000, -0.087520
  0.910000, -0.084860
  0.912000, -0.076830
  0.914000, -0.065380
  0.916000, -0.044190
  0.918000, -0.028100
  0.920000, -0.003140
  0.922000,  0.025850
  0.924000,  0.050320
  0.926000,  0.074820
  0.928000,  0.097380
  0.930000,  0.117150
  0.932000,  0.122950
  0.934000,  0.134650
  0.936000,  0.128320
  0.938000,  0.116960
  0.940000,  0.103970
  0.942000,  0.093150
  0.944000,  0.087480
  0.946000,  0.085950
  0.948000,  0.083790
  0.950000,  0.085220
  0.952000,  0.084980
  0.954000,  0.085450
  0.956000,  0.087140
  0.958000,  0.078360
  0.960000,  0.071010
  0.962000,  0.058470
  0.964000,  0.042540
  0.966000,  0.027770
  0.968000,  0.012820
  0.970000,  0.000500
  0.972000, -0.010300
  0.974000, -0.024780
  0.976000, -0.037080
  0.978000, -0.054070
  0.980000, -0.066350
  0.982000, -0.079070
  0.984000, -0.097530
  0.986000, -0.105100
  0.988000, -0.116460
  0.990000, -0.117710
  0.992000, -0.117790
  0.994000, -0.112320
  0.996000, -0.107550
  0.998000, -0.110410
  1.000000, -0.109420
