# z (nm)   (kJ/mol)
  0.098000,256.023250
  0.100000,253.674030
  0.102000,251.003160
  0.104000,248.187620
  0.106000,245.719830
  0.108000,243.353130
  0.110000,240.951000
  0.112000,238.531440
  0.114000,236.091310
  0.116000,233.606370
  0.118000,231.058630
  0.120000,228.419770
  0.122000,225.666430
  0.124000,222.763330
  0.126000,219.704110
  0.128000,216.482060
  0.130000,213.097760
  0.132000,209.564590
  0.134000,205.912870
  0.136000,202.162090
  0.138000,198.330420
  0.140000,194.420930
  0.142000,190.434160
  0.144000,186.359440
  0.146000,182.177520
  0.148000,177.890720
  0.150000,173.492650
  0.152000,168.990250
  0.154000,164.414890
  0.156000,159.828810
  0.158000,155.338870
  0.160000,151.058870
  0.162000,147.049050
  0.164000,143.278850
  0.166000,139.637750
  0.168000,136.004600
  0.170000,132.340650
  0.172000,128.676510
  0.174000,125.091260
  0.176000,121.654680
  0.178000,118.369960
  0.180000,115.204170
  0.182000,112.098540
  0.184000,109.003850
  0.186000,105.889460
  0.188000,102.751320
  0.190000, 99.591130
  0.192000, 96.409860
  0.194000, 93.228440
  0.196000, 90.062920
  0.198000, 86.942460
  0.200000, 83.880290
  0.202000, 80.895240
  0.204000, 77.993060
  0.206000, 75.172930
  0.208000, 72.425050
  0.210000, 69.730210
  0.212000, 67.072890
  0.214000, 64.431020
  0.216000, 61.804230
  0.218000, 59.194150
  0.220000, 56.614690
  0.222000, 54.084580
  0.224000, 51.618930
  0.226000, 49.221670
  0.228000, 46.909480
  0.230000, 44.681550
  0.232000, 42.540630
  0.234000, 40.484830
  0.236000, 38.496570
  0.238000, 36.565530
  0.240000, 34.659190
  0.242000, 32.760980
  0.244000, 30.862830
  0.246000, 28.968020
  0.248000, 27.098310
  0.250000, 25.272430
  0.252000, 23.508400
  0.254000, 21.825120
  0.256000, 20.228570
  0.258000, 18.707930
  0.260000, 17.261450
  0.262000, 15.864740
  0.264000, 14.532590
  0.266000, 13.238130
  0.268000, 11.975210
  0.270000, 10.744460
  0.272000,  9.520470
  0.274000,  8.307800
  0.276000,  7.110860
  0.278000,  5.940710
  0.280000,  4.806520
  0.282000,  3.721080
  0.284000,  2.700160
  0.286000,  1.750200
  0.288000,  0.866210
  0.290000,  0.044760
  0.292000, -0.713950
  0.294000, -1.420110
  0.296000, -2.090280
  0.298000, -2.738430
  0.300000, -3.380430
  0.302000, -4.011970
  0.304000, -4.632750
  0.306000, -5.244530
  0.308000, -5.842520
  0.310000, -6.400740
  0.312000, -6.920960
  0.314000, -7.383760
  0.316000, -7.791490
  0.318000, -8.156260
  0.320000, -8.476120
  0.322000, -8.770460
  0.324000, -9.048710
  0.326000, -9.307080
  0.328000, -9.555260
  0.330000, -9.792720
  0.332000,-10.034430
  0.334000,-10.267930
  0.336000,-10.504490
  0.338000,-10.742230
  0.340000,-10.976440
  0.342000,-11.207280
  0.344000,-11.423130
  0.346000,-11.643430
  0.348000,-11.858090
  0.350000,-12.081920
  0.352000,-12.314980
  0.354000,-12.558210
  0.356000,-12.803320
  0.358000,-13.045560
  0.360000,-13.273690
  0.362000,-13.472960
  0.364000,-13.637710
  0.366000,-13.761940
  0.368000,-13.868740
  0.370000,-13.962730
  0.372000,-14.063200
  0.374000,-14.161060
  0.376000,-14.253050
  0.378000,-14.329270
  0.380000,-14.382260
  0.382000,-14.410550
  0.384000,-14.417160
  0.386000,-14.408990
  0.388000,-14.388320
  0.390000,-14.359130
  0.392000,-14.327040
  0.394000,-14.294800
  0.396000,-14.251760
  0.398000,-14.187140
  0.400000,-14.096240
  0.402000,-13.996110
  0.404000,-13.877720
  0.406000,-13.735710
  0.408000,-13.589310
  0.410000,-13.445340
  0.412000,-13.299350
  0.414000,-13.159060
  0.416000,-13.029740
  0.418000,-12.901560
  0.420000,-12.766030
  0.422000,-12.628690
  0.424000,-12.477540
  0.426000,-12.324360
  0.428000,-12.154660
  0.430000,-11.967650
  0.432000,-11.785810
  0.434000,-11.603060
  0.436000,-11.425030
  0.438000,-11.262080
  0.440000,-11.128250
  0.442000,-11.007070
  0.444000,-10.899470
  0.446000,-10.796190
  0.448000,-10.684040
  0.450000,-10.563260
  0.452000,-10.426010
  0.454000,-10.271260
  0.456000,-10.122300
  0.458000, -9.976840
  0.460000, -9.847670
  0.462000, -9.735190
  0.464000, -9.632690
  0.466000, -9.555040
  0.468000, -9.487400
  0.470000, -9.414390
  0.472000, -9.333250
  0.474000, -9.254380
  0.476000, -9.172250
  0.478000, -9.081260
  0.480000, -8.979210
  0.482000, -8.874430
  0.484000, -8.773480
  0.486000, -8.676570
  0.488000, -8.594510
  0.490000, -8.526040
  0.492000, -8.463120
  0.494000, -8.407920
  0.496000, -8.357690
  0.498000, -8.289350
  0.500000, -8.208250
  0.502000, -8.111960
  0.504000, -8.012850
  0.506000, -7.900130
  0.508000, -7.798410
  0.510000, -7.705020
  0.512000, -7.622170
  0.514000, -7.560680
  0.516000, -7.519180
  0.518000, -7.493990
  0.520000, -7.484220
  0.522000, -7.484450
  0.524000, -7.493070
  0.526000, -7.496910
  0.528000, -7.499600
  0.530000, -7.485810
  0.532000, -7.454690
  0.534000, -7.413200
  0.536000, -7.353700
  0.538000, -7.282380
  0.540000, -7.201780
  0.542000, -7.129920
  0.544000, -7.052380
  0.546000, -6.966950
  0.548000, -6.882360
  0.550000, -6.800860
  0.552000, -6.704330
  0.554000, -6.605990
  0.556000, -6.503750
  0.558000, -6.404480
  0.560000, -6.296060
  0.562000, -6.184420
  0.564000, -6.057680
  0.566000, -5.920940
  0.568000, -5.756720
  0.570000, -5.575020
  0.572000, -5.365280
  0.574000, -5.148730
  0.576000, -4.928830
  0.578000, -4.711560
  0.580000, -4.505680
  0.582000, -4.321560
  0.584000, -4.148680
  0.586000, -3.989990
  0.588000, -3.829710
  0.590000, -3.659140
  0.592000, -3.473070
  0.594000, -3.260390
  0.596000, -3.028150
  0.598000, -2.774220
  0.600000, -2.514400
  0.602000, -2.256610
  0.604000, -2.011960
  0.606000, -1.784380
  0.608000, -1.590350
  0.610000, -1.423010
  0.612000, -1.283890
  0.614000, -1.164840
  0.616000, -1.053370
  0.618000, -0.942930
  0.620000, -0.822580
  0.622000, -0.701660
  0.624000, -0.580570
  0.626000, -0.451680
  0.628000, -0.338410
  0.630000, -0.247500
  0.632000, -0.184990
  0.634000, -0.157540
  0.636000, -0.165660
  0.638000, -0.203590
  0.640000, -0.252890
  0.642000, -0.302600
  0.644000, -0.353260
  0.646000, -0.391540
  0.648000, -0.421650
  0.650000, -0.438130
  0.652000, -0.458150
  0.654000, -0.473240
  0.656000, -0.495370
  0.658000, -0.518620
  0.660000, -0.545570
  0.662000, -0.573650
  0.664000, -0.607500
  0.666000, -0.643350
  0.668000, -0.679630
  0.670000, -0.713430
  0.672000, -0.751400
  0.674000, -0.784250
  0.676000, -0.812380
  0.678000, -0.847820
  0.680000, -0.862600
  0.682000, -0.876650
  0.684000, -0.889960
  0.686000, -0.896980
  0.688000, -0.905240
  0.690000, -0.906650
  0.692000, -0.916230
  0.694000, -0.917680
  0.696000, -0.920870
  0.698000, -0.917620
  0.700000, -0.912430
  0.702000, -0.904650
  0.704000, -0.891150
  0.706000, -0.877290
  0.708000, -0.863820
  0.710000, -0.845230
  0.712000, -0.840800
  0.714000, -0.838870
  0.716000, -0.839330
  0.718000, -0.852450
  0.720000, -0.861110
  0.722000, -0.866660
  0.724000, -0.872620
  0.726000, -0.874770
  0.728000, -0.874260
  0.730000, -0.872800
  0.732000, -0.861160
  0.734000, -0.853370
  0.736000, -0.847100
  0.738000, -0.838290
  0.740000, -0.836900
  0.742000, -0.837380
  0.744000, -0.833850
  0.746000, -0.837480
  0.748000, -0.844050
  0.750000, -0.859040
  0.752000, -0.870640
  0.754000, -0.884710
  0.756000, -0.900970
  0.758000, -0.915170
  0.760000, -0.923160
  0.762000, -0.924200
  0.764000, -0.913250
  0.766000, -0.907430
  0.768000, -0.886230
  0.770000, -0.865280
  0.772000, -0.846500
  0.774000, -0.826940
  0.776000, -0.815750
  0.778000, -0.806210
  0.780000, -0.811980
  0.782000, -0.827760
  0.784000, -0.838800
  0.786000, -0.851590
  0.788000, -0.859030
  0.790000, -0.858500
  0.792000, -0.846380
  0.794000, -0.835780
  0.796000, -0.807120
  0.798000, -0.771680
  0.800000, -0.728400
  0.802000, -0.675440
  0.804000, -0.624030
  0.806000, -0.575100
  0.808000, -0.535920
  0.810000, -0.511270
  0.812000, -0.506930
  0.814000, -0.521030
  0.816000, -0.548580
  0.818000, -0.592660
  0.820000, -0.644960
  0.822000, -0.685390
  0.824000, -0.716080
  0.826000, -0.727630
  0.828000, -0.718250
  0.830000, -0.686070
  0.832000, -0.642910
  0.834000, -0.584520
  0.836000, -0.528510
  0.838000, -0.474260
  0.840000, -0.440300
  0.842000, -0.425950
  0.844000, -0.425430
  0.846000, -0.444550
  0.848000, -0.473110
  0.850000, -0.506660
  0.852000, -0.539460
  0.854000, -0.560560
  0.856000, -0.572920
  0.858000, -0.576330
  0.860000, -0.561090
  0.862000, -0.525100
  0.864000, -0.481300
  0.866000, -0.420780
  0.868000, -0.352860
  0.870000, -0.285070
  0.872000, -0.224300
  0.874000, -0.164710
  0.876000, -0.124710
  0.878000, -0.092420
  0.880000, -0.070430
  0.882000, -0.061680
  0.884000, -0.053670
  0.886000, -0.054890
  0.888000, -0.058980
  0.890000, -0.055440
  0.892000, -0.052580
  0.894000, -0.048750
  0.896000, -0.044200
  0.898000, -0.042470
  0.900000, -0.041690
  0.902000, -0.032450
  0.904000, -0.025160
  0.906000, -0.005530
  0.908000,  0.025910
  0.910000,  0.055950
  0.912000,  0.088140
  0.914000,  0.106090
  0.916000,  0.107080
  0.918000,  0.096370
  0.920000,  0.070430
  0.922000,  0.034280
  0.924000, -0.006240
  0.926000, -0.036260
  0.928000, -0.055770
  0.930000, -0.063660
  0.932000, -0.052630
  0.934000, -0.036540
  0.936000, -0.012080
  0.938000,  0.012780
  0.940000,  0.031600
  0.942000,  0.040030
  0.944000,  0.039970
  0.946000,  0.027930
  0.948000,  0.005620
  0.950000, -0.018020
  0.952000, -0.047510
  0.954000, -0.063430
  0.956000, -0.075780
  0.958000, -0.075350
  0.960000, -0.061120
  0.962000, -0.045520
  0.964000, -0.021790
  0.966000,  0.006130
  0.968000,  0.024880
  0.970000,  0.038180
  0.972000,  0.040370
  0.974000,  0.042110
  0.976000,  0.036930
  0.978000,  0.032570
  0.980000,  0.030020
  0.982000,  0.027860
  0.984000,  0.020150
  0.986000,  0.009110
  0.988000,  0.003510
  0.990000, -0.014290
  0.992000, -0.031600
  0.994000, -0.050630
  0.996000, -0.065050
  0.998000, -0.075860
  1.000000, -0.081710
