# z (nm)   (kJ/mol)
  0.084000,254.849240
  0.086000,252.360180
  0.088000,249.891950
  0.090000,250.618010
  0.092000,247.166920
  0.094000,244.260240
  0.096000,241.587320
  0.098000,238.803870
  0.100000,236.095580
  0.102000,233.350540
  0.104000,230.534950
  0.106000,227.652940
  0.108000,224.698940
  0.110000,221.646280
  0.112000,218.503280
  0.114000,215.249840
  0.116000,211.885910
  0.118000,208.402730
  0.120000,204.790360
  0.122000,201.065870
  0.124000,197.222950
  0.126000,193.271640
  0.128000,189.226190
  0.130000,185.100130
  0.132000,180.912310
  0.134000,176.681290
  0.136000,172.439460
  0.138000,168.196480
  0.140000,163.969120
  0.142000,159.763130
  0.144000,155.581780
  0.146000,151.425610
  0.148000,147.303800
  0.150000,143.224810
  0.152000,139.206670
  0.154000,135.270660
  0.156000,131.438110
  0.158000,127.725520
  0.160000,124.139680
  0.162000,120.683740
  0.164000,117.346650
  0.166000,114.108570
  0.168000,110.939220
  0.170000,107.806490
  0.172000,104.683420
  0.174000,101.550150
  0.176000, 98.409390
  0.178000, 95.265920
  0.180000, 92.132120
  0.182000, 89.023820
  0.184000, 85.945480
  0.186000, 82.893780
  0.188000, 79.875300
  0.190000, 76.899610
  0.192000, 73.965410
  0.194000, 71.088680
  0.196000, 68.272880
  0.198000, 65.504510
  0.200000, 62.801060
  0.202000, 60.149460
  0.204000, 57.552240
  0.206000, 55.002190
  0.208000, 52.498740
  0.210000, 50.041710
  0.212000, 47.639820
  0.214000, 45.293960
  0.216000, 42.989030
  0.218000, 40.730140
  0.220000, 38.481480
  0.222000, 36.244630
  0.224000, 34.026460
  0.226000, 31.843000
  0.228000, 29.720280
  0.230000, 27.670050
  0.232000, 25.699040
  0.234000, 23.809090
  0.236000, 21.998480
  0.238000, 20.247060
  0.240000, 18.553800
  0.242000, 16.888710
  0.244000, 15.237240
  0.246000, 13.615100
  0.248000, 12.002830
  0.250000, 10.394950
  0.252000,  8.786680
  0.254000,  7.202370
  0.256000,  5.666360
  0.258000,  4.201310
  0.260000,  2.815450
  0.262000,  1.515260
  0.264000,  0.294010
  0.266000, -0.854960
  0.268000, -1.956340
  0.270000, -3.025270
  0.272000, -4.066340
  0.274000, -5.084000
  0.276000, -6.080690
  0.278000, -7.062490
  0.280000, -7.996210
  0.282000, -8.884750
  0.284000, -9.714900
  0.286000,-10.487910
  0.288000,-11.202640
  0.290000,-11.877210
  0.292000,-12.509490
  0.294000,-13.104370
  0.296000,-13.660140
  0.298000,-14.179750
  0.300000,-14.676170
  0.302000,-15.136760
  0.304000,-15.561810
  0.306000,-15.956970
  0.308000,-16.314750
  0.310000,-16.633500
  0.312000,-16.903180
  0.314000,-17.120850
  0.316000,-17.285910
  0.318000,-17.399420
  0.320000,-17.470650
  0.322000,-17.499240
  0.324000,-17.504390
  0.326000,-17.495160
  0.328000,-17.470870
  0.330000,-17.436380
  0.332000,-17.389380
  0.334000,-17.308680
  0.336000,-17.187410
  0.338000,-17.021580
  0.340000,-16.811760
  0.342000,-16.564250
  0.344000,-16.298750
  0.346000,-16.019260
  0.348000,-15.748480
  0.350000,-15.475300
  0.352000,-15.203430
  0.354000,-14.918180
  0.356000,-14.609750
  0.358000,-14.267040
  0.360000,-13.899610
  0.362000,-13.511080
  0.364000,-13.112450
  0.366000,-12.716620
  0.368000,-12.342510
  0.370000,-11.983510
  0.372000,-11.643440
  0.374000,-11.302630
  0.376000,-10.964520
  0.378000,-10.618220
  0.380000,-10.277840
  0.382000, -9.952610
  0.384000, -9.636040
  0.386000, -9.357750
  0.388000, -9.110090
  0.390000, -8.893760
  0.392000, -8.720410
  0.394000, -8.576760
  0.396000, -8.454750
  0.398000, -8.381610
  0.400000, -8.333740
  0.402000, -8.320510
  0.404000, -8.330610
  0.406000, -8.352900
  0.408000, -8.375630
  0.410000, -8.378220
  0.412000, -8.352500
  0.414000, -8.305450
  0.416000, -8.240140
  0.418000, -8.177090
  0.420000, -8.129670
  0.422000, -8.127590
  0.424000, -8.189780
  0.426000, -8.291050
  0.428000, -8.417650
  0.430000, -8.535080
  0.432000, -8.609510
  0.434000, -8.656930
  0.436000, -8.655240
  0.438000, -8.633790
  0.440000, -8.602220
  0.442000, -8.562450
  0.444000, -8.523510
  0.446000, -8.495670
  0.448000, -8.475950
  0.450000, -8.474050
  0.452000, -8.477900
  0.454000, -8.495710
  0.456000, -8.519460
  0.458000, -8.531070
  0.460000, -8.526940
  0.462000, -8.506920
  0.464000, -8.475340
  0.466000, -8.432790
  0.468000, -8.403410
  0.470000, -8.386910
  0.472000, -8.377660
  0.474000, -8.366860
  0.476000, -8.331770
  0.478000, -8.277470
  0.480000, -8.193630
  0.482000, -8.078100
  0.484000, -7.952060
  0.486000, -7.821040
  0.488000, -7.713190
  0.490000, -7.618120
  0.492000, -7.532620
  0.494000, -7.458180
  0.496000, -7.379140
  0.498000, -7.301220
  0.500000, -7.213610
  0.502000, -7.137340
  0.504000, -7.060430
  0.506000, -6.985550
  0.508000, -6.913180
  0.510000, -6.842930
  0.512000, -6.766220
  0.514000, -6.678680
  0.516000, -6.577520
  0.518000, -6.468300
  0.520000, -6.350070
  0.522000, -6.226930
  0.524000, -6.110390
  0.526000, -5.997010
  0.528000, -5.893510
  0.530000, -5.799990
  0.532000, -5.720450
  0.534000, -5.647810
  0.536000, -5.586860
  0.538000, -5.553620
  0.540000, -5.533300
  0.542000, -5.533790
  0.544000, -5.548610
  0.546000, -5.576850
  0.548000, -5.591210
  0.550000, -5.580700
  0.552000, -5.525020
  0.554000, -5.427780
  0.556000, -5.306540
  0.558000, -5.174300
  0.560000, -5.060960
  0.562000, -4.969600
  0.564000, -4.897930
  0.566000, -4.839940
  0.568000, -4.786000
  0.570000, -4.729690
  0.572000, -4.670110
  0.574000, -4.622760
  0.576000, -4.590600
  0.578000, -4.575640
  0.580000, -4.548340
  0.582000, -4.512580
  0.584000, -4.446210
  0.586000, -4.346540
  0.588000, -4.212710
  0.590000, -4.054540
  0.592000, -3.888800
  0.594000, -3.734470
  0.596000, -3.602420
  0.598000, -3.501870
  0.600000, -3.421890
  0.602000, -3.361820
  0.604000, -3.302970
  0.606000, -3.235870
  0.608000, -3.144220
  0.610000, -3.033390
  0.612000, -2.899170
  0.614000, -2.741850
  0.616000, -2.577160
  0.618000, -2.411960
  0.620000, -2.251030
  0.622000, -2.094600
  0.624000, -1.961670
  0.626000, -1.838890
  0.628000, -1.724610
  0.630000, -1.624260
  0.632000, -1.523350
  0.634000, -1.420620
  0.636000, -1.327110
  0.638000, -1.230870
  0.640000, -1.132260
  0.642000, -1.040130
  0.644000, -0.940260
  0.646000, -0.844640
  0.648000, -0.754270
  0.650000, -0.658820
  0.652000, -0.560980
  0.654000, -0.469340
  0.656000, -0.375050
  0.658000, -0.284970
  0.660000, -0.195960
  0.662000, -0.097780
  0.664000, -0.000520
  0.666000,  0.097630
  0.668000,  0.198010
  0.670000,  0.294360
  0.672000,  0.383550
  0.674000,  0.463560
  0.676000,  0.535230
  0.678000,  0.601460
  0.680000,  0.659960
  0.682000,  0.709980
  0.684000,  0.757270
  0.686000,  0.792170
  0.688000,  0.816200
  0.690000,  0.845830
  0.692000,  0.868680
  0.694000,  0.886180
  0.696000,  0.900340
  0.698000,  0.912260
  0.700000,  0.933020
  0.702000,  0.955570
  0.704000,  0.971850
  0.706000,  0.984980
  0.708000,  0.993190
  0.710000,  0.995520
  0.712000,  0.986590
  0.714000,  0.969390
  0.716000,  0.932990
  0.718000,  0.894890
  0.720000,  0.856220
  0.722000,  0.814940
  0.724000,  0.781630
  0.726000,  0.745470
  0.728000,  0.715170
  0.730000,  0.690580
  0.732000,  0.671610
  0.734000,  0.651220
  0.736000,  0.637270
  0.738000,  0.617110
  0.740000,  0.591420
  0.742000,  0.561340
  0.744000,  0.522070
  0.746000,  0.475220
  0.748000,  0.428730
  0.750000,  0.376660
  0.752000,  0.330790
  0.754000,  0.290090
  0.756000,  0.250240
  0.758000,  0.211940
  0.760000,  0.187400
  0.762000,  0.163450
  0.764000,  0.148930
  0.766000,  0.136050
  0.768000,  0.125950
  0.770000,  0.117320
  0.772000,  0.100910
  0.774000,  0.081050
  0.776000,  0.053060
  0.778000,  0.014530
  0.780000, -0.025480
  0.782000, -0.077120
  0.784000, -0.130220
  0.786000, -0.174960
  0.788000, -0.225360
  0.790000, -0.273020
  0.792000, -0.317760
  0.794000, -0.349650
  0.796000, -0.372790
  0.798000, -0.388450
  0.800000, -0.399010
  0.802000, -0.408620
  0.804000, -0.407560
  0.806000, -0.407420
  0.808000, -0.409320
  0.810000, -0.410910
  0.812000, -0.410670
  0.814000, -0.416360
  0.816000, -0.426320
  0.818000, -0.436720
  0.820000, -0.456700
  0.822000, -0.473360
  0.824000, -0.499820
  0.826000, -0.511340
  0.828000, -0.519610
  0.830000, -0.518090
  0.832000, -0.506980
  0.834000, -0.484340
  0.836000, -0.468520
  0.838000, -0.451760
  0.840000, -0.434710
  0.842000, -0.419930
  0.844000, -0.409190
  0.846000, -0.402540
  0.848000, -0.404040
  0.850000, -0.397770
  0.852000, -0.401460
  0.854000, -0.405830
  0.856000, -0.403580
  0.858000, -0.397950
  0.860000, -0.388980
  0.862000, -0.367930
  0.864000, -0.336370
  0.866000, -0.303130
  0.868000, -0.266100
  0.870000, -0.245030
  0.872000, -0.236770
  0.874000, -0.243550
  0.876000, -0.259540
  0.878000, -0.275990
  0.880000, -0.282900
  0.882000, -0.286540
  0.884000, -0.277630
  0.886000, -0.268870
  0.888000, -0.262680
  0.890000, -0.271210
  0.892000, -0.283590
  0.894000, -0.306650
  0.896000, -0.333510
  0.898000, -0.346910
  0.900000, -0.340800
  0.902000, -0.321320
  0.904000, -0.286660
  0.906000, -0.254540
  0.908000, -0.225500
  0.910000, -0.209130
  0.912000, -0.203070
  0.914000, -0.207930
  0.916000, -0.216480
  0.918000, -0.231370
  0.920000, -0.240310
  0.922000, -0.241200
  0.924000, -0.231980
  0.926000, -0.220170
  0.928000, -0.204120
  0.930000, -0.187390
  0.932000, -0.168700
  0.934000, -0.144450
  0.936000, -0.118610
  0.938000, -0.091420
  0.940000, -0.056790
  0.942000, -0.021930
  0.944000,  0.005730
  0.946000,  0.033560
  0.948000,  0.056090
  0.950000,  0.075560
  0.952000,  0.086190
  0.954000,  0.097200
  0.956000,  0.107760
  0.958000,  0.115300
  0.960000,  0.126670
  0.962000,  0.130430
  0.964000,  0.127760
  0.966000,  0.127060
  0.968000,  0.124860
  0.970000,  0.130440
  0.972000,  0.130160
  0.974000,  0.138350
  0.976000,  0.146870
  0.978000,  0.161630
  0.980000,  0.178830
  0.982000,  0.195810
  0.984000,  0.204550
  0.986000,  0.211140
  0.988000,  0.220030
  0.990000,  0.225040
  0.992000,  0.222480
  0.994000,  0.215260
  0.996000,  0.191850
  0.998000,  0.164810
  1.000000,  0.131640
