# PMF between COM of ASER and SiO2 slab.
#
#               PMF
# z (nm)   (kJ/mol)   
  0.005  143.560783
  0.010  137.727543
  0.015  132.310379
  0.020  127.251329
  0.025  122.507917
  0.030  118.084300
  0.035  113.998250
  0.040  110.224811
  0.045  106.676711
  0.050  103.330380
  0.055  100.283673
  0.060   97.663625
  0.065   95.415540
  0.070   93.288047
  0.075   91.125517
  0.080   88.962314
  0.085   86.814270
  0.090   84.584179
  0.095   82.165028
  0.100   79.507894
  0.105   76.622173
  0.110   73.496530
  0.115   70.136192
  0.120   66.574168
  0.125   62.890214
  0.130   59.186362
  0.135   55.580766
  0.140   52.180758
  0.145   49.061577
  0.150   46.226771
  0.155   43.608493
  0.160   41.128454
  0.165   38.739927
  0.170   36.486939
  0.175   34.440189
  0.180   32.638811
  0.185   31.042096
  0.190   29.531148
  0.195   27.981874
  0.200   26.343127
  0.205   24.683163
  0.210   23.089443
  0.215   21.627174
  0.220   20.254606
  0.225   18.911594
  0.230   17.559694
  0.235   16.200170
  0.240   14.864010
  0.245   13.566972
  0.250   12.407438
  0.255   11.422105
  0.260   10.608885
  0.265    9.820172
  0.270    8.951007
  0.275    7.994667
  0.280    7.100195
  0.285    6.353711
  0.290    5.688526
  0.295    5.011157
  0.300    4.272510
  0.305    3.514498
  0.310    2.795035
  0.315    2.183601
  0.320    1.671469
  0.325    1.242032
  0.330    0.856931
  0.335    0.479734
  0.340    0.117274
  0.345   -0.211913
  0.350   -0.499063
  0.355   -0.730217
  0.360   -0.934006
  0.365   -1.140305
  0.370   -1.357715
  0.375   -1.577535
  0.380   -1.776203
  0.385   -1.929479
  0.390   -2.020903
  0.395   -2.076920
  0.400   -2.132438
  0.405   -2.235885
  0.410   -2.388897
  0.415   -2.556178
  0.420   -2.649250
  0.425   -2.639929
  0.430   -2.548524
  0.435   -2.436388
  0.440   -2.340651
  0.445   -2.280429
  0.450   -2.233298
  0.455   -2.189796
  0.460   -2.139170
  0.465   -2.074457
  0.470   -1.978932
  0.475   -1.848618
  0.480   -1.695652
  0.485   -1.559264
  0.490   -1.456478
  0.495   -1.399969
  0.500   -1.366437
  0.505   -1.342089
  0.510   -1.319235
  0.515   -1.281433
  0.520   -1.199496
  0.525   -1.079151
  0.530   -0.942095
  0.535   -0.807932
  0.540   -0.697012
  0.545   -0.592146
  0.550   -0.491260
  0.555   -0.391470
  0.560   -0.304560
  0.565   -0.225214
  0.570   -0.141407
  0.575   -0.048903
  0.580    0.031981
  0.585    0.085471
  0.590    0.107336
  0.595    0.104185
  0.600    0.098378
  0.605    0.099589
  0.610    0.104349
  0.615    0.119277
  0.620    0.134657
  0.625    0.160529
  0.630    0.183609
  0.635    0.190930
  0.640    0.174225
  0.645    0.132815
  0.650    0.088705
  0.655    0.056079
  0.660    0.036051
  0.665    0.021600
  0.670    0.008506
  0.675   -0.000455
  0.680   -0.004548
  0.685    0.000012
  0.690   -0.004397
  0.695   -0.018482
  0.700   -0.026444
  0.705   -0.048097
  0.710   -0.072186
  0.715   -0.098201
  0.720   -0.135145
  0.725   -0.172840
  0.730   -0.195190
  0.735   -0.189662
  0.740   -0.154359
  0.745   -0.096937
  0.750   -0.050423
  0.755   -0.031985
  0.760   -0.038107
  0.765   -0.056709
  0.770   -0.070007
  0.775   -0.068494
  0.780   -0.054507
  0.785   -0.035205
  0.790   -0.013800
  0.795    0.001613
  0.800    0.010835
  0.805    0.020960
  0.810    0.039211
  0.815    0.073123
  0.820    0.105784
  0.825    0.142502
  0.830    0.171463
  0.835    0.182940
  0.840    0.181972
  0.845    0.167579
  0.850    0.149047
  0.855    0.116041
  0.860    0.094756
  0.865    0.070448
  0.870    0.069905
  0.875    0.087057
  0.880    0.125719
  0.885    0.175839
  0.890    0.224345
  0.895    0.259243
  0.900    0.278035
  0.905    0.263903
  0.910    0.221053
  0.915    0.178047
  0.920    0.136445
  0.925    0.116455
  0.930    0.127837
  0.935    0.168487
  0.940    0.213800
  0.945    0.248930
  0.950    0.252732
  0.955    0.233513
  0.960    0.203145
  0.965    0.184822
  0.970    0.176132
  0.975    0.174086
  0.980    0.164572
  0.985    0.148935
  0.990    0.142591
  0.995    0.143972
  1.000    0.150944
  1.005    0.151632
  1.010    0.150962
  1.015    0.145344
  1.020    0.141333
  1.025    0.144576
  1.030    0.161814
  1.035    0.191425
  1.040    0.225000
  1.045    0.243887
  1.050    0.240750
  1.055    0.220239
  1.060    0.187894
  1.065    0.168779
  1.070    0.168012
  1.075    0.196848
  1.080    0.235122
  1.085    0.274481
  1.090    0.302411
  1.095    0.312239
  1.100    0.301551
  1.105    0.277972
  1.110    0.249848
  1.115    0.225141
  1.120    0.204311
  1.125    0.191759
  1.130    0.186853
  1.135    0.192679
  1.140    0.195323
  1.145    0.192305
  1.150    0.185167
  1.155    0.167215
  1.160    0.151321
  1.165    0.141274
  1.170    0.152794
  1.175    0.189654
  1.180    0.253569
  1.185    0.292831
  1.190    0.270843
  1.195    0.159782
  1.200    0.017888
  1.205   -0.062882
  1.210   -0.012019
  1.215    0.122444
  1.220    0.261979
  1.225    0.327436
  1.230    0.309963
  1.235    0.239118
  1.240    0.174871
  1.245    0.137531
  1.250    0.126156
  1.255    0.141664
  1.260    0.165146
  1.265    0.188183
  1.270    0.205037
  1.275    0.200320
  1.280    0.179010
  1.285    0.146630
  1.290    0.115164
  1.295    0.101997
  1.300    0.100877
  1.305    0.123790
  1.310    0.147720
  1.315    0.189594
  1.320    0.219819
  1.325    0.235498
  1.330    0.216269
  1.335    0.175147
  1.340    0.114754
  1.345    0.074478
  1.350    0.060235
  1.355    0.075668
  1.360    0.112972
  1.365    0.152890
  1.370    0.186092
  1.375    0.193355
  1.380    0.175112
  1.385    0.134297
  1.390    0.075604
  1.395    0.028341
  1.400   -0.012754
  1.405   -0.030266
  1.410   -0.032159
  1.415   -0.027938
  1.420   -0.020905
  1.425   -0.024568
  1.430   -0.037664
  1.435   -0.056405
  1.440   -0.073836
  1.445   -0.096863
  1.450   -0.114924
  1.455   -0.117414
  1.460   -0.101807
  1.465   -0.076011
  1.470   -0.034842
  1.475   -0.013681
  1.480   -0.014447
  1.485   -0.034342
  1.490   -0.055588
  1.495   -0.072887
  1.500   -0.085026
