# z (nm)   (kJ/mol)
  0.0760  265.24857
  0.0780  262.78548
  0.0800  260.09347
  0.0820  257.64085
  0.0840  255.08661
  0.0860  252.52461
  0.0880  249.96640
  0.0900  247.33719
  0.0920  244.70777
  0.0940  242.00361
  0.0960  239.23542
  0.0980  236.38456
  0.1000  233.43261
  0.1020  230.37473
  0.1040  227.19244
  0.1060  223.87400
  0.1080  220.41384
  0.1100  216.81095
  0.1120  213.05713
  0.1140  209.15285
  0.1160  205.10177
  0.1180  200.90129
  0.1200  196.56929
  0.1220  192.12338
  0.1240  187.57987
  0.1260  182.96994
  0.1280  178.32262
  0.1300  173.68165
  0.1320  169.07275
  0.1340  164.52608
  0.1360  160.05913
  0.1380  155.68412
  0.1400  151.39636
  0.1420  147.19137
  0.1440  143.06703
  0.1460  139.01508
  0.1480  135.04279
  0.1500  131.15659
  0.1520  127.37395
  0.1540  123.72889
  0.1560  120.23755
  0.1580  116.91041
  0.1600  113.72287
  0.1620  110.62703
  0.1640  107.55484
  0.1660  104.43136
  0.1680  101.21719
  0.1700   97.90147
  0.1720   94.50721
  0.1740   91.07089
  0.1760   87.64736
  0.1780   84.27528
  0.1800   80.98706
  0.1820   77.79830
  0.1840   74.71859
  0.1860   71.74087
  0.1880   68.85830
  0.1900   66.05592
  0.1920   63.31693
  0.1940   60.63792
  0.1960   57.98722
  0.1980   55.36698
  0.2000   52.76200
  0.2020   50.17587
  0.2040   47.60274
  0.2060   45.05300
  0.2080   42.53455
  0.2100   40.07151
  0.2120   37.68004
  0.2140   35.37379
  0.2160   33.14882
  0.2180   31.01026
  0.2200   28.92471
  0.2220   26.88862
  0.2240   24.88899
  0.2260   22.92416
  0.2280   20.99954
  0.2300   19.11714
  0.2320   17.27576
  0.2340   15.46564
  0.2360   13.68787
  0.2380   11.94001
  0.2400   10.22082
  0.2420    8.53431
  0.2440    6.90037
  0.2460    5.35194
  0.2480    3.90461
  0.2500    2.56736
  0.2520    1.31308
  0.2540    0.10414
  0.2560   -1.08522
  0.2580   -2.29039
  0.2600   -3.50525
  0.2620   -4.71844
  0.2640   -5.90738
  0.2660   -7.03430
  0.2680   -8.08045
  0.2700   -9.02213
  0.2720   -9.88971
  0.2740  -10.69888
  0.2760  -11.46876
  0.2780  -12.22153
  0.2800  -12.95995
  0.2820  -13.67804
  0.2840  -14.37382
  0.2860  -15.03969
  0.2880  -15.67320
  0.2900  -16.26517
  0.2920  -16.82511
  0.2940  -17.34761
  0.2960  -17.84336
  0.2980  -18.28576
  0.3000  -18.68732
  0.3020  -19.03251
  0.3040  -19.32843
  0.3060  -19.58098
  0.3080  -19.79979
  0.3100  -20.00020
  0.3120  -20.21017
  0.3140  -20.43731
  0.3160  -20.68497
  0.3180  -20.94699
  0.3200  -21.20219
  0.3220  -21.42342
  0.3240  -21.57913
  0.3260  -21.66134
  0.3280  -21.66919
  0.3300  -21.62654
  0.3320  -21.57724
  0.3340  -21.54389
  0.3360  -21.55694
  0.3380  -21.59399
  0.3400  -21.62957
  0.3420  -21.61619
  0.3440  -21.49522
  0.3460  -21.25621
  0.3480  -20.92034
  0.3500  -20.61193
  0.3520  -20.57398
  0.3540  -21.01347
  0.3560  -21.60076
  0.3580  -21.58705
  0.3600  -20.76619
  0.3620  -19.79107
  0.3640  -19.19732
  0.3660  -18.94776
  0.3680  -18.83595
  0.3700  -18.71134
  0.3720  -18.55125
  0.3740  -18.34846
  0.3760  -18.10707
  0.3780  -17.83082
  0.3800  -17.52447
  0.3820  -17.19103
  0.3840  -16.84080
  0.3860  -16.48852
  0.3880  -16.14475
  0.3900  -15.81033
  0.3920  -15.50819
  0.3940  -15.21286
  0.3960  -14.94797
  0.3980  -14.68895
  0.4000  -14.44273
  0.4020  -14.20322
  0.4040  -13.96789
  0.4060  -13.73382
  0.4080  -13.51822
  0.4100  -13.30739
  0.4120  -13.10916
  0.4140  -12.91953
  0.4160  -12.73882
  0.4180  -12.57082
  0.4200  -12.41220
  0.4220  -12.26269
  0.4240  -12.11901
  0.4260  -11.98245
  0.4280  -11.85462
  0.4300  -11.73866
  0.4320  -11.63476
  0.4340  -11.54376
  0.4360  -11.46225
  0.4380  -11.38647
  0.4400  -11.30833
  0.4420  -11.23730
  0.4440  -11.15946
  0.4460  -11.07604
  0.4480  -10.99167
  0.4500  -10.89601
  0.4520  -10.79599
  0.4540  -10.68962
  0.4560  -10.58188
  0.4580  -10.47871
  0.4600  -10.38027
  0.4620  -10.28927
  0.4640  -10.20730
  0.4660  -10.13399
  0.4680  -10.06387
  0.4700  -10.00243
  0.4720   -9.93322
  0.4740   -9.85999
  0.4760   -9.78118
  0.4780   -9.69751
  0.4800   -9.60417
  0.4820   -9.50706
  0.4840   -9.40686
  0.4860   -9.30034
  0.4880   -9.19266
  0.4900   -9.08231
  0.4920   -8.97863
  0.4940   -8.87292
  0.4960   -8.77099
  0.4980   -8.66399
  0.5000   -8.54963
  0.5020   -8.43102
  0.5040   -8.30280
  0.5060   -8.16716
  0.5080   -8.02719
  0.5100   -7.87882
  0.5120   -7.73613
  0.5140   -7.59537
  0.5160   -7.45891
  0.5180   -7.32895
  0.5200   -7.20031
  0.5220   -7.08214
  0.5240   -6.96111
  0.5260   -6.84739
  0.5280   -6.72868
  0.5300   -6.60280
  0.5320   -6.47147
  0.5340   -6.33363
  0.5360   -6.19799
  0.5380   -6.05956
  0.5400   -5.92156
  0.5420   -5.78972
  0.5440   -5.65650
  0.5460   -5.52719
  0.5480   -5.41004
  0.5500   -5.28508
  0.5520   -5.17538
  0.5540   -5.07056
  0.5560   -4.96470
  0.5580   -4.86075
  0.5600   -4.75956
  0.5620   -4.65791
  0.5640   -4.55785
  0.5660   -4.44840
  0.5680   -4.35308
  0.5700   -4.25836
  0.5720   -4.16940
  0.5740   -4.09607
  0.5760   -4.02510
  0.5780   -3.94962
  0.5800   -3.86926
  0.5820   -3.78656
  0.5840   -3.71744
  0.5860   -3.64798
  0.5880   -3.58237
  0.5900   -3.53145
  0.5920   -3.48540
  0.5940   -3.45092
  0.5960   -3.42779
  0.5980   -3.40977
  0.6000   -3.39260
  0.6020   -3.36558
  0.6040   -3.32213
  0.6060   -3.26332
  0.6080   -3.18524
  0.6100   -3.09286
  0.6120   -2.97680
  0.6140   -2.86158
  0.6160   -2.73687
  0.6180   -2.62392
  0.6200   -2.51728
  0.6220   -2.42623
  0.6240   -2.35124
  0.6260   -2.29615
  0.6280   -2.24386
  0.6300   -2.18108
  0.6320   -2.11040
  0.6340   -2.02897
  0.6360   -1.92785
  0.6380   -1.81462
  0.6400   -1.69473
  0.6420   -1.57620
  0.6440   -1.46625
  0.6460   -1.36546
  0.6480   -1.27834
  0.6500   -1.19496
  0.6520   -1.11987
  0.6540   -1.05342
  0.6560   -0.98487
  0.6580   -0.91092
  0.6600   -0.83848
  0.6620   -0.76344
  0.6640   -0.69033
  0.6660   -0.62151
  0.6680   -0.56315
  0.6700   -0.51000
  0.6720   -0.46312
  0.6740   -0.41697
  0.6760   -0.36574
  0.6780   -0.30109
  0.6800   -0.22346
  0.6820   -0.13947
  0.6840   -0.05570
  0.6860    0.00708
  0.6880    0.04314
  0.6900    0.05151
  0.6920    0.02762
  0.6940   -0.01993
  0.6960   -0.08446
  0.6980   -0.14096
  0.7000   -0.19359
  0.7020   -0.21441
  0.7040   -0.21234
  0.7060   -0.18185
  0.7080   -0.13783
  0.7100   -0.08260
  0.7120   -0.02722
  0.7140    0.01048
  0.7160    0.03271
  0.7180    0.01102
  0.7200   -0.03347
  0.7220   -0.10420
  0.7240   -0.19649
  0.7260   -0.29913
  0.7280   -0.39806
  0.7300   -0.47244
  0.7320   -0.52288
  0.7340   -0.54297
  0.7360   -0.53510
  0.7380   -0.50679
  0.7400   -0.47168
  0.7420   -0.44083
  0.7440   -0.42007
  0.7460   -0.42533
  0.7480   -0.44909
  0.7500   -0.49012
  0.7520   -0.53315
  0.7540   -0.58478
  0.7560   -0.63570
  0.7580   -0.68077
  0.7600   -0.72092
  0.7620   -0.75483
  0.7640   -0.77575
  0.7660   -0.78459
  0.7680   -0.78436
  0.7700   -0.77658
  0.7720   -0.76073
  0.7740   -0.73518
  0.7760   -0.70314
  0.7780   -0.67064
  0.7800   -0.63648
  0.7820   -0.60074
  0.7840   -0.57219
  0.7860   -0.54792
  0.7880   -0.52926
  0.7900   -0.52278
  0.7920   -0.52581
  0.7940   -0.54244
  0.7960   -0.56695
  0.7980   -0.60046
  0.8000   -0.64108
  0.8020   -0.68066
  0.8040   -0.71842
  0.8060   -0.74480
  0.8080   -0.75195
  0.8100   -0.74248
  0.8120   -0.71842
  0.8140   -0.68103
  0.8160   -0.63356
  0.8180   -0.57950
  0.8200   -0.53154
  0.8220   -0.48438
  0.8240   -0.44100
  0.8260   -0.40414
  0.8280   -0.37705
  0.8300   -0.36380
  0.8320   -0.35258
  0.8340   -0.36253
  0.8360   -0.37442
  0.8380   -0.38358
  0.8400   -0.38802
  0.8420   -0.39948
  0.8440   -0.39851
  0.8460   -0.39197
  0.8480   -0.37505
  0.8500   -0.34763
  0.8520   -0.31399
  0.8540   -0.27252
  0.8560   -0.22368
  0.8580   -0.16742
  0.8600   -0.12068
  0.8620   -0.07853
  0.8640   -0.04864
  0.8660   -0.03169
  0.8680   -0.03286
  0.8700   -0.04384
  0.8720   -0.07067
  0.8740   -0.10052
  0.8760   -0.12695
  0.8780   -0.14900
  0.8800   -0.16287
  0.8820   -0.15844
  0.8840   -0.14624
  0.8860   -0.11860
  0.8880   -0.08954
  0.8900   -0.05036
  0.8920   -0.00405
  0.8940    0.03778
  0.8960    0.07892
  0.8980    0.11251
  0.9000    0.13634
  0.9020    0.14619
  0.9040    0.14006
  0.9060    0.12440
  0.9080    0.10335
  0.9100    0.06778
  0.9120    0.03523
  0.9140    0.00018
  0.9160   -0.02464
  0.9180   -0.03949
  0.9200   -0.04224
  0.9220   -0.03563
  0.9240   -0.02433
  0.9260   -0.00392
  0.9280    0.01476
  0.9300    0.03093
  0.9320    0.04180
  0.9340    0.04238
  0.9360    0.03698
  0.9380    0.03210
  0.9400    0.02599
  0.9420    0.01908
  0.9440    0.00991
  0.9460    0.00032
  0.9480   -0.00190
  0.9500   -0.00101
  0.9520    0.00279
  0.9540    0.01092
  0.9560    0.01421
  0.9580    0.01973
  0.9600    0.02128
  0.9620    0.02212
  0.9640    0.02724
  0.9660    0.02739
  0.9680    0.02551
  0.9700    0.02265
  0.9720    0.01139
  0.9740    0.00264
  0.9760   -0.00558
  0.9780   -0.02770
  0.9800   -0.04944
  0.9820   -0.06657
  0.9840   -0.08903
  0.9860   -0.09581
  0.9880   -0.10043
  0.9900   -0.09123
  0.9920   -0.08801
  0.9940   -0.08070
  0.9960   -0.07458
  0.9980   -0.06841
  1.0000   -0.06860
