# z (nm)   (kJ/mol)
  0.057000,  9.372200
  0.065000,  8.907900
  0.067000,  8.665900
  0.069000,  8.381800
  0.071000,  8.067500
  0.073000,  7.739000
  0.075000,  7.416300
  0.077000,  7.098000
  0.079000,  6.758400
  0.081000,  6.413500
  0.083000,  6.072600
  0.085000,  5.727700
  0.087000,  5.377600
  0.089000,  5.025300
  0.091000,  4.670200
  0.093000,  4.317300
  0.095000,  3.967900
  0.097000,  3.609600
  0.099000,  3.250000
  0.101000,  2.893000
  0.103000,  2.539600
  0.105000,  2.187700
  0.107000,  1.834600
  0.109000,  1.486000
  0.111000,  1.143200
  0.113000,  0.803900
  0.115000,  0.468800
  0.117000,  0.140300
  0.119000, -0.183800
  0.121000, -0.504300
  0.123000, -0.815700
  0.125000, -1.120800
  0.127000, -1.421900
  0.129000, -1.714300
  0.131000, -1.997900
  0.133000, -2.273400
  0.135000, -2.542600
  0.137000, -2.805900
  0.139000, -3.060400
  0.141000, -3.304000
  0.143000, -3.538700
  0.145000, -3.765300
  0.147000, -3.982600
  0.149000, -4.190900
  0.151000, -4.390100
  0.153000, -4.578800
  0.155000, -4.757800
  0.157000, -4.927600
  0.159000, -5.087500
  0.161000, -5.238000
  0.163000, -5.378400
  0.165000, -5.508700
  0.167000, -5.629700
  0.169000, -5.741000
  0.171000, -5.842600
  0.173000, -5.934500
  0.175000, -6.016800
  0.177000, -6.089200
  0.179000, -6.151900
  0.181000, -6.205400
  0.183000, -6.249700
  0.185000, -6.284600
  0.187000, -6.310700
  0.189000, -6.328400
  0.191000, -6.337500
  0.193000, -6.338000
  0.195000, -6.330000
  0.197000, -6.314000
  0.199000, -6.290700
  0.201000, -6.260500
  0.203000, -6.223400
  0.205000, -6.179600
  0.207000, -6.128600
  0.209000, -6.070700
  0.211000, -6.007100
  0.213000, -5.937600
  0.215000, -5.862200
  0.217000, -5.781800
  0.219000, -5.696900
  0.221000, -5.607100
  0.223000, -5.513200
  0.225000, -5.415900
  0.227000, -5.315000
  0.229000, -5.210900
  0.231000, -5.103900
  0.233000, -4.994100
  0.235000, -4.880900
  0.237000, -4.765400
  0.239000, -4.648300
  0.241000, -4.529500
  0.243000, -4.409400
  0.245000, -4.287800
  0.247000, -4.164800
  0.249000, -4.040500
  0.251000, -3.914700
  0.253000, -3.789000
  0.255000, -3.663500
  0.257000, -3.537700
  0.259000, -3.411800
  0.261000, -3.285600
  0.263000, -3.159500
  0.265000, -3.034200
  0.267000, -2.909400
  0.269000, -2.785400
  0.271000, -2.662200
  0.273000, -2.539600
  0.275000, -2.417700
  0.277000, -2.296800
  0.279000, -2.176900
  0.281000, -2.058600
  0.283000, -1.941500
  0.285000, -1.825500
  0.287000, -1.711200
  0.289000, -1.598100
  0.291000, -1.486300
  0.293000, -1.376200
  0.295000, -1.267600
  0.297000, -1.160500
  0.299000, -1.055200
  0.301000, -0.951700
  0.303000, -0.850200
  0.305000, -0.750300
  0.307000, -0.651900
  0.309000, -0.554900
  0.311000, -0.460000
  0.313000, -0.367100
  0.315000, -0.275800
  0.317000, -0.186200
  0.319000, -0.098600
  0.321000, -0.012900
  0.323000,  0.070800
  0.325000,  0.152700
  0.327000,  0.232300
  0.329000,  0.310000
  0.331000,  0.385900
  0.333000,  0.459500
  0.335000,  0.530800
  0.337000,  0.599800
  0.339000,  0.666900
  0.341000,  0.732100
  0.343000,  0.795200
  0.345000,  0.856300
  0.347000,  0.915500
  0.349000,  0.972300
  0.351000,  1.026600
  0.353000,  1.078600
  0.355000,  1.128500
  0.357000,  1.176200
  0.359000,  1.221200
  0.361000,  1.263900
  0.363000,  1.304600
  0.365000,  1.342600
  0.367000,  1.378000
  0.369000,  1.410700
  0.371000,  1.441300
  0.373000,  1.469500
  0.375000,  1.495200
  0.377000,  1.518400
  0.379000,  1.539000
  0.381000,  1.557000
  0.383000,  1.572200
  0.385000,  1.584700
  0.387000,  1.594700
  0.389000,  1.602200
  0.391000,  1.607100
  0.393000,  1.609400
  0.395000,  1.609000
  0.397000,  1.606200
  0.399000,  1.600700
  0.401000,  1.592500
  0.403000,  1.581800
  0.405000,  1.568700
  0.407000,  1.553100
  0.409000,  1.535300
  0.411000,  1.515000
  0.413000,  1.492300
  0.415000,  1.467300
  0.417000,  1.440000
  0.419000,  1.410600
  0.421000,  1.379200
  0.423000,  1.345600
  0.425000,  1.310200
  0.427000,  1.272900
  0.429000,  1.234100
  0.431000,  1.193800
  0.433000,  1.151500
  0.435000,  1.107900
  0.437000,  1.063500
  0.439000,  1.017600
  0.441000,  0.970600
  0.443000,  0.922800
  0.445000,  0.873900
  0.447000,  0.824200
  0.449000,  0.773800
  0.451000,  0.722700
  0.453000,  0.671100
  0.455000,  0.619100
  0.457000,  0.567100
  0.459000,  0.514600
  0.461000,  0.462000
  0.463000,  0.410000
  0.465000,  0.358500
  0.467000,  0.307200
  0.469000,  0.256300
  0.471000,  0.206200
  0.473000,  0.156400
  0.475000,  0.107200
  0.477000,  0.059400
  0.479000,  0.012400
  0.481000, -0.033500
  0.483000, -0.078300
  0.485000, -0.122200
  0.487000, -0.164800
  0.489000, -0.206100
  0.491000, -0.246000
  0.493000, -0.284300
  0.495000, -0.321300
  0.497000, -0.356800
  0.499000, -0.390500
  0.501000, -0.422700
  0.503000, -0.453500
  0.505000, -0.482400
  0.507000, -0.509500
  0.509000, -0.534900
  0.511000, -0.558600
  0.513000, -0.580700
  0.515000, -0.601100
  0.517000, -0.619600
  0.519000, -0.636400
  0.521000, -0.651500
  0.523000, -0.664900
  0.525000, -0.676500
  0.527000, -0.686400
  0.529000, -0.694700
  0.531000, -0.701400
  0.533000, -0.706600
  0.535000, -0.710200
  0.537000, -0.712300
  0.539000, -0.712900
  0.541000, -0.712000
  0.543000, -0.709800
  0.545000, -0.706200
  0.547000, -0.701000
  0.549000, -0.694600
  0.551000, -0.687200
  0.553000, -0.678700
  0.555000, -0.668900
  0.557000, -0.658100
  0.559000, -0.646400
  0.561000, -0.633800
  0.563000, -0.620200
  0.565000, -0.605600
  0.567000, -0.590200
  0.569000, -0.573900
  0.571000, -0.556900
  0.573000, -0.539600
  0.575000, -0.521500
  0.577000, -0.502800
  0.579000, -0.483600
  0.581000, -0.464000
  0.583000, -0.443700
  0.585000, -0.423000
  0.587000, -0.401900
  0.589000, -0.380400
  0.591000, -0.358900
  0.593000, -0.337200
  0.595000, -0.315500
  0.597000, -0.293600
  0.599000, -0.271300
  0.601000, -0.249200
  0.603000, -0.227100
  0.605000, -0.205100
  0.607000, -0.183000
  0.609000, -0.160900
  0.611000, -0.139100
  0.613000, -0.117700
  0.615000, -0.096400
  0.617000, -0.075100
  0.619000, -0.054300
  0.621000, -0.033700
  0.623000, -0.013300
  0.625000,  0.006700
  0.627000,  0.026200
  0.629000,  0.045500
  0.631000,  0.064300
  0.633000,  0.082900
  0.635000,  0.100900
  0.637000,  0.118500
  0.639000,  0.135600
  0.641000,  0.152000
  0.643000,  0.167800
  0.645000,  0.183200
  0.647000,  0.198100
  0.649000,  0.212400
  0.651000,  0.226000
  0.653000,  0.239000
  0.655000,  0.251300
  0.657000,  0.263100
  0.659000,  0.274200
  0.661000,  0.284500
  0.663000,  0.294300
  0.665000,  0.303400
  0.667000,  0.311700
  0.669000,  0.319500
  0.671000,  0.326600
  0.673000,  0.333000
  0.675000,  0.338800
  0.677000,  0.343900
  0.679000,  0.348200
  0.681000,  0.351900
  0.683000,  0.354900
  0.685000,  0.357200
  0.687000,  0.358900
  0.689000,  0.360000
  0.691000,  0.360400
  0.693000,  0.360100
  0.695000,  0.359200
  0.697000,  0.357700
  0.699000,  0.355500
  0.701000,  0.352600
  0.703000,  0.349100
  0.705000,  0.345000
  0.707000,  0.340300
  0.709000,  0.335000
  0.711000,  0.329100
  0.713000,  0.322700
  0.715000,  0.315800
  0.717000,  0.308400
  0.719000,  0.300500
  0.721000,  0.292000
  0.723000,  0.283100
  0.725000,  0.273800
  0.727000,  0.264000
  0.729000,  0.253800
  0.731000,  0.243300
  0.733000,  0.232500
  0.735000,  0.221300
  0.737000,  0.209800
  0.739000,  0.198100
  0.741000,  0.186000
  0.743000,  0.173600
  0.745000,  0.161000
  0.747000,  0.148300
  0.749000,  0.135500
  0.751000,  0.122500
  0.753000,  0.109500
  0.755000,  0.096500
  0.757000,  0.083400
  0.759000,  0.070400
  0.761000,  0.057200
  0.763000,  0.044100
  0.765000,  0.031200
  0.767000,  0.018400
  0.769000,  0.005700
  0.771000, -0.006800
  0.773000, -0.019100
  0.775000, -0.031100
  0.777000, -0.043000
  0.779000, -0.054500
  0.781000, -0.065700
  0.783000, -0.076700
  0.785000, -0.087400
  0.787000, -0.097800
  0.789000, -0.107800
  0.791000, -0.117400
  0.793000, -0.126600
  0.795000, -0.135400
  0.797000, -0.143900
  0.799000, -0.151900
  0.801000, -0.159700
  0.803000, -0.167100
  0.805000, -0.174000
  0.807000, -0.180500
  0.809000, -0.186600
  0.811000, -0.192400
  0.813000, -0.197800
  0.815000, -0.202900
  0.817000, -0.207600
  0.819000, -0.212000
  0.821000, -0.215900
  0.823000, -0.219500
  0.825000, -0.222900
  0.827000, -0.226000
  0.829000, -0.228700
  0.831000, -0.231200
  0.833000, -0.233500
  0.835000, -0.235500
  0.837000, -0.237100
  0.839000, -0.238400
  0.841000, -0.239500
  0.843000, -0.240300
  0.845000, -0.241100
  0.847000, -0.241600
  0.849000, -0.241900
  0.851000, -0.241900
  0.853000, -0.241700
  0.855000, -0.241500
  0.857000, -0.241100
  0.859000, -0.240500
  0.861000, -0.239700
  0.863000, -0.238800
  0.865000, -0.237700
  0.867000, -0.236400
  0.869000, -0.235000
  0.871000, -0.233400
  0.873000, -0.231600
  0.875000, -0.229700
  0.877000, -0.227700
  0.879000, -0.225600
  0.881000, -0.223200
  0.883000, -0.220500
  0.885000, -0.217700
  0.887000, -0.214700
  0.889000, -0.211500
  0.891000, -0.208200
  0.893000, -0.204800
  0.895000, -0.201100
  0.897000, -0.197100
  0.899000, -0.193100
  0.901000, -0.188900
  0.903000, -0.184400
  0.905000, -0.179800
  0.907000, -0.175000
  0.909000, -0.170100
  0.911000, -0.165100
  0.913000, -0.159800
  0.915000, -0.154500
  0.917000, -0.149000
  0.919000, -0.143200
  0.921000, -0.137300
  0.923000, -0.131500
  0.925000, -0.125400
  0.927000, -0.119400
  0.929000, -0.113300
  0.931000, -0.107100
  0.933000, -0.100700
  0.935000, -0.094400
  0.937000, -0.088000
  0.939000, -0.081600
  0.941000, -0.075200
  0.943000, -0.068800
  0.945000, -0.062500
  0.947000, -0.056100
  0.949000, -0.049800
  0.951000, -0.043600
  0.953000, -0.037400
  0.955000, -0.031400
  0.957000, -0.025400
  0.959000, -0.019500
  0.961000, -0.013800
  0.963000, -0.008200
  0.965000, -0.002800
  0.967000,  0.002500
  0.969000,  0.007500
  0.971000,  0.012300
  0.973000,  0.017000
  0.975000,  0.021500
  0.977000,  0.025600
  0.979000,  0.029600
  0.981000,  0.033300
  0.983000,  0.036900
  0.985000,  0.040200
  0.987000,  0.043200
  0.989000,  0.045900
  0.991000,  0.048300
  0.993000,  0.050600
  0.995000,  0.052500
  0.997000,  0.054200
  0.999000,  0.055600
  1.001000,  0.056900
  1.003000,  0.057900
  1.005000,  0.058500
  1.007000,  0.058800
  1.009000,  0.058900
  1.011000,  0.058700
  1.013000,  0.058400
  1.015000,  0.057900
  1.017000,  0.057000
  1.019000,  0.056000
  1.021000,  0.054700
  1.023000,  0.053200
  1.025000,  0.051500
  1.027000,  0.049500
  1.029000,  0.047400
  1.031000,  0.045100
  1.033000,  0.042600
  1.035000,  0.040000
  1.037000,  0.037300
  1.039000,  0.034300
  1.041000,  0.031200
  1.043000,  0.028000
  1.045000,  0.024600
  1.047000,  0.021200
  1.049000,  0.017800
  1.051000,  0.014200
  1.053000,  0.010500
  1.055000,  0.006800
  1.057000,  0.003100
  1.059000, -0.000700
  1.061000, -0.004500
  1.063000, -0.008400
  1.065000, -0.012300
  1.067000, -0.016100
  1.069000, -0.019900
  1.071000, -0.023700
  1.073000, -0.027400
  1.075000, -0.031000
  1.077000, -0.034600
  1.079000, -0.038100
  1.081000, -0.041500
  1.083000, -0.044800
  1.085000, -0.048000
  1.087000, -0.051100
  1.089000, -0.054000
  1.091000, -0.056800
  1.093000, -0.059500
  1.095000, -0.062100
  1.097000, -0.064600
  1.099000, -0.066900
  1.101000, -0.069200
  1.103000, -0.071200
  1.105000, -0.073000
  1.107000, -0.074700
  1.109000, -0.076200
  1.111000, -0.077500
  1.113000, -0.078700
  1.115000, -0.079800
  1.117000, -0.080700
  1.119000, -0.081600
  1.121000, -0.082300
  1.123000, -0.082900
  1.125000, -0.083400
  1.127000, -0.083800
  1.129000, -0.083900
  1.131000, -0.084000
  1.133000, -0.083900
  1.135000, -0.083900
  1.137000, -0.083700
  1.139000, -0.083500
  1.141000, -0.083100
  1.143000, -0.082600
  1.145000, -0.082200
  1.147000, -0.081700
  1.149000, -0.081200
  1.151000, -0.080600
  1.153000, -0.079900
  1.155000, -0.079300
  1.157000, -0.078700
  1.159000, -0.078100
  1.161000, -0.077500
  1.163000, -0.076900
  1.165000, -0.076200
  1.167000, -0.075600
  1.169000, -0.074900
  1.171000, -0.074200
  1.173000, -0.073500
  1.175000, -0.072800
  1.177000, -0.072200
  1.179000, -0.071600
  1.181000, -0.070900
  1.183000, -0.070200
  1.185000, -0.069500
  1.187000, -0.068800
  1.189000, -0.068100
  1.191000, -0.067400
  1.193000, -0.066700
  1.195000, -0.065900
  1.197000, -0.065100
  1.199000, -0.064300
  1.201000, -0.063500
  1.203000, -0.062500
  1.205000, -0.061600
  1.207000, -0.060700
  1.209000, -0.059600
  1.211000, -0.058500
  1.213000, -0.057300
  1.215000, -0.056100
  1.217000, -0.054900
  1.219000, -0.053500
  1.221000, -0.052200
  1.223000, -0.050700
  1.225000, -0.049300
  1.227000, -0.047800
  1.229000, -0.046300
  1.231000, -0.044700
  1.233000, -0.043000
  1.235000, -0.041400
  1.237000, -0.039800
  1.239000, -0.038000
  1.241000, -0.036300
  1.243000, -0.034500
  1.245000, -0.032700
  1.247000, -0.030900
  1.249000, -0.029100
  1.251000, -0.027200
  1.253000, -0.025300
  1.255000, -0.023500
  1.257000, -0.021800
  1.259000, -0.020000
  1.261000, -0.018200
  1.263000, -0.016500
  1.265000, -0.014900
  1.267000, -0.013300
  1.269000, -0.011600
  1.271000, -0.010100
  1.273000, -0.008600
  1.275000, -0.007200
  1.277000, -0.005900
  1.279000, -0.004600
  1.281000, -0.003300
  1.283000, -0.002100
  1.285000, -0.001000
  1.287000,  0.000000
  1.289000,  0.001100
  1.291000,  0.002000
  1.293000,  0.002700
  1.295000,  0.003500
  1.297000,  0.004300
  1.299000,  0.004900
  1.301000,  0.005500
  1.303000,  0.006100
  1.305000,  0.006600
  1.307000,  0.007200
  1.309000,  0.007800
  1.311000,  0.008400
  1.313000,  0.009000
  1.315000,  0.009600
  1.317000,  0.010200
  1.319000,  0.010800
  1.321000,  0.011400
  1.323000,  0.012100
  1.325000,  0.012800
  1.327000,  0.013500
  1.329000,  0.014200
  1.331000,  0.015000
  1.333000,  0.016000
  1.335000,  0.017000
  1.337000,  0.018100
  1.339000,  0.019200
  1.341000,  0.020400
  1.343000,  0.021700
  1.345000,  0.023100
  1.347000,  0.024600
  1.349000,  0.026100
  1.351000,  0.027800
  1.353000,  0.029400
  1.355000,  0.031100
  1.357000,  0.032900
  1.359000,  0.034700
  1.361000,  0.036400
  1.363000,  0.038100
  1.365000,  0.039800
  1.367000,  0.041600
  1.369000,  0.043400
  1.371000,  0.045100
  1.373000,  0.046900
  1.375000,  0.048400
  1.377000,  0.049900
  1.379000,  0.051300
  1.381000,  0.052500
  1.383000,  0.053400
  1.385000,  0.054100
  1.387000,  0.054600
  1.389000,  0.054900
  1.391000,  0.054900
  1.393000,  0.054500
  1.395000,  0.053700
  1.397000,  0.052400
  1.399000,  0.050800
