# z (nm)   (kJ/mol)
  0.139000,  5.220600
  0.141000,  4.803200
  0.143000,  4.371000
  0.145000,  3.908300
  0.147000,  3.492000
  0.149000,  3.078100
  0.151000,  2.628100
  0.153000,  2.163800
  0.155000,  1.694800
  0.157000,  1.214500
  0.159000,  0.741000
  0.161000,  0.287400
  0.163000, -0.162900
  0.165000, -0.616700
  0.167000, -1.067700
  0.169000, -1.517200
  0.171000, -1.963000
  0.173000, -2.405100
  0.175000, -2.838800
  0.177000, -3.264000
  0.179000, -3.683000
  0.181000, -4.094100
  0.183000, -4.492300
  0.185000, -4.880600
  0.187000, -5.257900
  0.189000, -5.621800
  0.191000, -5.972400
  0.193000, -6.311900
  0.195000, -6.639900
  0.197000, -6.953800
  0.199000, -7.252700
  0.201000, -7.536300
  0.203000, -7.803700
  0.205000, -8.055700
  0.207000, -8.294000
  0.209000, -8.516000
  0.211000, -8.722400
  0.213000, -8.912800
  0.215000, -9.087400
  0.217000, -9.247000
  0.219000, -9.390800
  0.221000, -9.517900
  0.223000, -9.628200
  0.225000, -9.723100
  0.227000, -9.802700
  0.229000, -9.866900
  0.231000, -9.915800
  0.233000, -9.949700
  0.235000, -9.969200
  0.237000, -9.974700
  0.239000, -9.965600
  0.241000, -9.943000
  0.243000, -9.907700
  0.245000, -9.860500
  0.247000, -9.801200
  0.249000, -9.729000
  0.251000, -9.646000
  0.253000, -9.553700
  0.255000, -9.452100
  0.257000, -9.341500
  0.259000, -9.221700
  0.261000, -9.094500
  0.263000, -8.961100
  0.265000, -8.820900
  0.267000, -8.675200
  0.269000, -8.525300
  0.271000, -8.372000
  0.273000, -8.214600
  0.275000, -8.055200
  0.277000, -7.894800
  0.279000, -7.731900
  0.281000, -7.568200
  0.283000, -7.404500
  0.285000, -7.240700
  0.287000, -7.078100
  0.289000, -6.918500
  0.291000, -6.761200
  0.293000, -6.606300
  0.295000, -6.453900
  0.297000, -6.305100
  0.299000, -6.160000
  0.301000, -6.018500
  0.303000, -5.881900
  0.305000, -5.750200
  0.307000, -5.623100
  0.309000, -5.500600
  0.311000, -5.383500
  0.313000, -5.272000
  0.315000, -5.165700
  0.317000, -5.064800
  0.319000, -4.969300
  0.321000, -4.878500
  0.323000, -4.792400
  0.325000, -4.711500
  0.327000, -4.635800
  0.329000, -4.564700
  0.331000, -4.498000
  0.333000, -4.436300
  0.335000, -4.379400
  0.337000, -4.326800
  0.339000, -4.278500
  0.341000, -4.234200
  0.343000, -4.193600
  0.345000, -4.156300
  0.347000, -4.122000
  0.349000, -4.090800
  0.351000, -4.062300
  0.353000, -4.035900
  0.355000, -4.011900
  0.357000, -3.989700
  0.359000, -3.968200
  0.361000, -3.949000
  0.363000, -3.931300
  0.365000, -3.914400
  0.367000, -3.898500
  0.369000, -3.883000
  0.371000, -3.867700
  0.373000, -3.852500
  0.375000, -3.837500
  0.377000, -3.822200
  0.379000, -3.806800
  0.381000, -3.790800
  0.383000, -3.774000
  0.385000, -3.756600
  0.387000, -3.738300
  0.389000, -3.719000
  0.391000, -3.699100
  0.393000, -3.678300
  0.395000, -3.656200
  0.397000, -3.632800
  0.399000, -3.607800
  0.401000, -3.581500
  0.403000, -3.553800
  0.405000, -3.524600
  0.407000, -3.494000
  0.409000, -3.462000
  0.411000, -3.428400
  0.413000, -3.393100
  0.415000, -3.356600
  0.417000, -3.318900
  0.419000, -3.279400
  0.421000, -3.238500
  0.423000, -3.196700
  0.425000, -3.153500
  0.427000, -3.108900
  0.429000, -3.063300
  0.431000, -3.016700
  0.433000, -2.969100
  0.435000, -2.920500
  0.437000, -2.871200
  0.439000, -2.821200
  0.441000, -2.770500
  0.443000, -2.719700
  0.445000, -2.668700
  0.447000, -2.616900
  0.449000, -2.564900
  0.451000, -2.512600
  0.453000, -2.459900
  0.455000, -2.407100
  0.457000, -2.354600
  0.459000, -2.302500
  0.461000, -2.250400
  0.463000, -2.198700
  0.465000, -2.147600
  0.467000, -2.096700
  0.469000, -2.046500
  0.471000, -1.997100
  0.473000, -1.948700
  0.475000, -1.901200
  0.477000, -1.854200
  0.479000, -1.807900
  0.481000, -1.762500
  0.483000, -1.718300
  0.485000, -1.675100
  0.487000, -1.633000
  0.489000, -1.592200
  0.491000, -1.552100
  0.493000, -1.512900
  0.495000, -1.474500
  0.497000, -1.437200
  0.499000, -1.401400
  0.501000, -1.366700
  0.503000, -1.333100
  0.505000, -1.300100
  0.507000, -1.268300
  0.509000, -1.237800
  0.511000, -1.208700
  0.513000, -1.180800
  0.515000, -1.153600
  0.517000, -1.127000
  0.519000, -1.101400
  0.521000, -1.077000
  0.523000, -1.053500
  0.525000, -1.031000
  0.527000, -1.009200
  0.529000, -0.988000
  0.531000, -0.968000
  0.533000, -0.949000
  0.535000, -0.930500
  0.537000, -0.912600
  0.539000, -0.895100
  0.541000, -0.878300
  0.543000, -0.862000
  0.545000, -0.846000
  0.547000, -0.830600
  0.549000, -0.815500
  0.551000, -0.800900
  0.553000, -0.786800
  0.555000, -0.772900
  0.557000, -0.759200
  0.559000, -0.746100
  0.561000, -0.733400
  0.563000, -0.720800
  0.565000, -0.708200
  0.567000, -0.696100
  0.569000, -0.684200
  0.571000, -0.672200
  0.573000, -0.660400
  0.575000, -0.649200
  0.577000, -0.638200
  0.579000, -0.627000
  0.581000, -0.616200
  0.583000, -0.605700
  0.585000, -0.595200
  0.587000, -0.584800
  0.589000, -0.574600
  0.591000, -0.564500
  0.593000, -0.554300
  0.595000, -0.543900
  0.597000, -0.533700
  0.599000, -0.523800
  0.601000, -0.514000
  0.603000, -0.504300
  0.605000, -0.494800
  0.607000, -0.485500
  0.609000, -0.476100
  0.611000, -0.466700
  0.613000, -0.457400
  0.615000, -0.448200
  0.617000, -0.439300
  0.619000, -0.430200
  0.621000, -0.421200
  0.623000, -0.412300
  0.625000, -0.403300
  0.627000, -0.394500
  0.629000, -0.385700
  0.631000, -0.377100
  0.633000, -0.368600
  0.635000, -0.360100
  0.637000, -0.351600
  0.639000, -0.343300
  0.641000, -0.334900
  0.643000, -0.326500
  0.645000, -0.318200
  0.647000, -0.309800
  0.649000, -0.301500
  0.651000, -0.293200
  0.653000, -0.285000
  0.655000, -0.276800
  0.657000, -0.268700
  0.659000, -0.260600
  0.661000, -0.252300
  0.663000, -0.244200
  0.665000, -0.236100
  0.667000, -0.228100
  0.669000, -0.220100
  0.671000, -0.212100
  0.673000, -0.204000
  0.675000, -0.195800
  0.677000, -0.187700
  0.679000, -0.179600
  0.681000, -0.171600
  0.683000, -0.163600
  0.685000, -0.155600
  0.687000, -0.147500
  0.689000, -0.139400
  0.691000, -0.131400
  0.693000, -0.123300
  0.695000, -0.115300
  0.697000, -0.107500
  0.699000, -0.099500
  0.701000, -0.091600
  0.703000, -0.083700
  0.705000, -0.075800
  0.707000, -0.067900
  0.709000, -0.060000
  0.711000, -0.052400
  0.713000, -0.044900
  0.715000, -0.037300
  0.717000, -0.029600
  0.719000, -0.022100
  0.721000, -0.014700
  0.723000, -0.007500
  0.725000, -0.000400
  0.727000,  0.006800
  0.729000,  0.013800
  0.731000,  0.020700
  0.733000,  0.027600
  0.735000,  0.034200
  0.737000,  0.040800
  0.739000,  0.047300
  0.741000,  0.053600
  0.743000,  0.059800
  0.745000,  0.065900
  0.747000,  0.071900
  0.749000,  0.077700
  0.751000,  0.083400
  0.753000,  0.089000
  0.755000,  0.094400
  0.757000,  0.099500
  0.759000,  0.104600
  0.761000,  0.109700
  0.763000,  0.114800
  0.765000,  0.119600
  0.767000,  0.124400
  0.769000,  0.128900
  0.771000,  0.133200
  0.773000,  0.137400
  0.775000,  0.141400
  0.777000,  0.145300
  0.779000,  0.149100
  0.781000,  0.152900
  0.783000,  0.156500
  0.785000,  0.160000
  0.787000,  0.163300
  0.789000,  0.166400
  0.791000,  0.169500
  0.793000,  0.172300
  0.795000,  0.175100
  0.797000,  0.177700
  0.799000,  0.180200
  0.801000,  0.182600
  0.803000,  0.184900
  0.805000,  0.187100
  0.807000,  0.189200
  0.809000,  0.191000
  0.811000,  0.192800
  0.813000,  0.194500
  0.815000,  0.196000
  0.817000,  0.197600
  0.819000,  0.199000
  0.821000,  0.200200
  0.823000,  0.201300
  0.825000,  0.202300
  0.827000,  0.203200
  0.829000,  0.204000
  0.831000,  0.204700
  0.833000,  0.205100
  0.835000,  0.205400
  0.837000,  0.205600
  0.839000,  0.205700
  0.841000,  0.205500
  0.843000,  0.205100
  0.845000,  0.204600
  0.847000,  0.203900
  0.849000,  0.203100
  0.851000,  0.202200
  0.853000,  0.201100
  0.855000,  0.199800
  0.857000,  0.198500
  0.859000,  0.197000
  0.861000,  0.195300
  0.863000,  0.193300
  0.865000,  0.191200
  0.867000,  0.189100
  0.869000,  0.186900
  0.871000,  0.184400
  0.873000,  0.181700
  0.875000,  0.179000
  0.877000,  0.176100
  0.879000,  0.173100
  0.881000,  0.169900
  0.883000,  0.166500
  0.885000,  0.163000
  0.887000,  0.159400
  0.889000,  0.155800
  0.891000,  0.152300
  0.893000,  0.148600
  0.895000,  0.144700
  0.897000,  0.140900
  0.899000,  0.136900
  0.901000,  0.133000
  0.903000,  0.129100
  0.905000,  0.125200
  0.907000,  0.121500
  0.909000,  0.117700
  0.911000,  0.114100
  0.913000,  0.110600
  0.915000,  0.107200
  0.917000,  0.103900
  0.919000,  0.100400
  0.921000,  0.097100
  0.923000,  0.094000
  0.925000,  0.091000
  0.927000,  0.088000
  0.929000,  0.085200
  0.931000,  0.082600
  0.933000,  0.080100
  0.935000,  0.077800
  0.937000,  0.075800
  0.939000,  0.073900
  0.941000,  0.072100
  0.943000,  0.070500
  0.945000,  0.069000
  0.947000,  0.067700
  0.949000,  0.066500
  0.951000,  0.065400
  0.953000,  0.064500
  0.955000,  0.063800
  0.957000,  0.063100
  0.959000,  0.062600
  0.961000,  0.062100
  0.963000,  0.061800
  0.965000,  0.061700
  0.967000,  0.061500
  0.969000,  0.061400
  0.971000,  0.061400
  0.973000,  0.061500
  0.975000,  0.061500
  0.977000,  0.061600
  0.979000,  0.061800
  0.981000,  0.061900
  0.983000,  0.061900
  0.985000,  0.061900
  0.987000,  0.062000
  0.989000,  0.062100
  0.991000,  0.061900
  0.993000,  0.061800
  0.995000,  0.061600
  0.997000,  0.061400
  0.999000,  0.061000
  1.001000,  0.060400
  1.003000,  0.059700
  1.005000,  0.058900
  1.007000,  0.058000
  1.009000,  0.057000
  1.011000,  0.055800
  1.013000,  0.054400
  1.015000,  0.052900
  1.017000,  0.051300
  1.019000,  0.049600
  1.021000,  0.047900
  1.023000,  0.046000
  1.025000,  0.043900
  1.027000,  0.041500
  1.029000,  0.039000
  1.031000,  0.036600
  1.033000,  0.034000
  1.035000,  0.031200
  1.037000,  0.028400
  1.039000,  0.025500
  1.041000,  0.022400
  1.043000,  0.019400
  1.045000,  0.016400
  1.047000,  0.013200
  1.049000,  0.009900
  1.051000,  0.006600
  1.053000,  0.003300
  1.055000,  0.000000
  1.057000, -0.003200
  1.059000, -0.006500
  1.061000, -0.009800
  1.063000, -0.013200
  1.065000, -0.016500
  1.067000, -0.019700
  1.069000, -0.022800
  1.071000, -0.026000
  1.073000, -0.029200
  1.075000, -0.032200
  1.077000, -0.035000
  1.079000, -0.037700
  1.081000, -0.040400
  1.083000, -0.043000
  1.085000, -0.045500
  1.087000, -0.047800
  1.089000, -0.049900
  1.091000, -0.051900
  1.093000, -0.053700
  1.095000, -0.055400
  1.097000, -0.057100
  1.099000, -0.058500
  1.101000, -0.059800
  1.103000, -0.060900
  1.105000, -0.061800
  1.107000, -0.062600
  1.109000, -0.063200
  1.111000, -0.063700
  1.113000, -0.064200
  1.115000, -0.064600
  1.117000, -0.064700
  1.119000, -0.064700
  1.121000, -0.064600
  1.123000, -0.064500
  1.125000, -0.064200
  1.127000, -0.063700
  1.129000, -0.063200
  1.131000, -0.062600
  1.133000, -0.061900
  1.135000, -0.061100
  1.137000, -0.060000
  1.139000, -0.058900
  1.141000, -0.057800
  1.143000, -0.056600
  1.145000, -0.055400
  1.147000, -0.054200
  1.149000, -0.052700
  1.151000, -0.051200
  1.153000, -0.049700
  1.155000, -0.048200
  1.157000, -0.046600
  1.159000, -0.045000
  1.161000, -0.043400
  1.163000, -0.041700
  1.165000, -0.040100
  1.167000, -0.038400
  1.169000, -0.036700
  1.171000, -0.034900
  1.173000, -0.033200
  1.175000, -0.031500
  1.177000, -0.029800
  1.179000, -0.028000
  1.181000, -0.026400
  1.183000, -0.024700
  1.185000, -0.023100
  1.187000, -0.021400
  1.189000, -0.019700
  1.191000, -0.018000
  1.193000, -0.016300
  1.195000, -0.014500
  1.197000, -0.012800
  1.199000, -0.011200
  1.201000, -0.009500
  1.203000, -0.007800
  1.205000, -0.006100
  1.207000, -0.004400
  1.209000, -0.002800
  1.211000, -0.001200
  1.213000,  0.000500
  1.215000,  0.002000
  1.217000,  0.003500
  1.219000,  0.005000
  1.221000,  0.006500
  1.223000,  0.008000
  1.225000,  0.009500
  1.227000,  0.010800
  1.229000,  0.012200
  1.231000,  0.013500
  1.233000,  0.014700
  1.235000,  0.015900
  1.237000,  0.017000
  1.239000,  0.018100
  1.241000,  0.019100
  1.243000,  0.020000
  1.245000,  0.021000
  1.247000,  0.021900
  1.249000,  0.022700
  1.251000,  0.023300
  1.253000,  0.023800
  1.255000,  0.024300
  1.257000,  0.024700
  1.259000,  0.025000
  1.261000,  0.025300
  1.263000,  0.025400
  1.265000,  0.025400
  1.267000,  0.025400
  1.269000,  0.025200
  1.271000,  0.024900
  1.273000,  0.024600
  1.275000,  0.024300
  1.277000,  0.023800
  1.279000,  0.023200
  1.281000,  0.022600
  1.283000,  0.021900
  1.285000,  0.021100
  1.287000,  0.020300
  1.289000,  0.019500
  1.291000,  0.018600
  1.293000,  0.017500
  1.295000,  0.016500
  1.297000,  0.015400
  1.299000,  0.014300
  1.301000,  0.013100
  1.303000,  0.011900
  1.305000,  0.010700
  1.307000,  0.009400
  1.309000,  0.008200
  1.311000,  0.006900
  1.313000,  0.005700
  1.315000,  0.004400
  1.317000,  0.003100
  1.319000,  0.001800
  1.321000,  0.000500
  1.323000, -0.000800
  1.325000, -0.002100
  1.327000, -0.003400
  1.329000, -0.004600
  1.331000, -0.005700
  1.333000, -0.006900
  1.335000, -0.008000
  1.337000, -0.009100
  1.339000, -0.010200
  1.341000, -0.011400
  1.343000, -0.012500
  1.345000, -0.013600
  1.347000, -0.014600
  1.349000, -0.015700
  1.351000, -0.016600
  1.353000, -0.017600
  1.355000, -0.018500
  1.357000, -0.019500
  1.359000, -0.020400
  1.361000, -0.021400
  1.363000, -0.022200
  1.365000, -0.023100
  1.367000, -0.024200
  1.369000, -0.025200
  1.371000, -0.026100
  1.373000, -0.027100
  1.375000, -0.028200
  1.377000, -0.029300
  1.379000, -0.030500
  1.381000, -0.031600
  1.383000, -0.032900
  1.385000, -0.034300
  1.387000, -0.035900
  1.389000, -0.037800
  1.391000, -0.039700
  1.393000, -0.041800
  1.395000, -0.044000
  1.397000, -0.046600
  1.399000, -0.049400
