# z (nm)   (kJ/mol)
  0.101000,  8.909100
  0.103000,  8.556900
  0.105000,  8.184300
  0.107000,  7.809800
  0.109000,  7.447300
  0.111000,  7.069600
  0.113000,  6.681800
  0.115000,  6.298200
  0.117000,  5.925900
  0.119000,  5.549200
  0.121000,  5.158500
  0.123000,  4.759800
  0.125000,  4.363000
  0.127000,  3.965900
  0.129000,  3.560700
  0.131000,  3.157400
  0.133000,  2.758900
  0.135000,  2.358400
  0.137000,  1.959800
  0.139000,  1.568100
  0.141000,  1.178800
  0.143000,  0.788600
  0.145000,  0.399300
  0.147000,  0.013800
  0.149000, -0.366800
  0.151000, -0.739900
  0.153000, -1.104300
  0.155000, -1.459100
  0.157000, -1.807500
  0.159000, -2.152100
  0.161000, -2.491300
  0.163000, -2.820300
  0.165000, -3.138900
  0.167000, -3.449000
  0.169000, -3.748200
  0.171000, -4.036200
  0.173000, -4.313300
  0.175000, -4.579500
  0.177000, -4.836300
  0.179000, -5.082700
  0.181000, -5.318100
  0.183000, -5.542700
  0.185000, -5.755600
  0.187000, -5.955800
  0.189000, -6.144900
  0.191000, -6.322800
  0.193000, -6.488200
  0.195000, -6.642100
  0.197000, -6.783800
  0.199000, -6.914000
  0.201000, -7.033000
  0.203000, -7.140600
  0.205000, -7.236800
  0.207000, -7.322200
  0.209000, -7.396200
  0.211000, -7.459200
  0.213000, -7.512100
  0.215000, -7.554600
  0.217000, -7.586700
  0.219000, -7.608900
  0.221000, -7.620900
  0.223000, -7.624200
  0.225000, -7.618700
  0.227000, -7.604800
  0.229000, -7.582200
  0.231000, -7.551300
  0.233000, -7.513900
  0.235000, -7.470600
  0.237000, -7.420300
  0.239000, -7.364100
  0.241000, -7.303300
  0.243000, -7.236900
  0.245000, -7.165400
  0.247000, -7.090000
  0.249000, -7.011000
  0.251000, -6.928000
  0.253000, -6.841800
  0.255000, -6.752900
  0.257000, -6.661200
  0.259000, -6.567700
  0.261000, -6.472300
  0.263000, -6.375000
  0.265000, -6.277300
  0.267000, -6.179100
  0.269000, -6.080200
  0.271000, -5.980900
  0.273000, -5.881500
  0.275000, -5.782000
  0.277000, -5.682700
  0.279000, -5.583600
  0.281000, -5.484900
  0.283000, -5.386600
  0.285000, -5.289000
  0.287000, -5.192000
  0.289000, -5.095800
  0.291000, -5.000200
  0.293000, -4.905200
  0.295000, -4.811000
  0.297000, -4.717400
  0.299000, -4.624200
  0.301000, -4.531800
  0.303000, -4.440200
  0.305000, -4.349000
  0.307000, -4.258200
  0.309000, -4.167700
  0.311000, -4.077700
  0.313000, -3.988500
  0.315000, -3.899300
  0.317000, -3.810200
  0.319000, -3.721300
  0.321000, -3.632500
  0.323000, -3.543800
  0.325000, -3.455100
  0.327000, -3.366300
  0.329000, -3.277500
  0.331000, -3.188700
  0.333000, -3.099700
  0.335000, -3.010500
  0.337000, -2.921100
  0.339000, -2.831700
  0.341000, -2.742300
  0.343000, -2.652700
  0.345000, -2.562700
  0.347000, -2.472700
  0.349000, -2.382600
  0.351000, -2.292500
  0.353000, -2.202500
  0.355000, -2.112600
  0.357000, -2.022700
  0.359000, -1.932800
  0.361000, -1.843400
  0.363000, -1.754200
  0.365000, -1.665300
  0.367000, -1.577100
  0.369000, -1.489500
  0.371000, -1.402200
  0.373000, -1.316000
  0.375000, -1.231100
  0.377000, -1.147000
  0.379000, -1.063900
  0.381000, -0.982200
  0.383000, -0.901700
  0.385000, -0.823000
  0.387000, -0.745900
  0.389000, -0.670400
  0.391000, -0.596900
  0.393000, -0.525600
  0.395000, -0.456200
  0.397000, -0.388800
  0.399000, -0.323900
  0.401000, -0.261200
  0.403000, -0.200800
  0.405000, -0.142600
  0.407000, -0.087200
  0.409000, -0.034300
  0.411000,  0.015900
  0.413000,  0.063200
  0.415000,  0.107500
  0.417000,  0.149000
  0.419000,  0.187400
  0.421000,  0.222700
  0.423000,  0.255100
  0.425000,  0.284600
  0.427000,  0.310900
  0.429000,  0.334000
  0.431000,  0.354200
  0.433000,  0.371400
  0.435000,  0.385600
  0.437000,  0.396600
  0.439000,  0.404500
  0.441000,  0.409800
  0.443000,  0.412400
  0.445000,  0.412100
  0.447000,  0.409100
  0.449000,  0.403300
  0.451000,  0.395100
  0.453000,  0.384500
  0.455000,  0.371700
  0.457000,  0.356800
  0.459000,  0.339400
  0.461000,  0.319900
  0.463000,  0.298900
  0.465000,  0.276000
  0.467000,  0.251200
  0.469000,  0.224900
  0.471000,  0.196700
  0.473000,  0.166700
  0.475000,  0.135400
  0.477000,  0.103300
  0.479000,  0.070200
  0.481000,  0.035900
  0.483000,  0.000600
  0.485000, -0.035500
  0.487000, -0.072300
  0.489000, -0.109000
  0.491000, -0.145600
  0.493000, -0.182500
  0.495000, -0.219600
  0.497000, -0.256800
  0.499000, -0.293700
  0.501000, -0.330500
  0.503000, -0.367100
  0.505000, -0.403500
  0.507000, -0.439500
  0.509000, -0.474800
  0.511000, -0.509500
  0.513000, -0.543800
  0.515000, -0.577100
  0.517000, -0.609500
  0.519000, -0.641100
  0.521000, -0.672000
  0.523000, -0.702100
  0.525000, -0.731100
  0.527000, -0.759100
  0.529000, -0.786000
  0.531000, -0.811800
  0.533000, -0.836400
  0.535000, -0.859900
  0.537000, -0.882200
  0.539000, -0.903300
  0.541000, -0.923200
  0.543000, -0.941700
  0.545000, -0.959100
  0.547000, -0.975200
  0.549000, -0.990100
  0.551000, -1.003600
  0.553000, -1.015900
  0.555000, -1.027100
  0.557000, -1.037000
  0.559000, -1.045600
  0.561000, -1.053100
  0.563000, -1.059300
  0.565000, -1.064300
  0.567000, -1.067900
  0.569000, -1.070600
  0.571000, -1.072100
  0.573000, -1.072500
  0.575000, -1.071900
  0.577000, -1.070200
  0.579000, -1.067400
  0.581000, -1.063500
  0.583000, -1.058600
  0.585000, -1.052900
  0.587000, -1.046300
  0.589000, -1.038700
  0.591000, -1.030200
  0.593000, -1.020700
  0.595000, -1.010300
  0.597000, -0.999200
  0.599000, -0.987600
  0.601000, -0.975100
  0.603000, -0.961700
  0.605000, -0.947800
  0.607000, -0.933200
  0.609000, -0.918000
  0.611000, -0.902200
  0.613000, -0.885900
  0.615000, -0.869100
  0.617000, -0.852000
  0.619000, -0.834200
  0.621000, -0.816000
  0.623000, -0.797300
  0.625000, -0.778400
  0.627000, -0.759500
  0.629000, -0.739900
  0.631000, -0.719800
  0.633000, -0.699600
  0.635000, -0.679500
  0.637000, -0.659000
  0.639000, -0.638500
  0.641000, -0.617900
  0.643000, -0.597200
  0.645000, -0.576700
  0.647000, -0.556200
  0.649000, -0.535800
  0.651000, -0.515700
  0.653000, -0.495500
  0.655000, -0.475300
  0.657000, -0.455300
  0.659000, -0.435600
  0.661000, -0.415900
  0.663000, -0.396500
  0.665000, -0.377500
  0.667000, -0.358800
  0.669000, -0.340300
  0.671000, -0.321900
  0.673000, -0.304000
  0.675000, -0.286700
  0.677000, -0.269600
  0.679000, -0.252800
  0.681000, -0.236400
  0.683000, -0.220600
  0.685000, -0.205300
  0.687000, -0.190300
  0.689000, -0.175800
  0.691000, -0.161600
  0.693000, -0.147800
  0.695000, -0.134500
  0.697000, -0.121700
  0.699000, -0.109400
  0.701000, -0.097700
  0.703000, -0.086400
  0.705000, -0.075600
  0.707000, -0.065400
  0.709000, -0.055700
  0.711000, -0.046400
  0.713000, -0.037700
  0.715000, -0.029400
  0.717000, -0.021700
  0.719000, -0.014500
  0.721000, -0.007800
  0.723000, -0.001600
  0.725000,  0.004200
  0.727000,  0.009400
  0.729000,  0.014200
  0.731000,  0.018500
  0.733000,  0.022400
  0.735000,  0.025800
  0.737000,  0.028900
  0.739000,  0.031500
  0.741000,  0.033500
  0.743000,  0.035100
  0.745000,  0.036400
  0.747000,  0.037400
  0.749000,  0.037900
  0.751000,  0.038000
  0.753000,  0.037800
  0.755000,  0.037200
  0.757000,  0.036300
  0.759000,  0.035100
  0.761000,  0.033800
  0.763000,  0.031900
  0.765000,  0.029800
  0.767000,  0.027400
  0.769000,  0.024700
  0.771000,  0.021600
  0.773000,  0.018400
  0.775000,  0.014800
  0.777000,  0.011200
  0.779000,  0.007200
  0.781000,  0.003100
  0.783000, -0.001100
  0.785000, -0.005500
  0.787000, -0.010200
  0.789000, -0.015100
  0.791000, -0.020200
  0.793000, -0.025400
  0.795000, -0.030600
  0.797000, -0.036100
  0.799000, -0.041800
  0.801000, -0.047500
  0.803000, -0.053400
  0.805000, -0.059400
  0.807000, -0.065500
  0.809000, -0.071700
  0.811000, -0.078000
  0.813000, -0.084300
  0.815000, -0.090800
  0.817000, -0.097300
  0.819000, -0.103800
  0.821000, -0.110300
  0.823000, -0.116800
  0.825000, -0.123400
  0.827000, -0.130000
  0.829000, -0.136600
  0.831000, -0.143000
  0.833000, -0.149500
  0.835000, -0.156100
  0.837000, -0.162600
  0.839000, -0.168900
  0.841000, -0.175000
  0.843000, -0.181200
  0.845000, -0.187300
  0.847000, -0.193300
  0.849000, -0.199100
  0.851000, -0.204600
  0.853000, -0.210000
  0.855000, -0.215400
  0.857000, -0.220400
  0.859000, -0.225200
  0.861000, -0.229700
  0.863000, -0.234100
  0.865000, -0.238200
  0.867000, -0.242200
  0.869000, -0.245900
  0.871000, -0.249400
  0.873000, -0.252700
  0.875000, -0.255700
  0.877000, -0.258500
  0.879000, -0.260800
  0.881000, -0.262900
  0.883000, -0.264900
  0.885000, -0.266800
  0.887000, -0.268500
  0.889000, -0.269800
  0.891000, -0.270800
  0.893000, -0.271600
  0.895000, -0.272100
  0.897000, -0.272600
  0.899000, -0.272900
  0.901000, -0.273000
  0.903000, -0.272800
  0.905000, -0.272400
  0.907000, -0.271800
  0.909000, -0.271100
  0.911000, -0.270200
  0.913000, -0.269200
  0.915000, -0.268100
  0.917000, -0.267000
  0.919000, -0.265700
  0.921000, -0.264300
  0.923000, -0.262800
  0.925000, -0.261200
  0.927000, -0.259500
  0.929000, -0.257600
  0.931000, -0.255600
  0.933000, -0.253600
  0.935000, -0.251600
  0.937000, -0.249600
  0.939000, -0.247400
  0.941000, -0.245300
  0.943000, -0.243200
  0.945000, -0.241000
  0.947000, -0.238800
  0.949000, -0.236500
  0.951000, -0.234000
  0.953000, -0.231700
  0.955000, -0.229300
  0.957000, -0.226900
  0.959000, -0.224400
  0.961000, -0.221900
  0.963000, -0.219400
  0.965000, -0.216700
  0.967000, -0.214000
  0.969000, -0.211200
  0.971000, -0.208200
  0.973000, -0.205300
  0.975000, -0.202200
  0.977000, -0.199200
  0.979000, -0.196000
  0.981000, -0.192800
  0.983000, -0.189500
  0.985000, -0.186100
  0.987000, -0.182600
  0.989000, -0.179100
  0.991000, -0.175500
  0.993000, -0.172000
  0.995000, -0.168400
  0.997000, -0.164600
  0.999000, -0.160800
  1.001000, -0.156900
  1.003000, -0.152900
  1.005000, -0.149000
  1.007000, -0.145000
  1.009000, -0.140900
  1.011000, -0.136700
  1.013000, -0.132500
  1.015000, -0.128200
  1.017000, -0.124000
  1.019000, -0.119700
  1.021000, -0.115500
  1.023000, -0.111300
  1.025000, -0.107100
  1.027000, -0.102900
  1.029000, -0.098700
  1.031000, -0.094600
  1.033000, -0.090400
  1.035000, -0.086200
  1.037000, -0.082100
  1.039000, -0.078200
  1.041000, -0.074400
  1.043000, -0.070600
  1.045000, -0.066800
  1.047000, -0.063200
  1.049000, -0.059900
  1.051000, -0.056600
  1.053000, -0.053400
  1.055000, -0.050300
  1.057000, -0.047200
  1.059000, -0.044300
  1.061000, -0.041600
  1.063000, -0.039000
  1.065000, -0.036500
  1.067000, -0.034200
  1.069000, -0.032000
  1.071000, -0.030000
  1.073000, -0.028100
  1.075000, -0.026300
  1.077000, -0.024700
  1.079000, -0.023100
  1.081000, -0.021800
  1.083000, -0.020700
  1.085000, -0.019700
  1.087000, -0.018700
  1.089000, -0.017900
  1.091000, -0.017300
  1.093000, -0.016700
  1.095000, -0.016200
  1.097000, -0.015800
  1.099000, -0.015600
  1.101000, -0.015500
  1.103000, -0.015500
  1.105000, -0.015600
  1.107000, -0.015700
  1.109000, -0.015900
  1.111000, -0.016200
  1.113000, -0.016600
  1.115000, -0.017100
  1.117000, -0.017600
  1.119000, -0.018200
  1.121000, -0.018700
  1.123000, -0.019300
  1.125000, -0.020000
  1.127000, -0.020700
  1.129000, -0.021400
  1.131000, -0.022100
  1.133000, -0.023000
  1.135000, -0.023800
  1.137000, -0.024500
  1.139000, -0.025300
  1.141000, -0.026100
  1.143000, -0.026800
  1.145000, -0.027500
  1.147000, -0.028200
  1.149000, -0.028800
  1.151000, -0.029500
  1.153000, -0.030200
  1.155000, -0.030800
  1.157000, -0.031400
  1.159000, -0.032000
  1.161000, -0.032600
  1.163000, -0.033100
  1.165000, -0.033700
  1.167000, -0.034200
  1.169000, -0.034600
  1.171000, -0.035100
  1.173000, -0.035500
  1.175000, -0.035900
  1.177000, -0.036200
  1.179000, -0.036500
  1.181000, -0.036700
  1.183000, -0.037000
  1.185000, -0.037200
  1.187000, -0.037300
  1.189000, -0.037400
  1.191000, -0.037500
  1.193000, -0.037500
  1.195000, -0.037600
  1.197000, -0.037700
  1.199000, -0.037700
  1.201000, -0.037600
  1.203000, -0.037400
  1.205000, -0.037200
  1.207000, -0.036900
  1.209000, -0.036700
  1.211000, -0.036500
  1.213000, -0.036300
  1.215000, -0.036100
  1.217000, -0.035800
  1.219000, -0.035500
  1.221000, -0.035200
  1.223000, -0.034900
  1.225000, -0.034500
  1.227000, -0.034100
  1.229000, -0.033600
  1.231000, -0.033100
  1.233000, -0.032600
  1.235000, -0.032100
  1.237000, -0.031600
  1.239000, -0.031000
  1.241000, -0.030400
  1.243000, -0.029800
  1.245000, -0.029100
  1.247000, -0.028300
  1.249000, -0.027600
  1.251000, -0.026900
  1.253000, -0.026100
  1.255000, -0.025300
  1.257000, -0.024500
  1.259000, -0.023700
  1.261000, -0.022900
  1.263000, -0.022000
  1.265000, -0.021200
  1.267000, -0.020300
  1.269000, -0.019400
  1.271000, -0.018500
  1.273000, -0.017600
  1.275000, -0.016800
  1.277000, -0.016000
  1.279000, -0.015100
  1.281000, -0.014200
  1.283000, -0.013400
  1.285000, -0.012500
  1.287000, -0.011600
  1.289000, -0.010600
  1.291000, -0.009700
  1.293000, -0.008800
  1.295000, -0.007900
  1.297000, -0.007000
  1.299000, -0.006100
  1.301000, -0.005200
  1.303000, -0.004300
  1.305000, -0.003500
  1.307000, -0.002600
  1.309000, -0.001800
  1.311000, -0.000900
  1.313000,  0.000000
  1.315000,  0.000800
  1.317000,  0.001700
  1.319000,  0.002500
  1.321000,  0.003400
  1.323000,  0.004300
  1.325000,  0.005200
  1.327000,  0.006300
  1.329000,  0.007400
  1.331000,  0.008500
  1.333000,  0.009700
  1.335000,  0.011000
  1.337000,  0.012300
  1.339000,  0.013700
  1.341000,  0.015100
  1.343000,  0.016600
  1.345000,  0.018200
  1.347000,  0.019900
  1.349000,  0.021600
  1.351000,  0.023400
  1.353000,  0.025300
  1.355000,  0.027100
  1.357000,  0.029000
  1.359000,  0.030900
  1.361000,  0.032900
  1.363000,  0.034900
  1.365000,  0.037000
  1.367000,  0.039100
  1.369000,  0.041300
  1.371000,  0.043400
  1.373000,  0.045400
  1.375000,  0.047500
  1.377000,  0.049500
  1.379000,  0.051500
  1.381000,  0.053400
  1.383000,  0.055300
  1.385000,  0.057000
  1.387000,  0.058500
  1.389000,  0.059800
  1.391000,  0.060900
  1.393000,  0.061800
  1.395000,  0.062300
  1.397000,  0.062600
  1.399000,  0.062600
