# z (nm)   (kJ/mol)
  0.129000, 11.909800
  0.135000, 11.422000
  0.137000, 11.142100
  0.139000, 10.877000
  0.141000, 10.650000
  0.143000, 10.412200
  0.145000, 10.134700
  0.147000,  9.841800
  0.149000,  9.562600
  0.151000,  9.292200
  0.153000,  9.015900
  0.155000,  8.744600
  0.157000,  8.463100
  0.159000,  8.178500
  0.161000,  7.898800
  0.163000,  7.610200
  0.165000,  7.314500
  0.167000,  7.021600
  0.169000,  6.728900
  0.171000,  6.433600
  0.173000,  6.142200
  0.175000,  5.847400
  0.177000,  5.549700
  0.179000,  5.255100
  0.181000,  4.964000
  0.183000,  4.673300
  0.185000,  4.379200
  0.187000,  4.084300
  0.189000,  3.795200
  0.191000,  3.512700
  0.193000,  3.233700
  0.195000,  2.955200
  0.197000,  2.677100
  0.199000,  2.404800
  0.201000,  2.139400
  0.203000,  1.877600
  0.205000,  1.619400
  0.207000,  1.364900
  0.209000,  1.113300
  0.211000,  0.867700
  0.213000,  0.628700
  0.215000,  0.394700
  0.217000,  0.165900
  0.219000, -0.055700
  0.221000, -0.272400
  0.223000, -0.486200
  0.225000, -0.694100
  0.227000, -0.895200
  0.229000, -1.091300
  0.231000, -1.281200
  0.233000, -1.464500
  0.235000, -1.642500
  0.237000, -1.815000
  0.239000, -1.981900
  0.241000, -2.143500
  0.243000, -2.298600
  0.245000, -2.447900
  0.247000, -2.590900
  0.249000, -2.727000
  0.251000, -2.856600
  0.253000, -2.980500
  0.255000, -3.098700
  0.257000, -3.210400
  0.259000, -3.315700
  0.261000, -3.414600
  0.263000, -3.507500
  0.265000, -3.594100
  0.267000, -3.674400
  0.269000, -3.748500
  0.271000, -3.816700
  0.273000, -3.878700
  0.275000, -3.934300
  0.277000, -3.984100
  0.279000, -4.028200
  0.281000, -4.066500
  0.283000, -4.098900
  0.285000, -4.125200
  0.287000, -4.145700
  0.289000, -4.160800
  0.291000, -4.170700
  0.293000, -4.174700
  0.295000, -4.172600
  0.297000, -4.165600
  0.299000, -4.154200
  0.301000, -4.137600
  0.303000, -4.115800
  0.305000, -4.088900
  0.307000, -4.056800
  0.309000, -4.020400
  0.311000, -3.979700
  0.313000, -3.934500
  0.315000, -3.884600
  0.317000, -3.830900
  0.319000, -3.773800
  0.321000, -3.712400
  0.323000, -3.647100
  0.325000, -3.578500
  0.327000, -3.506800
  0.329000, -3.432200
  0.331000, -3.354800
  0.333000, -3.275100
  0.335000, -3.193200
  0.337000, -3.108700
  0.339000, -3.022200
  0.341000, -2.934400
  0.343000, -2.845500
  0.345000, -2.754200
  0.347000, -2.661400
  0.349000, -2.568900
  0.351000, -2.475400
  0.353000, -2.381300
  0.355000, -2.287400
  0.357000, -2.193800
  0.359000, -2.100900
  0.361000, -2.007800
  0.363000, -1.915100
  0.365000, -1.823800
  0.367000, -1.733700
  0.369000, -1.645000
  0.371000, -1.557900
  0.373000, -1.472600
  0.375000, -1.389200
  0.377000, -1.307900
  0.379000, -1.228700
  0.381000, -1.151600
  0.383000, -1.077200
  0.385000, -1.005700
  0.387000, -0.937200
  0.389000, -0.871400
  0.391000, -0.808500
  0.393000, -0.748700
  0.395000, -0.692000
  0.397000, -0.638400
  0.399000, -0.587700
  0.401000, -0.540200
  0.403000, -0.496200
  0.405000, -0.455200
  0.407000, -0.417100
  0.409000, -0.382000
  0.411000, -0.350300
  0.413000, -0.321600
  0.415000, -0.295900
  0.417000, -0.273200
  0.419000, -0.253100
  0.421000, -0.235900
  0.423000, -0.221300
  0.425000, -0.209500
  0.427000, -0.200000
  0.429000, -0.192800
  0.431000, -0.187800
  0.433000, -0.185000
  0.435000, -0.184300
  0.437000, -0.184900
  0.439000, -0.187300
  0.441000, -0.191300
  0.443000, -0.196600
  0.445000, -0.203200
  0.447000, -0.211400
  0.449000, -0.220500
  0.451000, -0.230000
  0.453000, -0.240500
  0.455000, -0.252000
  0.457000, -0.263900
  0.459000, -0.276000
  0.461000, -0.288900
  0.463000, -0.302100
  0.465000, -0.315100
  0.467000, -0.328000
  0.469000, -0.341100
  0.471000, -0.354200
  0.473000, -0.366800
  0.475000, -0.379200
  0.477000, -0.391500
  0.479000, -0.403700
  0.481000, -0.415300
  0.483000, -0.426300
  0.485000, -0.436900
  0.487000, -0.447300
  0.489000, -0.457100
  0.491000, -0.466100
  0.493000, -0.474600
  0.495000, -0.482600
  0.497000, -0.490000
  0.499000, -0.496800
  0.501000, -0.503100
  0.503000, -0.508600
  0.505000, -0.513500
  0.507000, -0.518000
  0.509000, -0.522000
  0.511000, -0.525400
  0.513000, -0.528300
  0.515000, -0.530800
  0.517000, -0.532700
  0.519000, -0.534000
  0.521000, -0.535000
  0.523000, -0.535500
  0.525000, -0.535800
  0.527000, -0.535800
  0.529000, -0.535500
  0.531000, -0.534800
  0.533000, -0.533900
  0.535000, -0.532700
  0.537000, -0.531300
  0.539000, -0.529700
  0.541000, -0.528000
  0.543000, -0.526100
  0.545000, -0.524200
  0.547000, -0.522200
  0.549000, -0.519900
  0.551000, -0.517600
  0.553000, -0.515300
  0.555000, -0.513000
  0.557000, -0.510600
  0.559000, -0.508100
  0.561000, -0.505500
  0.563000, -0.502700
  0.565000, -0.500000
  0.567000, -0.497200
  0.569000, -0.494400
  0.571000, -0.491500
  0.573000, -0.488500
  0.575000, -0.485600
  0.577000, -0.482500
  0.579000, -0.479500
  0.581000, -0.476600
  0.583000, -0.473500
  0.585000, -0.470400
  0.587000, -0.467100
  0.589000, -0.463800
  0.591000, -0.460500
  0.593000, -0.457000
  0.595000, -0.453300
  0.597000, -0.449400
  0.599000, -0.445500
  0.601000, -0.441300
  0.603000, -0.437000
  0.605000, -0.432400
  0.607000, -0.427700
  0.609000, -0.422900
  0.611000, -0.417800
  0.613000, -0.412500
  0.615000, -0.407000
  0.617000, -0.401400
  0.619000, -0.395500
  0.621000, -0.389500
  0.623000, -0.383200
  0.625000, -0.376900
  0.627000, -0.370300
  0.629000, -0.363400
  0.631000, -0.356400
  0.633000, -0.349200
  0.635000, -0.341600
  0.637000, -0.334100
  0.639000, -0.326400
  0.641000, -0.318500
  0.643000, -0.310600
  0.645000, -0.302500
  0.647000, -0.294300
  0.649000, -0.285900
  0.651000, -0.277400
  0.653000, -0.268900
  0.655000, -0.260300
  0.657000, -0.251700
  0.659000, -0.243000
  0.661000, -0.234400
  0.663000, -0.225800
  0.665000, -0.217200
  0.667000, -0.208700
  0.669000, -0.200200
  0.671000, -0.191700
  0.673000, -0.183300
  0.675000, -0.174900
  0.677000, -0.166700
  0.679000, -0.158800
  0.681000, -0.150900
  0.683000, -0.143100
  0.685000, -0.135500
  0.687000, -0.128000
  0.689000, -0.120800
  0.691000, -0.113800
  0.693000, -0.106900
  0.695000, -0.100300
  0.697000, -0.093700
  0.699000, -0.087400
  0.701000, -0.081300
  0.703000, -0.075500
  0.705000, -0.070000
  0.707000, -0.064700
  0.709000, -0.059600
  0.711000, -0.054700
  0.713000, -0.050000
  0.715000, -0.045400
  0.717000, -0.041000
  0.719000, -0.036800
  0.721000, -0.032800
  0.723000, -0.029100
  0.725000, -0.025600
  0.727000, -0.022300
  0.729000, -0.019100
  0.731000, -0.016100
  0.733000, -0.013400
  0.735000, -0.010700
  0.737000, -0.008200
  0.739000, -0.005900
  0.741000, -0.003700
  0.743000, -0.001800
  0.745000, -0.000100
  0.747000,  0.001600
  0.749000,  0.003000
  0.751000,  0.004200
  0.753000,  0.005400
  0.755000,  0.006500
  0.757000,  0.007500
  0.759000,  0.008500
  0.761000,  0.009300
  0.763000,  0.010000
  0.765000,  0.010700
  0.767000,  0.011200
  0.769000,  0.011500
  0.771000,  0.011700
  0.773000,  0.011800
  0.775000,  0.011900
  0.777000,  0.011800
  0.779000,  0.011700
  0.781000,  0.011500
  0.783000,  0.011200
  0.785000,  0.010900
  0.787000,  0.010400
  0.789000,  0.010000
  0.791000,  0.009500
  0.793000,  0.008900
  0.795000,  0.008200
  0.797000,  0.007400
  0.799000,  0.006500
  0.801000,  0.005500
  0.803000,  0.004500
  0.805000,  0.003400
  0.807000,  0.002300
  0.809000,  0.001100
  0.811000, -0.000100
  0.813000, -0.001300
  0.815000, -0.002500
  0.817000, -0.003800
  0.819000, -0.005200
  0.821000, -0.006700
  0.823000, -0.008300
  0.825000, -0.009900
  0.827000, -0.011500
  0.829000, -0.013100
  0.831000, -0.014900
  0.833000, -0.016700
  0.835000, -0.018500
  0.837000, -0.020300
  0.839000, -0.022000
  0.841000, -0.023800
  0.843000, -0.025700
  0.845000, -0.027600
  0.847000, -0.029400
  0.849000, -0.031300
  0.851000, -0.033200
  0.853000, -0.035100
  0.855000, -0.037000
  0.857000, -0.038900
  0.859000, -0.040700
  0.861000, -0.042400
  0.863000, -0.044100
  0.865000, -0.045800
  0.867000, -0.047400
  0.869000, -0.049000
  0.871000, -0.050500
  0.873000, -0.052100
  0.875000, -0.053600
  0.877000, -0.055000
  0.879000, -0.056300
  0.881000, -0.057500
  0.883000, -0.058700
  0.885000, -0.059800
  0.887000, -0.060800
  0.889000, -0.061700
  0.891000, -0.062600
  0.893000, -0.063200
  0.895000, -0.063800
  0.897000, -0.064300
  0.899000, -0.064700
  0.901000, -0.065000
  0.903000, -0.065200
  0.905000, -0.065300
  0.907000, -0.065400
  0.909000, -0.065400
  0.911000, -0.065300
  0.913000, -0.065100
  0.915000, -0.064900
  0.917000, -0.064500
  0.919000, -0.064100
  0.921000, -0.063600
  0.923000, -0.063100
  0.925000, -0.062600
  0.927000, -0.062100
  0.929000, -0.061400
  0.931000, -0.060600
  0.933000, -0.059900
  0.935000, -0.059200
  0.937000, -0.058400
  0.939000, -0.057700
  0.941000, -0.057000
  0.943000, -0.056300
  0.945000, -0.055600
  0.947000, -0.054800
  0.949000, -0.054000
  0.951000, -0.053300
  0.953000, -0.052700
  0.955000, -0.052000
  0.957000, -0.051300
  0.959000, -0.050700
  0.961000, -0.050100
  0.963000, -0.049600
  0.965000, -0.049100
  0.967000, -0.048600
  0.969000, -0.048200
  0.971000, -0.047800
  0.973000, -0.047400
  0.975000, -0.047000
  0.977000, -0.046700
  0.979000, -0.046400
  0.981000, -0.046200
  0.983000, -0.046000
  0.985000, -0.045800
  0.987000, -0.045600
  0.989000, -0.045500
  0.991000, -0.045400
  0.993000, -0.045300
  0.995000, -0.045100
  0.997000, -0.045100
  0.999000, -0.045100
  1.001000, -0.045100
  1.003000, -0.045100
  1.005000, -0.045100
  1.007000, -0.045300
  1.009000, -0.045400
  1.011000, -0.045500
  1.013000, -0.045600
  1.015000, -0.045600
  1.017000, -0.045700
  1.019000, -0.045900
  1.021000, -0.046100
  1.023000, -0.046200
  1.025000, -0.046400
  1.027000, -0.046500
  1.029000, -0.046600
  1.031000, -0.046700
  1.033000, -0.046900
  1.035000, -0.047200
  1.037000, -0.047400
  1.039000, -0.047600
  1.041000, -0.047700
  1.043000, -0.047900
  1.045000, -0.048200
  1.047000, -0.048600
  1.049000, -0.048900
  1.051000, -0.049200
  1.053000, -0.049700
  1.055000, -0.050100
  1.057000, -0.050600
  1.059000, -0.051200
  1.061000, -0.051800
  1.063000, -0.052400
  1.065000, -0.053100
  1.067000, -0.053900
  1.069000, -0.054800
  1.071000, -0.055700
  1.073000, -0.056600
  1.075000, -0.057700
  1.077000, -0.058800
  1.079000, -0.059900
  1.081000, -0.061100
  1.083000, -0.062500
  1.085000, -0.063900
  1.087000, -0.065300
  1.089000, -0.066600
  1.091000, -0.068100
  1.093000, -0.069800
  1.095000, -0.071500
  1.097000, -0.073100
  1.099000, -0.074900
  1.101000, -0.076600
  1.103000, -0.078500
  1.105000, -0.080400
  1.107000, -0.082300
  1.109000, -0.084300
  1.111000, -0.086300
  1.113000, -0.088300
  1.115000, -0.090300
  1.117000, -0.092400
  1.119000, -0.094400
  1.121000, -0.096400
  1.123000, -0.098300
  1.125000, -0.100100
  1.127000, -0.101900
  1.129000, -0.103700
  1.131000, -0.105700
  1.133000, -0.107500
  1.135000, -0.109200
  1.137000, -0.110900
  1.139000, -0.112400
  1.141000, -0.113900
  1.143000, -0.115300
  1.145000, -0.116700
  1.147000, -0.117900
  1.149000, -0.118900
  1.151000, -0.119800
  1.153000, -0.120700
  1.155000, -0.121500
  1.157000, -0.122100
  1.159000, -0.122400
  1.161000, -0.122500
  1.163000, -0.122500
  1.165000, -0.122500
  1.167000, -0.122400
  1.169000, -0.121900
  1.171000, -0.121300
  1.173000, -0.120500
  1.175000, -0.119500
  1.177000, -0.118300
  1.179000, -0.117100
  1.181000, -0.115700
  1.183000, -0.114100
  1.185000, -0.112400
  1.187000, -0.110500
  1.189000, -0.108500
  1.191000, -0.106300
  1.193000, -0.103900
  1.195000, -0.101400
  1.197000, -0.098700
  1.199000, -0.095900
  1.201000, -0.093100
  1.203000, -0.090100
  1.205000, -0.087000
  1.207000, -0.083900
  1.209000, -0.080700
  1.211000, -0.077500
  1.213000, -0.074100
  1.215000, -0.070500
  1.217000, -0.067000
  1.219000, -0.063400
  1.221000, -0.059800
  1.223000, -0.056300
  1.225000, -0.052600
  1.227000, -0.048800
  1.229000, -0.045300
  1.231000, -0.041800
  1.233000, -0.038400
  1.235000, -0.034900
  1.237000, -0.031500
  1.239000, -0.028200
  1.241000, -0.025000
  1.243000, -0.021600
  1.245000, -0.018300
  1.247000, -0.015100
  1.249000, -0.012100
  1.251000, -0.009100
  1.253000, -0.006400
  1.255000, -0.003800
  1.257000, -0.001200
  1.259000,  0.001100
  1.261000,  0.003400
  1.263000,  0.005500
  1.265000,  0.007400
  1.267000,  0.009300
  1.269000,  0.010900
  1.271000,  0.012400
  1.273000,  0.013700
  1.275000,  0.014800
  1.277000,  0.015800
  1.279000,  0.016800
  1.281000,  0.017600
  1.283000,  0.018300
  1.285000,  0.018700
  1.287000,  0.019200
  1.289000,  0.019700
  1.291000,  0.020000
  1.293000,  0.020100
  1.295000,  0.020000
  1.297000,  0.019800
  1.299000,  0.019500
  1.301000,  0.019300
  1.303000,  0.019100
  1.305000,  0.018700
  1.307000,  0.018200
  1.309000,  0.017700
  1.311000,  0.017100
  1.313000,  0.016500
  1.315000,  0.015800
  1.317000,  0.015200
  1.319000,  0.014800
  1.321000,  0.014400
  1.323000,  0.013900
  1.325000,  0.013500
  1.327000,  0.013100
  1.329000,  0.012800
  1.331000,  0.012700
  1.333000,  0.012500
  1.335000,  0.012400
  1.337000,  0.012600
  1.339000,  0.012900
  1.341000,  0.013300
  1.343000,  0.013600
  1.345000,  0.014000
  1.347000,  0.014600
  1.349000,  0.015300
  1.351000,  0.015900
  1.353000,  0.016700
  1.355000,  0.017600
  1.357000,  0.018800
  1.359000,  0.019900
  1.361000,  0.020900
  1.363000,  0.022100
  1.365000,  0.023400
  1.367000,  0.024900
  1.369000,  0.026500
  1.371000,  0.028000
  1.373000,  0.029300
  1.375000,  0.030500
  1.377000,  0.031600
  1.379000,  0.032800
  1.381000,  0.033900
  1.383000,  0.034900
  1.385000,  0.035900
  1.387000,  0.036600
  1.389000,  0.037400
  1.391000,  0.037900
  1.393000,  0.038100
  1.395000,  0.037800
  1.397000,  0.037100
  1.399000,  0.036100
