# z (nm)   (kJ/mol)
  0.171000, 11.926700
  0.173000, 11.696500
  0.175000, 11.443800
  0.177000, 11.172000
  0.179000, 10.855900
  0.181000, 10.566000
  0.183000, 10.291700
  0.185000, 10.002400
  0.187000,  9.703200
  0.189000,  9.396500
  0.191000,  9.082800
  0.193000,  8.769300
  0.195000,  8.459200
  0.197000,  8.158000
  0.199000,  7.852400
  0.201000,  7.543400
  0.203000,  7.233100
  0.205000,  6.918000
  0.207000,  6.604200
  0.209000,  6.299600
  0.211000,  5.999400
  0.213000,  5.696500
  0.215000,  5.393200
  0.217000,  5.097500
  0.219000,  4.807200
  0.221000,  4.519000
  0.223000,  4.233100
  0.225000,  3.951400
  0.227000,  3.677400
  0.229000,  3.410400
  0.231000,  3.148600
  0.233000,  2.895100
  0.235000,  2.650000
  0.237000,  2.409500
  0.239000,  2.176000
  0.241000,  1.949200
  0.243000,  1.731500
  0.245000,  1.524000
  0.247000,  1.323400
  0.249000,  1.132700
  0.251000,  0.950400
  0.253000,  0.773700
  0.255000,  0.604800
  0.257000,  0.445300
  0.259000,  0.293800
  0.261000,  0.149400
  0.263000,  0.014100
  0.265000, -0.113400
  0.267000, -0.233700
  0.269000, -0.345300
  0.271000, -0.448100
  0.273000, -0.542300
  0.275000, -0.628400
  0.277000, -0.707000
  0.279000, -0.777500
  0.281000, -0.840400
  0.283000, -0.896000
  0.285000, -0.944000
  0.287000, -0.985100
  0.289000, -1.019000
  0.291000, -1.045800
  0.293000, -1.066100
  0.295000, -1.080200
  0.297000, -1.087500
  0.299000, -1.088800
  0.301000, -1.085300
  0.303000, -1.076800
  0.305000, -1.062200
  0.307000, -1.042200
  0.309000, -1.017900
  0.311000, -0.988400
  0.313000, -0.954200
  0.315000, -0.916000
  0.317000, -0.874700
  0.319000, -0.830500
  0.321000, -0.782100
  0.323000, -0.730300
  0.325000, -0.675800
  0.327000, -0.619100
  0.329000, -0.560300
  0.331000, -0.500000
  0.333000, -0.437900
  0.335000, -0.374000
  0.337000, -0.309600
  0.339000, -0.244000
  0.341000, -0.177400
  0.343000, -0.110400
  0.345000, -0.043700
  0.347000,  0.022700
  0.349000,  0.089200
  0.351000,  0.155300
  0.353000,  0.221700
  0.355000,  0.288500
  0.357000,  0.354400
  0.359000,  0.419800
  0.361000,  0.484200
  0.363000,  0.547300
  0.365000,  0.609500
  0.367000,  0.670800
  0.369000,  0.731200
  0.371000,  0.790000
  0.373000,  0.847500
  0.375000,  0.903600
  0.377000,  0.957900
  0.379000,  1.011000
  0.381000,  1.062700
  0.383000,  1.112900
  0.385000,  1.161600
  0.387000,  1.208400
  0.389000,  1.253400
  0.391000,  1.296500
  0.393000,  1.338000
  0.395000,  1.377500
  0.397000,  1.415100
  0.399000,  1.450500
  0.401000,  1.483800
  0.403000,  1.515100
  0.405000,  1.544100
  0.407000,  1.571000
  0.409000,  1.595700
  0.411000,  1.618100
  0.413000,  1.638000
  0.415000,  1.655600
  0.417000,  1.670800
  0.419000,  1.683700
  0.421000,  1.694100
  0.423000,  1.701800
  0.425000,  1.707200
  0.427000,  1.709800
  0.429000,  1.709700
  0.431000,  1.706800
  0.433000,  1.701200
  0.435000,  1.692700
  0.437000,  1.681400
  0.439000,  1.667300
  0.441000,  1.650400
  0.443000,  1.630500
  0.445000,  1.607700
  0.447000,  1.582000
  0.449000,  1.553300
  0.451000,  1.521700
  0.453000,  1.487200
  0.455000,  1.449800
  0.457000,  1.409400
  0.459000,  1.366300
  0.461000,  1.320400
  0.463000,  1.271700
  0.465000,  1.220400
  0.467000,  1.166300
  0.469000,  1.109600
  0.471000,  1.050400
  0.473000,  0.988800
  0.475000,  0.924800
  0.477000,  0.858600
  0.479000,  0.790400
  0.481000,  0.720000
  0.483000,  0.647700
  0.485000,  0.574000
  0.487000,  0.498200
  0.489000,  0.420300
  0.491000,  0.341300
  0.493000,  0.261500
  0.495000,  0.180500
  0.497000,  0.098900
  0.499000,  0.016300
  0.501000, -0.067000
  0.503000, -0.150500
  0.505000, -0.234500
  0.507000, -0.318900
  0.509000, -0.403300
  0.511000, -0.487000
  0.513000, -0.570600
  0.515000, -0.653900
  0.517000, -0.736000
  0.519000, -0.817400
  0.521000, -0.898100
  0.523000, -0.978000
  0.525000, -1.056100
  0.527000, -1.132600
  0.529000, -1.207700
  0.531000, -1.281100
  0.533000, -1.352800
  0.535000, -1.422700
  0.537000, -1.490400
  0.539000, -1.555700
  0.541000, -1.618800
  0.543000, -1.679300
  0.545000, -1.737300
  0.547000, -1.792600
  0.549000, -1.844900
  0.551000, -1.894400
  0.553000, -1.941400
  0.555000, -1.985400
  0.557000, -2.026200
  0.559000, -2.063900
  0.561000, -2.098800
  0.563000, -2.130600
  0.565000, -2.159200
  0.567000, -2.184700
  0.569000, -2.207100
  0.571000, -2.226400
  0.573000, -2.242600
  0.575000, -2.255800
  0.577000, -2.266000
  0.579000, -2.273200
  0.581000, -2.277500
  0.583000, -2.278800
  0.585000, -2.277200
  0.587000, -2.272700
  0.589000, -2.265800
  0.591000, -2.256200
  0.593000, -2.244100
  0.595000, -2.229500
  0.597000, -2.212500
  0.599000, -2.193100
  0.601000, -2.171400
  0.603000, -2.147600
  0.605000, -2.121800
  0.607000, -2.094000
  0.609000, -2.064500
  0.611000, -2.033100
  0.613000, -2.000200
  0.615000, -1.966000
  0.617000, -1.930200
  0.619000, -1.893200
  0.621000, -1.855400
  0.623000, -1.816200
  0.625000, -1.775900
  0.627000, -1.734500
  0.629000, -1.692100
  0.631000, -1.649000
  0.633000, -1.605200
  0.635000, -1.560900
  0.637000, -1.516200
  0.639000, -1.470700
  0.641000, -1.425100
  0.643000, -1.379700
  0.645000, -1.333800
  0.647000, -1.287500
  0.649000, -1.241300
  0.651000, -1.195000
  0.653000, -1.148900
  0.655000, -1.103100
  0.657000, -1.057400
  0.659000, -1.012200
  0.661000, -0.967300
  0.663000, -0.922600
  0.665000, -0.878500
  0.667000, -0.835000
  0.669000, -0.791800
  0.671000, -0.749100
  0.673000, -0.706700
  0.675000, -0.665100
  0.677000, -0.624100
  0.679000, -0.583800
  0.681000, -0.544100
  0.683000, -0.505100
  0.685000, -0.466800
  0.687000, -0.429300
  0.689000, -0.392500
  0.691000, -0.356300
  0.693000, -0.321000
  0.695000, -0.286500
  0.697000, -0.252800
  0.699000, -0.220100
  0.701000, -0.188300
  0.703000, -0.157300
  0.705000, -0.127200
  0.707000, -0.098000
  0.709000, -0.069800
  0.711000, -0.042300
  0.713000, -0.015800
  0.715000,  0.009900
  0.717000,  0.034600
  0.719000,  0.058000
  0.721000,  0.080600
  0.723000,  0.102500
  0.725000,  0.123600
  0.727000,  0.143300
  0.729000,  0.161900
  0.731000,  0.179700
  0.733000,  0.196400
  0.735000,  0.212100
  0.737000,  0.226900
  0.739000,  0.240600
  0.741000,  0.253300
  0.743000,  0.264900
  0.745000,  0.275400
  0.747000,  0.285100
  0.749000,  0.293700
  0.751000,  0.301500
  0.753000,  0.308200
  0.755000,  0.313800
  0.757000,  0.318700
  0.759000,  0.322400
  0.761000,  0.325100
  0.763000,  0.327000
  0.765000,  0.328100
  0.767000,  0.328200
  0.769000,  0.327400
  0.771000,  0.325600
  0.773000,  0.323100
  0.775000,  0.319800
  0.777000,  0.315600
  0.779000,  0.310400
  0.781000,  0.304500
  0.783000,  0.298000
  0.785000,  0.290900
  0.787000,  0.283000
  0.789000,  0.274300
  0.791000,  0.264800
  0.793000,  0.254900
  0.795000,  0.244400
  0.797000,  0.233400
  0.799000,  0.222000
  0.801000,  0.209900
  0.803000,  0.197500
  0.805000,  0.184600
  0.807000,  0.171300
  0.809000,  0.157800
  0.811000,  0.143900
  0.813000,  0.129600
  0.815000,  0.115200
  0.817000,  0.100600
  0.819000,  0.085900
  0.821000,  0.071100
  0.823000,  0.056100
  0.825000,  0.041000
  0.827000,  0.025900
  0.829000,  0.010900
  0.831000, -0.003900
  0.833000, -0.018600
  0.835000, -0.033200
  0.837000, -0.047600
  0.839000, -0.062000
  0.841000, -0.076000
  0.843000, -0.089600
  0.845000, -0.103100
  0.847000, -0.116100
  0.849000, -0.128900
  0.851000, -0.141300
  0.853000, -0.153300
  0.855000, -0.165000
  0.857000, -0.176000
  0.859000, -0.186600
  0.861000, -0.196700
  0.863000, -0.206200
  0.865000, -0.215000
  0.867000, -0.223400
  0.869000, -0.231200
  0.871000, -0.238400
  0.873000, -0.245100
  0.875000, -0.251200
  0.877000, -0.256700
  0.879000, -0.261600
  0.881000, -0.265900
  0.883000, -0.269400
  0.885000, -0.272300
  0.887000, -0.274700
  0.889000, -0.276500
  0.891000, -0.277800
  0.893000, -0.278300
  0.895000, -0.278200
  0.897000, -0.277600
  0.899000, -0.276400
  0.901000, -0.274800
  0.903000, -0.272600
  0.905000, -0.269900
  0.907000, -0.266900
  0.909000, -0.263300
  0.911000, -0.259300
  0.913000, -0.254800
  0.915000, -0.249900
  0.917000, -0.244600
  0.919000, -0.238800
  0.921000, -0.232800
  0.923000, -0.226500
  0.925000, -0.220100
  0.927000, -0.213300
  0.929000, -0.206300
  0.931000, -0.199100
  0.933000, -0.191700
  0.935000, -0.184100
  0.937000, -0.176500
  0.939000, -0.168800
  0.941000, -0.161000
  0.943000, -0.153100
  0.945000, -0.145100
  0.947000, -0.137200
  0.949000, -0.129100
  0.951000, -0.121100
  0.953000, -0.113300
  0.955000, -0.105400
  0.957000, -0.097500
  0.959000, -0.089800
  0.961000, -0.082200
  0.963000, -0.074700
  0.965000, -0.067300
  0.967000, -0.060000
  0.969000, -0.052800
  0.971000, -0.045700
  0.973000, -0.038900
  0.975000, -0.032200
  0.977000, -0.025700
  0.979000, -0.019300
  0.981000, -0.013100
  0.983000, -0.007100
  0.985000, -0.001300
  0.987000,  0.004400
  0.989000,  0.009900
  0.991000,  0.015100
  0.993000,  0.020200
  0.995000,  0.025100
  0.997000,  0.029800
  0.999000,  0.034300
  1.001000,  0.038700
  1.003000,  0.042800
  1.005000,  0.046800
  1.007000,  0.050600
  1.009000,  0.054200
  1.011000,  0.057600
  1.013000,  0.060900
  1.015000,  0.064000
  1.017000,  0.067000
  1.019000,  0.069900
  1.021000,  0.072600
  1.023000,  0.075200
  1.025000,  0.077500
  1.027000,  0.079600
  1.029000,  0.081600
  1.031000,  0.083500
  1.033000,  0.085100
  1.035000,  0.086700
  1.037000,  0.088100
  1.039000,  0.089400
  1.041000,  0.090500
  1.043000,  0.091400
  1.045000,  0.092300
  1.047000,  0.093000
  1.049000,  0.093600
  1.051000,  0.094100
  1.053000,  0.094400
  1.055000,  0.094500
  1.057000,  0.094600
  1.059000,  0.094400
  1.061000,  0.094100
  1.063000,  0.093700
  1.065000,  0.093200
  1.067000,  0.092400
  1.069000,  0.091500
  1.071000,  0.090600
  1.073000,  0.089500
  1.075000,  0.088300
  1.077000,  0.086900
  1.079000,  0.085500
  1.081000,  0.083900
  1.083000,  0.082300
  1.085000,  0.080500
  1.087000,  0.078700
  1.089000,  0.076700
  1.091000,  0.074600
  1.093000,  0.072400
  1.095000,  0.070100
  1.097000,  0.067700
  1.099000,  0.065200
  1.101000,  0.062600
  1.103000,  0.060000
  1.105000,  0.057300
  1.107000,  0.054600
  1.109000,  0.051700
  1.111000,  0.048800
  1.113000,  0.045900
  1.115000,  0.042800
  1.117000,  0.039700
  1.119000,  0.036600
  1.121000,  0.033400
  1.123000,  0.030200
  1.125000,  0.027000
  1.127000,  0.023700
  1.129000,  0.020500
  1.131000,  0.017500
  1.133000,  0.014400
  1.135000,  0.011200
  1.137000,  0.008100
  1.139000,  0.005000
  1.141000,  0.002100
  1.143000, -0.000900
  1.145000, -0.003900
  1.147000, -0.006700
  1.149000, -0.009600
  1.151000, -0.012300
  1.153000, -0.014900
  1.155000, -0.017400
  1.157000, -0.019800
  1.159000, -0.022000
  1.161000, -0.024200
  1.163000, -0.026100
  1.165000, -0.027900
  1.167000, -0.029600
  1.169000, -0.031200
  1.171000, -0.032700
  1.173000, -0.034000
  1.175000, -0.035200
  1.177000, -0.036200
  1.179000, -0.037200
  1.181000, -0.038000
  1.183000, -0.038600
  1.185000, -0.039100
  1.187000, -0.039400
  1.189000, -0.039700
  1.191000, -0.039800
  1.193000, -0.039800
  1.195000, -0.039800
  1.197000, -0.039600
  1.199000, -0.039300
  1.201000, -0.038900
  1.203000, -0.038400
  1.205000, -0.037800
  1.207000, -0.037100
  1.209000, -0.036300
  1.211000, -0.035400
  1.213000, -0.034500
  1.215000, -0.033500
  1.217000, -0.032600
  1.219000, -0.031600
  1.221000, -0.030500
  1.223000, -0.029300
  1.225000, -0.028100
  1.227000, -0.027000
  1.229000, -0.025800
  1.231000, -0.024600
  1.233000, -0.023400
  1.235000, -0.022200
  1.237000, -0.021100
  1.239000, -0.020000
  1.241000, -0.018900
  1.243000, -0.017800
  1.245000, -0.016700
  1.247000, -0.015700
  1.249000, -0.014700
  1.251000, -0.013800
  1.253000, -0.012800
  1.255000, -0.011900
  1.257000, -0.011200
  1.259000, -0.010500
  1.261000, -0.009900
  1.263000, -0.009300
  1.265000, -0.008700
  1.267000, -0.008200
  1.269000, -0.007700
  1.271000, -0.007200
  1.273000, -0.006800
  1.275000, -0.006300
  1.277000, -0.006000
  1.279000, -0.005600
  1.281000, -0.005300
  1.283000, -0.005200
  1.285000, -0.005000
  1.287000, -0.004900
  1.289000, -0.004900
  1.291000, -0.004800
  1.293000, -0.004700
  1.295000, -0.004600
  1.297000, -0.004600
  1.299000, -0.004400
  1.301000, -0.004300
  1.303000, -0.004300
  1.305000, -0.004200
  1.307000, -0.004000
  1.309000, -0.003900
  1.311000, -0.003600
  1.313000, -0.003400
  1.315000, -0.003100
  1.317000, -0.002800
  1.319000, -0.002500
  1.321000, -0.002100
  1.323000, -0.001600
  1.325000, -0.000900
  1.327000, -0.000200
  1.329000,  0.000500
  1.331000,  0.001300
  1.333000,  0.002200
  1.335000,  0.003100
  1.337000,  0.004100
  1.339000,  0.005300
  1.341000,  0.006600
  1.343000,  0.008000
  1.345000,  0.009500
  1.347000,  0.010900
  1.349000,  0.012400
  1.351000,  0.014000
  1.353000,  0.015800
  1.355000,  0.017500
  1.357000,  0.019400
  1.359000,  0.021300
  1.361000,  0.023100
  1.363000,  0.025100
  1.365000,  0.027200
  1.367000,  0.029400
  1.369000,  0.031500
  1.371000,  0.033300
  1.373000,  0.035100
  1.375000,  0.037200
  1.377000,  0.039300
  1.379000,  0.041200
  1.381000,  0.043000
  1.383000,  0.044700
  1.385000,  0.046300
  1.387000,  0.047800
  1.389000,  0.049200
  1.391000,  0.050300
  1.393000,  0.051200
  1.395000,  0.051700
  1.397000,  0.052000
  1.399000,  0.051800
