# z (nm)   (kJ/mol)
  0.1410   12.94910
  0.1450   12.56070
  0.1510   12.37250
  0.1530   12.16830
  0.1550   11.96720
  0.1570   11.76190
  0.1590   11.54490
  0.1610   11.32200
  0.1630   11.09080
  0.1650   10.83600
  0.1670   10.55820
  0.1690   10.28340
  0.1710   10.01930
  0.1730    9.74910
  0.1750    9.46570
  0.1770    9.18100
  0.1790    8.89120
  0.1810    8.59560
  0.1830    8.29260
  0.1850    7.98330
  0.1870    7.67470
  0.1890    7.36430
  0.1910    7.05360
  0.1930    6.74320
  0.1950    6.43330
  0.1970    6.12410
  0.1990    5.80760
  0.2010    5.49390
  0.2030    5.18420
  0.2050    4.87060
  0.2070    4.55920
  0.2090    4.25150
  0.2110    3.94490
  0.2130    3.63990
  0.2150    3.33900
  0.2170    3.04020
  0.2190    2.74550
  0.2210    2.45560
  0.2230    2.16800
  0.2250    1.89030
  0.2270    1.61850
  0.2290    1.34630
  0.2310    1.08030
  0.2330    0.82200
  0.2350    0.57170
  0.2370    0.32910
  0.2390    0.09250
  0.2410   -0.13790
  0.2430   -0.36050
  0.2450   -0.57470
  0.2470   -0.78230
  0.2490   -0.98220
  0.2510   -1.17410
  0.2530   -1.35770
  0.2550   -1.53180
  0.2570   -1.69850
  0.2590   -1.85820
  0.2610   -2.00840
  0.2630   -2.14930
  0.2650   -2.28110
  0.2670   -2.40500
  0.2690   -2.52050
  0.2710   -2.62640
  0.2730   -2.72290
  0.2750   -2.81050
  0.2770   -2.89010
  0.2790   -2.96150
  0.2810   -3.02400
  0.2830   -3.07770
  0.2850   -3.12300
  0.2870   -3.16000
  0.2890   -3.18900
  0.2910   -3.20980
  0.2930   -3.22310
  0.2950   -3.22890
  0.2970   -3.22720
  0.2990   -3.21770
  0.3010   -3.20080
  0.3030   -3.17760
  0.3050   -3.14810
  0.3070   -3.11270
  0.3090   -3.07110
  0.3110   -3.02300
  0.3130   -2.97020
  0.3150   -2.91320
  0.3170   -2.85080
  0.3190   -2.78400
  0.3210   -2.71350
  0.3230   -2.63900
  0.3250   -2.56090
  0.3270   -2.48000
  0.3290   -2.39650
  0.3310   -2.31040
  0.3330   -2.22350
  0.3350   -2.13540
  0.3370   -2.04510
  0.3390   -1.95500
  0.3410   -1.86450
  0.3430   -1.77300
  0.3450   -1.68210
  0.3470   -1.59130
  0.3490   -1.50080
  0.3510   -1.41090
  0.3530   -1.32240
  0.3550   -1.23490
  0.3570   -1.14880
  0.3590   -1.06530
  0.3610   -0.98320
  0.3630   -0.90280
  0.3650   -0.82460
  0.3670   -0.74890
  0.3690   -0.67590
  0.3710   -0.60540
  0.3730   -0.53730
  0.3750   -0.47200
  0.3770   -0.40990
  0.3790   -0.35040
  0.3810   -0.29350
  0.3830   -0.23940
  0.3850   -0.18820
  0.3870   -0.13990
  0.3890   -0.09440
  0.3910   -0.05200
  0.3930   -0.01260
  0.3950    0.02390
  0.3970    0.05760
  0.3990    0.08900
  0.4010    0.11800
  0.4030    0.14460
  0.4050    0.16870
  0.4070    0.19050
  0.4090    0.21010
  0.4110    0.22750
  0.4130    0.24290
  0.4150    0.25610
  0.4170    0.26740
  0.4190    0.27720
  0.4210    0.28540
  0.4230    0.29190
  0.4250    0.29640
  0.4270    0.29950
  0.4290    0.30150
  0.4310    0.30240
  0.4330    0.30210
  0.4350    0.30110
  0.4370    0.29890
  0.4390    0.29530
  0.4410    0.29110
  0.4430    0.28620
  0.4450    0.28040
  0.4470    0.27400
  0.4490    0.26710
  0.4510    0.26000
  0.4530    0.25260
  0.4550    0.24460
  0.4570    0.23610
  0.4590    0.22730
  0.4610    0.21850
  0.4630    0.20930
  0.4650    0.19990
  0.4670    0.19030
  0.4690    0.18080
  0.4710    0.17120
  0.4730    0.16170
  0.4750    0.15210
  0.4770    0.14250
  0.4790    0.13280
  0.4810    0.12330
  0.4830    0.11400
  0.4850    0.10480
  0.4870    0.09550
  0.4890    0.08620
  0.4910    0.07710
  0.4930    0.06800
  0.4950    0.05900
  0.4970    0.05000
  0.4990    0.04120
  0.5010    0.03260
  0.5030    0.02400
  0.5050    0.01540
  0.5070    0.00700
  0.5090   -0.00140
  0.5110   -0.00970
  0.5130   -0.01800
  0.5150   -0.02600
  0.5170   -0.03410
  0.5190   -0.04200
  0.5210   -0.05000
  0.5230   -0.05770
  0.5250   -0.06540
  0.5270   -0.07310
  0.5290   -0.08070
  0.5310   -0.08820
  0.5330   -0.09570
  0.5350   -0.10300
  0.5370   -0.11020
  0.5390   -0.11740
  0.5410   -0.12450
  0.5430   -0.13150
  0.5450   -0.13830
  0.5470   -0.14510
  0.5490   -0.15170
  0.5510   -0.15820
  0.5530   -0.16460
  0.5550   -0.17080
  0.5570   -0.17690
  0.5590   -0.18280
  0.5610   -0.18860
  0.5630   -0.19420
  0.5650   -0.19960
  0.5670   -0.20490
  0.5690   -0.21000
  0.5710   -0.21490
  0.5730   -0.21950
  0.5750   -0.22400
  0.5770   -0.22820
  0.5790   -0.23220
  0.5810   -0.23600
  0.5830   -0.23950
  0.5850   -0.24280
  0.5870   -0.24580
  0.5890   -0.24860
  0.5910   -0.25100
  0.5930   -0.25320
  0.5950   -0.25510
  0.5970   -0.25660
  0.5990   -0.25790
  0.6010   -0.25900
  0.6030   -0.25980
  0.6050   -0.26030
  0.6070   -0.26050
  0.6090   -0.26020
  0.6110   -0.25970
  0.6130   -0.25900
  0.6150   -0.25800
  0.6170   -0.25660
  0.6190   -0.25500
  0.6210   -0.25300
  0.6230   -0.25080
  0.6250   -0.24820
  0.6270   -0.24520
  0.6290   -0.24200
  0.6310   -0.23870
  0.6330   -0.23510
  0.6350   -0.23130
  0.6370   -0.22730
  0.6390   -0.22290
  0.6410   -0.21820
  0.6430   -0.21330
  0.6450   -0.20820
  0.6470   -0.20300
  0.6490   -0.19770
  0.6510   -0.19210
  0.6530   -0.18650
  0.6550   -0.18070
  0.6570   -0.17460
  0.6590   -0.16840
  0.6610   -0.16210
  0.6630   -0.15570
  0.6650   -0.14920
  0.6670   -0.14260
  0.6690   -0.13600
  0.6710   -0.12940
  0.6730   -0.12280
  0.6750   -0.11640
  0.6770   -0.11000
  0.6790   -0.10360
  0.6810   -0.09730
  0.6830   -0.09090
  0.6850   -0.08470
  0.6870   -0.07850
  0.6890   -0.07250
  0.6910   -0.06670
  0.6930   -0.06100
  0.6950   -0.05540
  0.6970   -0.05000
  0.6990   -0.04480
  0.7010   -0.03970
  0.7030   -0.03480
  0.7050   -0.03010
  0.7070   -0.02560
  0.7090   -0.02130
  0.7110   -0.01720
  0.7130   -0.01350
  0.7150   -0.01000
  0.7170   -0.00660
  0.7190   -0.00350
  0.7210   -0.00040
  0.7230    0.00240
  0.7250    0.00480
  0.7270    0.00710
  0.7290    0.00920
  0.7310    0.01100
  0.7330    0.01270
  0.7350    0.01420
  0.7370    0.01570
  0.7390    0.01690
  0.7410    0.01800
  0.7430    0.01890
  0.7450    0.01960
  0.7470    0.02020
  0.7490    0.02070
  0.7510    0.02090
  0.7530    0.02100
  0.7550    0.02110
  0.7570    0.02110
  0.7590    0.02100
  0.7610    0.02070
  0.7630    0.02040
  0.7650    0.02000
  0.7670    0.01940
  0.7690    0.01870
  0.7710    0.01790
  0.7730    0.01710
  0.7750    0.01640
  0.7770    0.01560
  0.7790    0.01460
  0.7810    0.01370
  0.7830    0.01270
  0.7850    0.01150
  0.7870    0.01010
  0.7890    0.00870
  0.7910    0.00730
  0.7930    0.00600
  0.7950    0.00460
  0.7970    0.00290
  0.7990    0.00120
  0.8010   -0.00060
  0.8030   -0.00240
  0.8050   -0.00440
  0.8070   -0.00650
  0.8090   -0.00870
  0.8110   -0.01100
  0.8130   -0.01330
  0.8150   -0.01570
  0.8170   -0.01820
  0.8190   -0.02080
  0.8210   -0.02330
  0.8230   -0.02600
  0.8250   -0.02870
  0.8270   -0.03150
  0.8290   -0.03430
  0.8310   -0.03720
  0.8330   -0.04020
  0.8350   -0.04320
  0.8370   -0.04630
  0.8390   -0.04940
  0.8410   -0.05240
  0.8430   -0.05540
  0.8450   -0.05860
  0.8470   -0.06170
  0.8490   -0.06470
  0.8510   -0.06770
  0.8530   -0.07080
  0.8550   -0.07380
  0.8570   -0.07680
  0.8590   -0.07960
  0.8610   -0.08230
  0.8630   -0.08520
  0.8650   -0.08790
  0.8670   -0.09060
  0.8690   -0.09310
  0.8710   -0.09560
  0.8730   -0.09790
  0.8750   -0.10010
  0.8770   -0.10220
  0.8790   -0.10420
  0.8810   -0.10610
  0.8830   -0.10790
  0.8850   -0.10950
  0.8870   -0.11110
  0.8890   -0.11260
  0.8910   -0.11400
  0.8930   -0.11520
  0.8950   -0.11640
  0.8970   -0.11750
  0.8990   -0.11830
  0.9010   -0.11900
  0.9030   -0.11960
  0.9050   -0.12010
  0.9070   -0.12060
  0.9090   -0.12100
  0.9110   -0.12120
  0.9130   -0.12130
  0.9150   -0.12140
  0.9170   -0.12140
  0.9190   -0.12120
  0.9210   -0.12090
  0.9230   -0.12050
  0.9250   -0.12000
  0.9270   -0.11950
  0.9290   -0.11890
  0.9310   -0.11820
  0.9330   -0.11750
  0.9350   -0.11680
  0.9370   -0.11600
  0.9390   -0.11510
  0.9410   -0.11420
  0.9430   -0.11320
  0.9450   -0.11200
  0.9470   -0.11080
  0.9490   -0.10960
  0.9510   -0.10840
  0.9530   -0.10710
  0.9550   -0.10570
  0.9570   -0.10420
  0.9590   -0.10270
  0.9610   -0.10120
  0.9630   -0.09950
  0.9650   -0.09790
  0.9670   -0.09620
  0.9690   -0.09440
  0.9710   -0.09260
  0.9730   -0.09080
  0.9750   -0.08890
  0.9770   -0.08710
  0.9790   -0.08520
  0.9810   -0.08330
  0.9830   -0.08110
  0.9850   -0.07900
  0.9870   -0.07690
  0.9890   -0.07480
  0.9910   -0.07250
  0.9930   -0.07020
  0.9950   -0.06800
  0.9970   -0.06580
  0.9990   -0.06350
  1.0010   -0.06110
  1.0030   -0.05880
  1.0050   -0.05650
  1.0070   -0.05430
  1.0090   -0.05210
  1.0110   -0.04980
  1.0130   -0.04760
  1.0150   -0.04540
  1.0170   -0.04330
  1.0190   -0.04130
  1.0210   -0.03940
  1.0230   -0.03730
  1.0250   -0.03530
  1.0270   -0.03330
  1.0290   -0.03130
  1.0310   -0.02940
  1.0330   -0.02770
  1.0350   -0.02610
  1.0370   -0.02450
  1.0390   -0.02310
  1.0410   -0.02180
  1.0430   -0.02060
  1.0450   -0.01950
  1.0470   -0.01860
  1.0490   -0.01770
  1.0510   -0.01690
  1.0530   -0.01620
  1.0550   -0.01560
  1.0570   -0.01500
  1.0590   -0.01460
  1.0610   -0.01430
  1.0630   -0.01410
  1.0650   -0.01410
  1.0670   -0.01420
  1.0690   -0.01430
  1.0710   -0.01460
  1.0730   -0.01510
  1.0750   -0.01560
  1.0770   -0.01620
  1.0790   -0.01680
  1.0810   -0.01760
  1.0830   -0.01850
  1.0850   -0.01950
  1.0870   -0.02070
  1.0890   -0.02180
  1.0910   -0.02290
  1.0930   -0.02430
  1.0950   -0.02580
  1.0970   -0.02730
  1.0990   -0.02880
  1.1010   -0.03030
  1.1030   -0.03180
  1.1050   -0.03360
  1.1070   -0.03530
  1.1090   -0.03700
  1.1110   -0.03880
  1.1130   -0.04060
  1.1150   -0.04240
  1.1170   -0.04410
  1.1190   -0.04590
  1.1210   -0.04760
  1.1230   -0.04930
  1.1250   -0.05100
  1.1270   -0.05260
  1.1290   -0.05420
  1.1310   -0.05570
  1.1330   -0.05720
  1.1350   -0.05870
  1.1370   -0.06010
  1.1390   -0.06160
  1.1410   -0.06280
  1.1430   -0.06400
  1.1450   -0.06520
  1.1470   -0.06620
  1.1490   -0.06720
  1.1510   -0.06810
  1.1530   -0.06900
  1.1550   -0.06980
  1.1570   -0.07050
  1.1590   -0.07110
  1.1610   -0.07160
  1.1630   -0.07210
  1.1650   -0.07240
  1.1670   -0.07270
  1.1690   -0.07290
  1.1710   -0.07300
  1.1730   -0.07300
  1.1750   -0.07290
  1.1770   -0.07270
  1.1790   -0.07240
  1.1810   -0.07210
  1.1830   -0.07160
  1.1850   -0.07100
  1.1870   -0.07050
  1.1890   -0.06980
  1.1910   -0.06900
  1.1930   -0.06820
  1.1950   -0.06720
  1.1970   -0.06620
  1.1990   -0.06510
  1.2010   -0.06400
  1.2030   -0.06280
  1.2050   -0.06150
  1.2070   -0.06010
  1.2090   -0.05870
  1.2110   -0.05720
  1.2130   -0.05550
  1.2150   -0.05370
  1.2170   -0.05210
  1.2190   -0.05050
  1.2210   -0.04870
  1.2230   -0.04680
  1.2250   -0.04490
  1.2270   -0.04320
  1.2290   -0.04130
  1.2310   -0.03930
  1.2330   -0.03740
  1.2350   -0.03550
  1.2370   -0.03360
  1.2390   -0.03170
  1.2410   -0.02970
  1.2430   -0.02780
  1.2450   -0.02590
  1.2470   -0.02400
  1.2490   -0.02210
  1.2510   -0.02030
  1.2530   -0.01870
  1.2550   -0.01700
  1.2570   -0.01550
  1.2590   -0.01400
  1.2610   -0.01250
  1.2630   -0.01110
  1.2650   -0.00980
  1.2670   -0.00850
  1.2690   -0.00740
  1.2710   -0.00630
  1.2730   -0.00530
  1.2750   -0.00440
  1.2770   -0.00360
  1.2790   -0.00280
  1.2810   -0.00210
  1.2830   -0.00160
  1.2850   -0.00100
  1.2870   -0.00050
  1.2890   -0.00000
  1.2910    0.00050
  1.2930    0.00090
  1.2950    0.00140
  1.2970    0.00180
  1.2990    0.00210
  1.3010    0.00230
  1.3030    0.00270
  1.3050    0.00300
  1.3070    0.00330
  1.3090    0.00360
  1.3110    0.00390
  1.3130    0.00430
  1.3150    0.00470
  1.3170    0.00520
  1.3190    0.00580
  1.3210    0.00640
  1.3230    0.00710
  1.3250    0.00780
  1.3270    0.00850
  1.3290    0.00950
  1.3310    0.01040
  1.3330    0.01140
  1.3350    0.01250
  1.3370    0.01360
  1.3390    0.01490
  1.3410    0.01630
  1.3430    0.01770
  1.3450    0.01910
  1.3470    0.02060
  1.3490    0.02240
  1.3510    0.02420
  1.3530    0.02590
  1.3550    0.02780
  1.3570    0.02960
  1.3590    0.03140
  1.3610    0.03320
  1.3630    0.03510
  1.3650    0.03690
  1.3670    0.03890
  1.3690    0.04070
  1.3710    0.04240
  1.3730    0.04430
  1.3750    0.04610
  1.3770    0.04770
  1.3790    0.04930
  1.3810    0.05070
  1.3830    0.05170
  1.3850    0.05260
  1.3870    0.05340
  1.3890    0.05420
  1.3910    0.05460
  1.3930    0.05450
  1.3950    0.05410
  1.3970    0.05330
  1.3990    0.05220
