# z (nm)   (kJ/mol)
  0.083000,  8.226400
  0.085000,  7.965100
  0.087000,  7.708700
  0.089000,  7.415700
  0.091000,  7.077900
  0.093000,  6.723700
  0.095000,  6.372800
  0.097000,  6.024300
  0.099000,  5.666900
  0.101000,  5.303300
  0.103000,  4.934600
  0.105000,  4.566600
  0.107000,  4.196800
  0.109000,  3.829000
  0.111000,  3.463100
  0.113000,  3.094600
  0.115000,  2.723400
  0.117000,  2.353500
  0.119000,  1.984200
  0.121000,  1.617600
  0.123000,  1.254500
  0.125000,  0.898500
  0.127000,  0.547200
  0.129000,  0.197200
  0.131000, -0.148400
  0.133000, -0.488800
  0.135000, -0.824500
  0.137000, -1.156000
  0.139000, -1.482700
  0.141000, -1.802500
  0.143000, -2.114100
  0.145000, -2.419100
  0.147000, -2.717900
  0.149000, -3.008300
  0.151000, -3.288900
  0.153000, -3.560300
  0.155000, -3.822600
  0.157000, -4.075100
  0.159000, -4.318900
  0.161000, -4.553100
  0.163000, -4.778400
  0.165000, -4.995700
  0.167000, -5.202400
  0.169000, -5.399100
  0.171000, -5.586200
  0.173000, -5.763000
  0.175000, -5.929200
  0.177000, -6.084700
  0.179000, -6.230200
  0.181000, -6.365800
  0.183000, -6.490500
  0.185000, -6.604300
  0.187000, -6.707700
  0.189000, -6.800800
  0.191000, -6.883700
  0.193000, -6.956700
  0.195000, -7.019900
  0.197000, -7.073200
  0.199000, -7.117300
  0.201000, -7.152300
  0.203000, -7.178500
  0.205000, -7.195500
  0.207000, -7.203700
  0.209000, -7.203800
  0.211000, -7.195800
  0.213000, -7.180600
  0.215000, -7.157800
  0.217000, -7.127400
  0.219000, -7.090600
  0.221000, -7.047900
  0.223000, -6.999500
  0.225000, -6.944600
  0.227000, -6.884200
  0.229000, -6.819400
  0.231000, -6.749600
  0.233000, -6.675500
  0.235000, -6.597400
  0.237000, -6.515600
  0.239000, -6.430500
  0.241000, -6.341700
  0.243000, -6.250300
  0.245000, -6.156500
  0.247000, -6.060300
  0.249000, -5.962500
  0.251000, -5.863000
  0.253000, -5.761800
  0.255000, -5.659000
  0.257000, -5.555100
  0.259000, -5.450400
  0.261000, -5.345200
  0.263000, -5.239300
  0.265000, -5.132900
  0.267000, -5.026300
  0.269000, -4.919500
  0.271000, -4.812500
  0.273000, -4.705500
  0.275000, -4.598700
  0.277000, -4.491900
  0.279000, -4.385200
  0.281000, -4.278700
  0.283000, -4.172300
  0.285000, -4.066100
  0.287000, -3.960400
  0.289000, -3.854800
  0.291000, -3.749200
  0.293000, -3.644200
  0.295000, -3.539600
  0.297000, -3.435000
  0.299000, -3.330900
  0.301000, -3.227000
  0.303000, -3.123300
  0.305000, -3.019700
  0.307000, -2.916300
  0.309000, -2.813100
  0.311000, -2.710200
  0.313000, -2.607500
  0.315000, -2.504800
  0.317000, -2.402600
  0.319000, -2.300700
  0.321000, -2.199100
  0.323000, -2.097800
  0.325000, -1.996900
  0.327000, -1.896200
  0.329000, -1.795800
  0.331000, -1.695900
  0.333000, -1.596300
  0.335000, -1.497500
  0.337000, -1.399300
  0.339000, -1.301500
  0.341000, -1.203800
  0.343000, -1.106700
  0.345000, -1.010800
  0.347000, -0.915900
  0.349000, -0.821800
  0.351000, -0.728600
  0.353000, -0.635900
  0.355000, -0.544100
  0.357000, -0.454500
  0.359000, -0.366100
  0.361000, -0.278300
  0.363000, -0.192400
  0.365000, -0.108400
  0.367000, -0.025800
  0.369000,  0.054700
  0.371000,  0.133200
  0.373000,  0.209800
  0.375000,  0.284200
  0.377000,  0.356400
  0.379000,  0.426600
  0.381000,  0.495000
  0.383000,  0.561400
  0.385000,  0.624800
  0.387000,  0.685100
  0.389000,  0.742700
  0.391000,  0.797700
  0.393000,  0.850200
  0.395000,  0.899300
  0.397000,  0.945200
  0.399000,  0.988100
  0.401000,  1.028200
  0.403000,  1.065400
  0.405000,  1.099400
  0.407000,  1.130300
  0.409000,  1.158300
  0.411000,  1.183300
  0.413000,  1.205100
  0.415000,  1.223800
  0.417000,  1.239300
  0.419000,  1.251700
  0.421000,  1.261000
  0.423000,  1.267300
  0.425000,  1.270600
  0.427000,  1.271100
  0.429000,  1.268700
  0.431000,  1.263500
  0.433000,  1.255400
  0.435000,  1.244600
  0.437000,  1.231400
  0.439000,  1.215600
  0.441000,  1.197200
  0.443000,  1.176300
  0.445000,  1.153200
  0.447000,  1.127800
  0.449000,  1.100200
  0.451000,  1.071100
  0.453000,  1.040400
  0.455000,  1.008200
  0.457000,  0.974600
  0.459000,  0.939500
  0.461000,  0.903000
  0.463000,  0.865200
  0.465000,  0.825800
  0.467000,  0.785600
  0.469000,  0.744400
  0.471000,  0.702200
  0.473000,  0.659500
  0.475000,  0.616100
  0.477000,  0.572700
  0.479000,  0.529500
  0.481000,  0.485700
  0.483000,  0.441800
  0.485000,  0.398000
  0.487000,  0.354000
  0.489000,  0.310100
  0.491000,  0.266700
  0.493000,  0.223900
  0.495000,  0.181500
  0.497000,  0.139500
  0.499000,  0.098000
  0.501000,  0.057100
  0.503000,  0.017200
  0.505000, -0.021600
  0.507000, -0.059400
  0.509000, -0.096300
  0.511000, -0.132100
  0.513000, -0.166900
  0.515000, -0.200800
  0.517000, -0.233200
  0.519000, -0.264500
  0.521000, -0.294500
  0.523000, -0.323100
  0.525000, -0.350600
  0.527000, -0.376700
  0.529000, -0.401300
  0.531000, -0.424800
  0.533000, -0.447000
  0.535000, -0.467900
  0.537000, -0.487300
  0.539000, -0.505400
  0.541000, -0.522000
  0.543000, -0.537200
  0.545000, -0.551000
  0.547000, -0.563400
  0.549000, -0.574600
  0.551000, -0.584400
  0.553000, -0.592900
  0.555000, -0.600100
  0.557000, -0.606000
  0.559000, -0.610700
  0.561000, -0.614100
  0.563000, -0.616300
  0.565000, -0.617300
  0.567000, -0.617200
  0.569000, -0.615900
  0.571000, -0.613500
  0.573000, -0.610100
  0.575000, -0.605700
  0.577000, -0.600200
  0.579000, -0.593800
  0.581000, -0.586400
  0.583000, -0.578200
  0.585000, -0.569100
  0.587000, -0.559200
  0.589000, -0.548500
  0.591000, -0.537000
  0.593000, -0.524900
  0.595000, -0.512200
  0.597000, -0.498800
  0.599000, -0.484700
  0.601000, -0.470100
  0.603000, -0.455000
  0.605000, -0.439200
  0.607000, -0.423100
  0.609000, -0.406600
  0.611000, -0.389700
  0.613000, -0.372500
  0.615000, -0.355000
  0.617000, -0.337300
  0.619000, -0.319300
  0.621000, -0.301200
  0.623000, -0.282900
  0.625000, -0.264400
  0.627000, -0.245700
  0.629000, -0.226900
  0.631000, -0.208100
  0.633000, -0.189300
  0.635000, -0.170600
  0.637000, -0.151800
  0.639000, -0.133100
  0.641000, -0.114500
  0.643000, -0.096000
  0.645000, -0.077700
  0.647000, -0.059600
  0.649000, -0.041600
  0.651000, -0.023800
  0.653000, -0.006300
  0.655000,  0.010900
  0.657000,  0.027900
  0.659000,  0.044600
  0.661000,  0.061000
  0.663000,  0.077100
  0.665000,  0.092700
  0.667000,  0.108000
  0.669000,  0.122900
  0.671000,  0.137400
  0.673000,  0.151500
  0.675000,  0.165100
  0.677000,  0.178300
  0.679000,  0.191000
  0.681000,  0.203200
  0.683000,  0.214900
  0.685000,  0.226100
  0.687000,  0.236900
  0.689000,  0.247100
  0.691000,  0.256800
  0.693000,  0.266100
  0.695000,  0.274700
  0.697000,  0.282800
  0.699000,  0.290400
  0.701000,  0.297500
  0.703000,  0.304000
  0.705000,  0.309900
  0.707000,  0.315300
  0.709000,  0.320100
  0.711000,  0.324400
  0.713000,  0.328100
  0.715000,  0.331200
  0.717000,  0.333800
  0.719000,  0.336000
  0.721000,  0.337600
  0.723000,  0.338700
  0.725000,  0.339300
  0.727000,  0.339300
  0.729000,  0.338900
  0.731000,  0.338100
  0.733000,  0.336700
  0.735000,  0.334700
  0.737000,  0.332300
  0.739000,  0.329400
  0.741000,  0.326200
  0.743000,  0.322500
  0.745000,  0.318500
  0.747000,  0.314100
  0.749000,  0.309300
  0.751000,  0.304200
  0.753000,  0.298600
  0.755000,  0.292700
  0.757000,  0.286500
  0.759000,  0.279900
  0.761000,  0.273000
  0.763000,  0.265800
  0.765000,  0.258400
  0.767000,  0.250700
  0.769000,  0.242800
  0.771000,  0.234600
  0.773000,  0.226200
  0.775000,  0.217500
  0.777000,  0.208600
  0.779000,  0.199500
  0.781000,  0.190300
  0.783000,  0.181100
  0.785000,  0.171700
  0.787000,  0.162100
  0.789000,  0.152400
  0.791000,  0.142400
  0.793000,  0.132500
  0.795000,  0.122700
  0.797000,  0.112800
  0.799000,  0.103000
  0.801000,  0.093200
  0.803000,  0.083300
  0.805000,  0.073400
  0.807000,  0.063800
  0.809000,  0.054400
  0.811000,  0.045000
  0.813000,  0.035500
  0.815000,  0.026300
  0.817000,  0.017300
  0.819000,  0.008300
  0.821000, -0.000600
  0.823000, -0.009200
  0.825000, -0.017500
  0.827000, -0.025600
  0.829000, -0.033400
  0.831000, -0.040900
  0.833000, -0.048100
  0.835000, -0.055100
  0.837000, -0.061900
  0.839000, -0.068400
  0.841000, -0.074500
  0.843000, -0.080400
  0.845000, -0.085900
  0.847000, -0.091000
  0.849000, -0.095700
  0.851000, -0.100000
  0.853000, -0.104100
  0.855000, -0.107800
  0.857000, -0.111200
  0.859000, -0.114100
  0.861000, -0.116700
  0.863000, -0.119000
  0.865000, -0.120900
  0.867000, -0.122500
  0.869000, -0.123700
  0.871000, -0.124600
  0.873000, -0.125000
  0.875000, -0.125100
  0.877000, -0.124900
  0.879000, -0.124400
  0.881000, -0.123600
  0.883000, -0.122400
  0.885000, -0.121100
  0.887000, -0.119600
  0.889000, -0.117800
  0.891000, -0.115600
  0.893000, -0.113200
  0.895000, -0.110700
  0.897000, -0.108000
  0.899000, -0.105100
  0.901000, -0.101900
  0.903000, -0.098700
  0.905000, -0.095200
  0.907000, -0.091600
  0.909000, -0.087800
  0.911000, -0.083900
  0.913000, -0.080000
  0.915000, -0.076100
  0.917000, -0.072100
  0.919000, -0.068100
  0.921000, -0.064100
  0.923000, -0.060100
  0.925000, -0.055900
  0.927000, -0.051700
  0.929000, -0.047600
  0.931000, -0.043500
  0.933000, -0.039400
  0.935000, -0.035400
  0.937000, -0.031400
  0.939000, -0.027300
  0.941000, -0.023400
  0.943000, -0.019500
  0.945000, -0.015600
  0.947000, -0.011800
  0.949000, -0.008200
  0.951000, -0.004500
  0.953000, -0.000900
  0.955000,  0.002600
  0.957000,  0.005900
  0.959000,  0.009200
  0.961000,  0.012500
  0.963000,  0.015600
  0.965000,  0.018700
  0.967000,  0.021700
  0.969000,  0.024700
  0.971000,  0.027600
  0.973000,  0.030400
  0.975000,  0.033000
  0.977000,  0.035600
  0.979000,  0.038200
  0.981000,  0.040700
  0.983000,  0.043100
  0.985000,  0.045400
  0.987000,  0.047700
  0.989000,  0.050000
  0.991000,  0.052000
  0.993000,  0.054000
  0.995000,  0.055900
  0.997000,  0.057700
  0.999000,  0.059500
  1.001000,  0.061200
  1.003000,  0.062800
  1.005000,  0.064400
  1.007000,  0.065900
  1.009000,  0.067300
  1.011000,  0.068600
  1.013000,  0.069900
  1.015000,  0.071100
  1.017000,  0.072300
  1.019000,  0.073400
  1.021000,  0.074400
  1.023000,  0.075300
  1.025000,  0.076200
  1.027000,  0.077000
  1.029000,  0.077700
  1.031000,  0.078400
  1.033000,  0.079000
  1.035000,  0.079500
  1.037000,  0.080000
  1.039000,  0.080500
  1.041000,  0.080900
  1.043000,  0.081200
  1.045000,  0.081400
  1.047000,  0.081600
  1.049000,  0.081700
  1.051000,  0.081800
  1.053000,  0.081700
  1.055000,  0.081700
  1.057000,  0.081600
  1.059000,  0.081500
  1.061000,  0.081200
  1.063000,  0.080800
  1.065000,  0.080400
  1.067000,  0.080000
  1.069000,  0.079600
  1.071000,  0.079100
  1.073000,  0.078500
  1.075000,  0.077700
  1.077000,  0.076800
  1.079000,  0.075900
  1.081000,  0.074900
  1.083000,  0.073900
  1.085000,  0.072900
  1.087000,  0.071900
  1.089000,  0.070800
  1.091000,  0.069700
  1.093000,  0.068500
  1.095000,  0.067100
  1.097000,  0.065500
  1.099000,  0.063900
  1.101000,  0.062200
  1.103000,  0.060600
  1.105000,  0.058800
  1.107000,  0.057000
  1.109000,  0.055200
  1.111000,  0.053200
  1.113000,  0.051200
  1.115000,  0.049100
  1.117000,  0.047000
  1.119000,  0.044800
  1.121000,  0.042600
  1.123000,  0.040200
  1.125000,  0.037800
  1.127000,  0.035400
  1.129000,  0.033000
  1.131000,  0.030500
  1.133000,  0.028000
  1.135000,  0.025400
  1.137000,  0.022900
  1.139000,  0.020300
  1.141000,  0.017700
  1.143000,  0.015100
  1.145000,  0.012500
  1.147000,  0.009900
  1.149000,  0.007300
  1.151000,  0.004900
  1.153000,  0.002400
  1.155000, -0.000200
  1.157000, -0.002600
  1.159000, -0.005000
  1.161000, -0.007300
  1.163000, -0.009500
  1.165000, -0.011700
  1.167000, -0.013900
  1.169000, -0.015900
  1.171000, -0.017900
  1.173000, -0.019700
  1.175000, -0.021400
  1.177000, -0.023000
  1.179000, -0.024600
  1.181000, -0.026000
  1.183000, -0.027300
  1.185000, -0.028500
  1.187000, -0.029600
  1.189000, -0.030500
  1.191000, -0.031200
  1.193000, -0.031800
  1.195000, -0.032300
  1.197000, -0.032600
  1.199000, -0.032900
  1.201000, -0.033000
  1.203000, -0.033000
  1.205000, -0.032900
  1.207000, -0.032700
  1.209000, -0.032400
  1.211000, -0.031900
  1.213000, -0.031500
  1.215000, -0.030800
  1.217000, -0.030000
  1.219000, -0.029200
  1.221000, -0.028300
  1.223000, -0.027400
  1.225000, -0.026400
  1.227000, -0.025500
  1.229000, -0.024400
  1.231000, -0.023400
  1.233000, -0.022200
  1.235000, -0.021000
  1.237000, -0.019900
  1.239000, -0.018800
  1.241000, -0.017600
  1.243000, -0.016400
  1.245000, -0.015400
  1.247000, -0.014300
  1.249000, -0.013300
  1.251000, -0.012400
  1.253000, -0.011500
  1.255000, -0.010600
  1.257000, -0.009700
  1.259000, -0.008900
  1.261000, -0.008200
  1.263000, -0.007500
  1.265000, -0.006900
  1.267000, -0.006300
  1.269000, -0.005800
  1.271000, -0.005400
  1.273000, -0.005000
  1.275000, -0.004700
  1.277000, -0.004400
  1.279000, -0.004100
  1.281000, -0.004000
  1.283000, -0.004000
  1.285000, -0.003900
  1.287000, -0.003900
  1.289000, -0.003800
  1.291000, -0.003800
  1.293000, -0.003700
  1.295000, -0.003800
  1.297000, -0.003700
  1.299000, -0.003700
  1.301000, -0.003700
  1.303000, -0.003700
  1.305000, -0.003600
  1.307000, -0.003500
  1.309000, -0.003300
  1.311000, -0.003000
  1.313000, -0.002800
  1.315000, -0.002400
  1.317000, -0.002000
  1.319000, -0.001500
  1.321000, -0.000800
  1.323000, -0.000200
  1.325000,  0.000700
  1.327000,  0.001500
  1.329000,  0.002200
  1.331000,  0.003100
  1.333000,  0.004200
  1.335000,  0.005400
  1.337000,  0.006700
  1.339000,  0.008100
  1.341000,  0.009500
  1.343000,  0.010900
  1.345000,  0.012500
  1.347000,  0.014100
  1.349000,  0.015600
  1.351000,  0.017300
  1.353000,  0.019000
  1.355000,  0.020600
  1.357000,  0.022200
  1.359000,  0.023700
  1.361000,  0.025200
  1.363000,  0.026700
  1.365000,  0.028100
  1.367000,  0.029600
  1.369000,  0.030900
  1.371000,  0.032100
  1.373000,  0.033300
  1.375000,  0.034200
  1.377000,  0.035000
  1.379000,  0.035500
  1.381000,  0.036000
  1.383000,  0.036300
  1.385000,  0.036300
  1.387000,  0.036000
  1.389000,  0.035300
  1.391000,  0.034300
  1.393000,  0.032800
  1.395000,  0.031000
  1.397000,  0.028800
  1.399000,  0.026100
