# z (nm)   (kJ/mol)
  0.2010    6.30650
  0.2030    5.87670
  0.2050    5.45160
  0.2070    5.02960
  0.2090    4.60630
  0.2110    4.17500
  0.2130    3.72500
  0.2150    3.26540
  0.2170    2.80920
  0.2190    2.35950
  0.2210    1.90990
  0.2230    1.46120
  0.2250    1.01860
  0.2270    0.57170
  0.2290    0.12850
  0.2310   -0.30700
  0.2330   -0.74160
  0.2350   -1.17210
  0.2370   -1.59940
  0.2390   -2.02090
  0.2410   -2.43280
  0.2430   -2.83630
  0.2450   -3.23240
  0.2470   -3.61920
  0.2490   -3.99630
  0.2510   -4.36560
  0.2530   -4.72540
  0.2550   -5.07590
  0.2570   -5.41780
  0.2590   -5.74710
  0.2610   -6.06480
  0.2630   -6.37400
  0.2650   -6.67450
  0.2670   -6.96320
  0.2690   -7.23820
  0.2710   -7.50190
  0.2730   -7.75510
  0.2750   -7.99570
  0.2770   -8.22450
  0.2790   -8.44260
  0.2810   -8.64860
  0.2830   -8.84090
  0.2850   -9.02060
  0.2870   -9.18910
  0.2890   -9.34560
  0.2910   -9.49010
  0.2930   -9.62270
  0.2950   -9.74340
  0.2970   -9.85290
  0.2990   -9.95100
  0.3010  -10.03780
  0.3030  -10.11300
  0.3050  -10.17730
  0.3070  -10.23110
  0.3090  -10.27380
  0.3110  -10.30560
  0.3130  -10.32720
  0.3150  -10.33910
  0.3170  -10.34160
  0.3190  -10.33470
  0.3210  -10.31890
  0.3230  -10.29430
  0.3250  -10.26060
  0.3270  -10.21830
  0.3290  -10.16880
  0.3310  -10.11190
  0.3330  -10.04780
  0.3350   -9.97740
  0.3370   -9.90030
  0.3390   -9.81690
  0.3410   -9.72780
  0.3430   -9.63330
  0.3450   -9.53390
  0.3470   -9.42990
  0.3490   -9.32130
  0.3510   -9.20860
  0.3530   -9.09190
  0.3550   -8.97170
  0.3570   -8.84820
  0.3590   -8.72180
  0.3610   -8.59290
  0.3630   -8.46110
  0.3650   -8.32670
  0.3670   -8.19030
  0.3690   -8.05220
  0.3710   -7.91160
  0.3730   -7.76930
  0.3750   -7.62620
  0.3770   -7.48210
  0.3790   -7.33700
  0.3810   -7.19130
  0.3830   -7.04530
  0.3850   -6.89880
  0.3870   -6.75160
  0.3890   -6.60430
  0.3910   -6.45710
  0.3930   -6.30970
  0.3950   -6.16260
  0.3970   -6.01590
  0.3990   -5.86960
  0.4010   -5.72400
  0.4030   -5.57920
  0.4050   -5.43530
  0.4070   -5.29220
  0.4090   -5.15020
  0.4110   -5.00930
  0.4130   -4.86940
  0.4150   -4.73120
  0.4170   -4.59420
  0.4190   -4.45860
  0.4210   -4.32460
  0.4230   -4.19200
  0.4250   -4.06120
  0.4270   -3.93230
  0.4290   -3.80500
  0.4310   -3.67890
  0.4330   -3.55480
  0.4350   -3.43300
  0.4370   -3.31340
  0.4390   -3.19610
  0.4410   -3.08110
  0.4430   -2.96830
  0.4450   -2.85760
  0.4470   -2.74910
  0.4490   -2.64290
  0.4510   -2.53900
  0.4530   -2.43740
  0.4550   -2.33870
  0.4570   -2.24240
  0.4590   -2.14870
  0.4610   -2.05770
  0.4630   -1.96890
  0.4650   -1.88240
  0.4670   -1.79850
  0.4690   -1.71710
  0.4710   -1.63830
  0.4730   -1.56230
  0.4750   -1.48870
  0.4770   -1.41780
  0.4790   -1.34970
  0.4810   -1.28390
  0.4830   -1.22080
  0.4850   -1.16040
  0.4870   -1.10240
  0.4890   -1.04710
  0.4910   -0.99430
  0.4930   -0.94400
  0.4950   -0.89640
  0.4970   -0.85150
  0.4990   -0.80900
  0.5010   -0.76900
  0.5030   -0.73130
  0.5050   -0.69570
  0.5070   -0.66240
  0.5090   -0.63170
  0.5110   -0.60320
  0.5130   -0.57690
  0.5150   -0.55290
  0.5170   -0.53110
  0.5190   -0.51130
  0.5210   -0.49350
  0.5230   -0.47780
  0.5250   -0.46390
  0.5270   -0.45190
  0.5290   -0.44180
  0.5310   -0.43350
  0.5330   -0.42690
  0.5350   -0.42170
  0.5370   -0.41810
  0.5390   -0.41630
  0.5410   -0.41610
  0.5430   -0.41710
  0.5450   -0.41930
  0.5470   -0.42260
  0.5490   -0.42730
  0.5510   -0.43330
  0.5530   -0.44030
  0.5550   -0.44820
  0.5570   -0.45700
  0.5590   -0.46690
  0.5610   -0.47770
  0.5630   -0.48900
  0.5650   -0.50110
  0.5670   -0.51400
  0.5690   -0.52760
  0.5710   -0.54170
  0.5730   -0.55620
  0.5750   -0.57100
  0.5770   -0.58640
  0.5790   -0.60230
  0.5810   -0.61830
  0.5830   -0.63460
  0.5850   -0.65090
  0.5870   -0.66710
  0.5890   -0.68340
  0.5910   -0.69980
  0.5930   -0.71600
  0.5950   -0.73200
  0.5970   -0.74840
  0.5990   -0.76470
  0.6010   -0.78050
  0.6030   -0.79600
  0.6050   -0.81130
  0.6070   -0.82630
  0.6090   -0.84090
  0.6110   -0.85490
  0.6130   -0.86850
  0.6150   -0.88160
  0.6170   -0.89410
  0.6190   -0.90610
  0.6210   -0.91740
  0.6230   -0.92810
  0.6250   -0.93820
  0.6270   -0.94770
  0.6290   -0.95650
  0.6310   -0.96460
  0.6330   -0.97200
  0.6350   -0.97850
  0.6370   -0.98410
  0.6390   -0.98900
  0.6410   -0.99330
  0.6430   -0.99660
  0.6450   -0.99900
  0.6470   -1.00060
  0.6490   -1.00140
  0.6510   -1.00140
  0.6530   -1.00050
  0.6550   -0.99870
  0.6570   -0.99610
  0.6590   -0.99270
  0.6610   -0.98850
  0.6630   -0.98340
  0.6650   -0.97750
  0.6670   -0.97070
  0.6690   -0.96310
  0.6710   -0.95470
  0.6730   -0.94540
  0.6750   -0.93540
  0.6770   -0.92460
  0.6790   -0.91320
  0.6810   -0.90120
  0.6830   -0.88840
  0.6850   -0.87490
  0.6870   -0.86090
  0.6890   -0.84620
  0.6910   -0.83090
  0.6930   -0.81500
  0.6950   -0.79860
  0.6970   -0.78160
  0.6990   -0.76430
  0.7010   -0.74660
  0.7030   -0.72840
  0.7050   -0.71000
  0.7070   -0.69110
  0.7090   -0.67180
  0.7110   -0.65230
  0.7130   -0.63250
  0.7150   -0.61270
  0.7170   -0.59270
  0.7190   -0.57250
  0.7210   -0.55220
  0.7230   -0.53170
  0.7250   -0.51130
  0.7270   -0.49110
  0.7290   -0.47100
  0.7310   -0.45090
  0.7330   -0.43070
  0.7350   -0.41060
  0.7370   -0.39080
  0.7390   -0.37110
  0.7410   -0.35170
  0.7430   -0.33250
  0.7450   -0.31350
  0.7470   -0.29470
  0.7490   -0.27640
  0.7510   -0.25830
  0.7530   -0.24040
  0.7550   -0.22310
  0.7570   -0.20620
  0.7590   -0.18970
  0.7610   -0.17370
  0.7630   -0.15820
  0.7650   -0.14300
  0.7670   -0.12830
  0.7690   -0.11420
  0.7710   -0.10060
  0.7730   -0.08750
  0.7750   -0.07490
  0.7770   -0.06290
  0.7790   -0.05150
  0.7810   -0.04080
  0.7830   -0.03060
  0.7850   -0.02090
  0.7870   -0.01180
  0.7890   -0.00320
  0.7910    0.00480
  0.7930    0.01220
  0.7950    0.01900
  0.7970    0.02530
  0.7990    0.03090
  0.8010    0.03610
  0.8030    0.04070
  0.8050    0.04480
  0.8070    0.04830
  0.8090    0.05120
  0.8110    0.05370
  0.8130    0.05560
  0.8150    0.05700
  0.8170    0.05810
  0.8190    0.05850
  0.8210    0.05860
  0.8230    0.05820
  0.8250    0.05740
  0.8270    0.05620
  0.8290    0.05450
  0.8310    0.05250
  0.8330    0.05020
  0.8350    0.04760
  0.8370    0.04460
  0.8390    0.04150
  0.8410    0.03820
  0.8430    0.03440
  0.8450    0.03040
  0.8470    0.02630
  0.8490    0.02190
  0.8510    0.01740
  0.8530    0.01280
  0.8550    0.00790
  0.8570    0.00300
  0.8590   -0.00180
  0.8610   -0.00670
  0.8630   -0.01180
  0.8650   -0.01700
  0.8670   -0.02210
  0.8690   -0.02730
  0.8710   -0.03250
  0.8730   -0.03760
  0.8750   -0.04260
  0.8770   -0.04750
  0.8790   -0.05250
  0.8810   -0.05740
  0.8830   -0.06230
  0.8850   -0.06730
  0.8870   -0.07210
  0.8890   -0.07700
  0.8910   -0.08200
  0.8930   -0.08680
  0.8950   -0.09160
  0.8970   -0.09640
  0.8990   -0.10110
  0.9010   -0.10570
  0.9030   -0.11010
  0.9050   -0.11450
  0.9070   -0.11880
  0.9090   -0.12310
  0.9110   -0.12750
  0.9130   -0.13170
  0.9150   -0.13580
  0.9170   -0.13980
  0.9190   -0.14390
  0.9210   -0.14790
  0.9230   -0.15200
  0.9250   -0.15600
  0.9270   -0.15980
  0.9290   -0.16360
  0.9310   -0.16740
  0.9330   -0.17110
  0.9350   -0.17480
  0.9370   -0.17840
  0.9390   -0.18200
  0.9410   -0.18540
  0.9430   -0.18880
  0.9450   -0.19220
  0.9470   -0.19550
  0.9490   -0.19850
  0.9510   -0.20160
  0.9530   -0.20470
  0.9550   -0.20770
  0.9570   -0.21040
  0.9590   -0.21290
  0.9610   -0.21550
  0.9630   -0.21800
  0.9650   -0.22040
  0.9670   -0.22260
  0.9690   -0.22470
  0.9710   -0.22670
  0.9730   -0.22860
  0.9750   -0.23030
  0.9770   -0.23180
  0.9790   -0.23310
  0.9810   -0.23440
  0.9830   -0.23540
  0.9850   -0.23620
  0.9870   -0.23700
  0.9890   -0.23750
  0.9910   -0.23780
  0.9930   -0.23780
  0.9950   -0.23760
  0.9970   -0.23730
  0.9990   -0.23690
  1.0010   -0.23630
  1.0030   -0.23550
  1.0050   -0.23450
  1.0070   -0.23350
  1.0090   -0.23220
  1.0110   -0.23080
  1.0130   -0.22940
  1.0150   -0.22780
  1.0170   -0.22600
  1.0190   -0.22400
  1.0210   -0.22190
  1.0230   -0.21980
  1.0250   -0.21770
  1.0270   -0.21550
  1.0290   -0.21320
  1.0310   -0.21070
  1.0330   -0.20820
  1.0350   -0.20580
  1.0370   -0.20340
  1.0390   -0.20090
  1.0410   -0.19830
  1.0430   -0.19570
  1.0450   -0.19340
  1.0470   -0.19090
  1.0490   -0.18830
  1.0510   -0.18570
  1.0530   -0.18330
  1.0550   -0.18090
  1.0570   -0.17870
  1.0590   -0.17640
  1.0610   -0.17420
  1.0630   -0.17200
  1.0650   -0.16980
  1.0670   -0.16760
  1.0690   -0.16540
  1.0710   -0.16320
  1.0730   -0.16110
  1.0750   -0.15930
  1.0770   -0.15740
  1.0790   -0.15550
  1.0810   -0.15350
  1.0830   -0.15150
  1.0850   -0.14950
  1.0870   -0.14750
  1.0890   -0.14570
  1.0910   -0.14400
  1.0930   -0.14220
  1.0950   -0.14050
  1.0970   -0.13860
  1.0990   -0.13680
  1.1010   -0.13500
  1.1030   -0.13300
  1.1050   -0.13100
  1.1070   -0.12910
  1.1090   -0.12730
  1.1110   -0.12530
  1.1130   -0.12340
  1.1150   -0.12140
  1.1170   -0.11940
  1.1190   -0.11740
  1.1210   -0.11540
  1.1230   -0.11330
  1.1250   -0.11130
  1.1270   -0.10930
  1.1290   -0.10720
  1.1310   -0.10500
  1.1330   -0.10300
  1.1350   -0.10100
  1.1370   -0.09900
  1.1390   -0.09700
  1.1410   -0.09500
  1.1430   -0.09300
  1.1450   -0.09110
  1.1470   -0.08930
  1.1490   -0.08740
  1.1510   -0.08560
  1.1530   -0.08380
  1.1550   -0.08210
  1.1570   -0.08040
  1.1590   -0.07860
  1.1610   -0.07690
  1.1630   -0.07540
  1.1650   -0.07370
  1.1670   -0.07200
  1.1690   -0.07060
  1.1710   -0.06930
  1.1730   -0.06800
  1.1750   -0.06670
  1.1770   -0.06540
  1.1790   -0.06430
  1.1810   -0.06320
  1.1830   -0.06220
  1.1850   -0.06130
  1.1870   -0.06030
  1.1890   -0.05950
  1.1910   -0.05870
  1.1930   -0.05800
  1.1950   -0.05750
  1.1970   -0.05680
  1.1990   -0.05620
  1.2010   -0.05570
  1.2030   -0.05540
  1.2050   -0.05490
  1.2070   -0.05440
  1.2090   -0.05410
  1.2110   -0.05380
  1.2130   -0.05350
  1.2150   -0.05320
  1.2170   -0.05300
  1.2190   -0.05260
  1.2210   -0.05230
  1.2230   -0.05200
  1.2250   -0.05180
  1.2270   -0.05150
  1.2290   -0.05130
  1.2310   -0.05090
  1.2330   -0.05050
  1.2350   -0.05000
  1.2370   -0.04950
  1.2390   -0.04920
  1.2410   -0.04880
  1.2430   -0.04820
  1.2450   -0.04770
  1.2470   -0.04720
  1.2490   -0.04650
  1.2510   -0.04570
  1.2530   -0.04500
  1.2550   -0.04420
  1.2570   -0.04350
  1.2590   -0.04280
  1.2610   -0.04190
  1.2630   -0.04090
  1.2650   -0.04010
  1.2670   -0.03910
  1.2690   -0.03820
  1.2710   -0.03710
  1.2730   -0.03610
  1.2750   -0.03500
  1.2770   -0.03400
  1.2790   -0.03300
  1.2810   -0.03190
  1.2830   -0.03070
  1.2850   -0.02940
  1.2870   -0.02810
  1.2890   -0.02680
  1.2910   -0.02560
  1.2930   -0.02420
  1.2950   -0.02270
  1.2970   -0.02120
  1.2990   -0.01960
  1.3010   -0.01810
  1.3030   -0.01640
  1.3050   -0.01470
  1.3070   -0.01300
  1.3090   -0.01120
  1.3110   -0.00940
  1.3130   -0.00740
  1.3150   -0.00530
  1.3170   -0.00300
  1.3190   -0.00070
  1.3210    0.00170
  1.3230    0.00410
  1.3250    0.00660
  1.3270    0.00940
  1.3290    0.01210
  1.3310    0.01480
  1.3330    0.01770
  1.3350    0.02070
  1.3370    0.02380
  1.3390    0.02710
  1.3410    0.03030
  1.3430    0.03370
  1.3450    0.03700
  1.3470    0.04040
  1.3490    0.04380
  1.3510    0.04730
  1.3530    0.05080
  1.3550    0.05420
  1.3570    0.05760
  1.3590    0.06110
  1.3610    0.06450
  1.3630    0.06780
  1.3650    0.07100
  1.3670    0.07410
  1.3690    0.07710
  1.3710    0.07980
  1.3730    0.08260
  1.3750    0.08520
  1.3770    0.08780
  1.3790    0.08990
  1.3810    0.09160
  1.3830    0.09320
  1.3850    0.09440
  1.3870    0.09530
  1.3890    0.09590
  1.3910    0.09610
  1.3930    0.09570
  1.3950    0.09500
  1.3970    0.09380
  1.3990    0.09180
