# z (nm)   (kJ/mol)
  0.201000,  6.306500
  0.203000,  5.876700
  0.205000,  5.451600
  0.207000,  5.029600
  0.209000,  4.606300
  0.211000,  4.175000
  0.213000,  3.725000
  0.215000,  3.265400
  0.217000,  2.809200
  0.219000,  2.359500
  0.221000,  1.909900
  0.223000,  1.461200
  0.225000,  1.018600
  0.227000,  0.571700
  0.229000,  0.128500
  0.231000, -0.307000
  0.233000, -0.741600
  0.235000, -1.172100
  0.237000, -1.599400
  0.239000, -2.020900
  0.241000, -2.432800
  0.243000, -2.836300
  0.245000, -3.232400
  0.247000, -3.619200
  0.249000, -3.996300
  0.251000, -4.365600
  0.253000, -4.725400
  0.255000, -5.075900
  0.257000, -5.417800
  0.259000, -5.747100
  0.261000, -6.064800
  0.263000, -6.374000
  0.265000, -6.674500
  0.267000, -6.963200
  0.269000, -7.238200
  0.271000, -7.501900
  0.273000, -7.755100
  0.275000, -7.995700
  0.277000, -8.224500
  0.279000, -8.442600
  0.281000, -8.648600
  0.283000, -8.840900
  0.285000, -9.020600
  0.287000, -9.189100
  0.289000, -9.345600
  0.291000, -9.490100
  0.293000, -9.622700
  0.295000, -9.743400
  0.297000, -9.852900
  0.299000, -9.951000
  0.301000,-10.037800
  0.303000,-10.113000
  0.305000,-10.177300
  0.307000,-10.231100
  0.309000,-10.273800
  0.311000,-10.305600
  0.313000,-10.327200
  0.315000,-10.339100
  0.317000,-10.341600
  0.319000,-10.334700
  0.321000,-10.318900
  0.323000,-10.294300
  0.325000,-10.260600
  0.327000,-10.218300
  0.329000,-10.168800
  0.331000,-10.111900
  0.333000,-10.047800
  0.335000, -9.977400
  0.337000, -9.900300
  0.339000, -9.816900
  0.341000, -9.727800
  0.343000, -9.633300
  0.345000, -9.533900
  0.347000, -9.429900
  0.349000, -9.321300
  0.351000, -9.208600
  0.353000, -9.091900
  0.355000, -8.971700
  0.357000, -8.848200
  0.359000, -8.721800
  0.361000, -8.592900
  0.363000, -8.461100
  0.365000, -8.326700
  0.367000, -8.190300
  0.369000, -8.052200
  0.371000, -7.911600
  0.373000, -7.769300
  0.375000, -7.626200
  0.377000, -7.482100
  0.379000, -7.337000
  0.381000, -7.191300
  0.383000, -7.045300
  0.385000, -6.898800
  0.387000, -6.751600
  0.389000, -6.604300
  0.391000, -6.457100
  0.393000, -6.309700
  0.395000, -6.162600
  0.397000, -6.015900
  0.399000, -5.869600
  0.401000, -5.724000
  0.403000, -5.579200
  0.405000, -5.435300
  0.407000, -5.292200
  0.409000, -5.150200
  0.411000, -5.009300
  0.413000, -4.869400
  0.415000, -4.731200
  0.417000, -4.594200
  0.419000, -4.458600
  0.421000, -4.324600
  0.423000, -4.192000
  0.425000, -4.061200
  0.427000, -3.932300
  0.429000, -3.805000
  0.431000, -3.678900
  0.433000, -3.554800
  0.435000, -3.433000
  0.437000, -3.313400
  0.439000, -3.196100
  0.441000, -3.081100
  0.443000, -2.968300
  0.445000, -2.857600
  0.447000, -2.749100
  0.449000, -2.642900
  0.451000, -2.539000
  0.453000, -2.437400
  0.455000, -2.338700
  0.457000, -2.242400
  0.459000, -2.148700
  0.461000, -2.057700
  0.463000, -1.968900
  0.465000, -1.882400
  0.467000, -1.798500
  0.469000, -1.717100
  0.471000, -1.638300
  0.473000, -1.562300
  0.475000, -1.488700
  0.477000, -1.417800
  0.479000, -1.349700
  0.481000, -1.283900
  0.483000, -1.220800
  0.485000, -1.160400
  0.487000, -1.102400
  0.489000, -1.047100
  0.491000, -0.994300
  0.493000, -0.944000
  0.495000, -0.896400
  0.497000, -0.851500
  0.499000, -0.809000
  0.501000, -0.769000
  0.503000, -0.731300
  0.505000, -0.695700
  0.507000, -0.662400
  0.509000, -0.631700
  0.511000, -0.603200
  0.513000, -0.576900
  0.515000, -0.552900
  0.517000, -0.531100
  0.519000, -0.511300
  0.521000, -0.493500
  0.523000, -0.477800
  0.525000, -0.463900
  0.527000, -0.451900
  0.529000, -0.441800
  0.531000, -0.433500
  0.533000, -0.426900
  0.535000, -0.421700
  0.537000, -0.418100
  0.539000, -0.416300
  0.541000, -0.416100
  0.543000, -0.417100
  0.545000, -0.419300
  0.547000, -0.422600
  0.549000, -0.427300
  0.551000, -0.433300
  0.553000, -0.440300
  0.555000, -0.448200
  0.557000, -0.457000
  0.559000, -0.466900
  0.561000, -0.477700
  0.563000, -0.489000
  0.565000, -0.501100
  0.567000, -0.514000
  0.569000, -0.527600
  0.571000, -0.541700
  0.573000, -0.556200
  0.575000, -0.571000
  0.577000, -0.586400
  0.579000, -0.602300
  0.581000, -0.618300
  0.583000, -0.634600
  0.585000, -0.650900
  0.587000, -0.667100
  0.589000, -0.683400
  0.591000, -0.699800
  0.593000, -0.716000
  0.595000, -0.732000
  0.597000, -0.748400
  0.599000, -0.764700
  0.601000, -0.780500
  0.603000, -0.796000
  0.605000, -0.811300
  0.607000, -0.826300
  0.609000, -0.840900
  0.611000, -0.854900
  0.613000, -0.868500
  0.615000, -0.881600
  0.617000, -0.894100
  0.619000, -0.906100
  0.621000, -0.917400
  0.623000, -0.928100
  0.625000, -0.938200
  0.627000, -0.947700
  0.629000, -0.956500
  0.631000, -0.964600
  0.633000, -0.972000
  0.635000, -0.978500
  0.637000, -0.984100
  0.639000, -0.989000
  0.641000, -0.993300
  0.643000, -0.996600
  0.645000, -0.999000
  0.647000, -1.000600
  0.649000, -1.001400
  0.651000, -1.001400
  0.653000, -1.000500
  0.655000, -0.998700
  0.657000, -0.996100
  0.659000, -0.992700
  0.661000, -0.988500
  0.663000, -0.983400
  0.665000, -0.977500
  0.667000, -0.970700
  0.669000, -0.963100
  0.671000, -0.954700
  0.673000, -0.945400
  0.675000, -0.935400
  0.677000, -0.924600
  0.679000, -0.913200
  0.681000, -0.901200
  0.683000, -0.888400
  0.685000, -0.874900
  0.687000, -0.860900
  0.689000, -0.846200
  0.691000, -0.830900
  0.693000, -0.815000
  0.695000, -0.798600
  0.697000, -0.781600
  0.699000, -0.764300
  0.701000, -0.746600
  0.703000, -0.728400
  0.705000, -0.710000
  0.707000, -0.691100
  0.709000, -0.671800
  0.711000, -0.652300
  0.713000, -0.632500
  0.715000, -0.612700
  0.717000, -0.592700
  0.719000, -0.572500
  0.721000, -0.552200
  0.723000, -0.531700
  0.725000, -0.511300
  0.727000, -0.491100
  0.729000, -0.471000
  0.731000, -0.450900
  0.733000, -0.430700
  0.735000, -0.410600
  0.737000, -0.390800
  0.739000, -0.371100
  0.741000, -0.351700
  0.743000, -0.332500
  0.745000, -0.313500
  0.747000, -0.294700
  0.749000, -0.276400
  0.751000, -0.258300
  0.753000, -0.240400
  0.755000, -0.223100
  0.757000, -0.206200
  0.759000, -0.189700
  0.761000, -0.173700
  0.763000, -0.158200
  0.765000, -0.143000
  0.767000, -0.128300
  0.769000, -0.114200
  0.771000, -0.100600
  0.773000, -0.087500
  0.775000, -0.074900
  0.777000, -0.062900
  0.779000, -0.051500
  0.781000, -0.040800
  0.783000, -0.030600
  0.785000, -0.020900
  0.787000, -0.011800
  0.789000, -0.003200
  0.791000,  0.004800
  0.793000,  0.012200
  0.795000,  0.019000
  0.797000,  0.025300
  0.799000,  0.030900
  0.801000,  0.036100
  0.803000,  0.040700
  0.805000,  0.044800
  0.807000,  0.048300
  0.809000,  0.051200
  0.811000,  0.053700
  0.813000,  0.055600
  0.815000,  0.057000
  0.817000,  0.058100
  0.819000,  0.058500
  0.821000,  0.058600
  0.823000,  0.058200
  0.825000,  0.057400
  0.827000,  0.056200
  0.829000,  0.054500
  0.831000,  0.052500
  0.833000,  0.050200
  0.835000,  0.047600
  0.837000,  0.044600
  0.839000,  0.041500
  0.841000,  0.038200
  0.843000,  0.034400
  0.845000,  0.030400
  0.847000,  0.026300
  0.849000,  0.021900
  0.851000,  0.017400
  0.853000,  0.012800
  0.855000,  0.007900
  0.857000,  0.003000
  0.859000, -0.001800
  0.861000, -0.006700
  0.863000, -0.011800
  0.865000, -0.017000
  0.867000, -0.022100
  0.869000, -0.027300
  0.871000, -0.032500
  0.873000, -0.037600
  0.875000, -0.042600
  0.877000, -0.047500
  0.879000, -0.052500
  0.881000, -0.057400
  0.883000, -0.062300
  0.885000, -0.067300
  0.887000, -0.072100
  0.889000, -0.077000
  0.891000, -0.082000
  0.893000, -0.086800
  0.895000, -0.091600
  0.897000, -0.096400
  0.899000, -0.101100
  0.901000, -0.105700
  0.903000, -0.110100
  0.905000, -0.114500
  0.907000, -0.118800
  0.909000, -0.123100
  0.911000, -0.127500
  0.913000, -0.131700
  0.915000, -0.135800
  0.917000, -0.139800
  0.919000, -0.143900
  0.921000, -0.147900
  0.923000, -0.152000
  0.925000, -0.156000
  0.927000, -0.159800
  0.929000, -0.163600
  0.931000, -0.167400
  0.933000, -0.171100
  0.935000, -0.174800
  0.937000, -0.178400
  0.939000, -0.182000
  0.941000, -0.185400
  0.943000, -0.188800
  0.945000, -0.192200
  0.947000, -0.195500
  0.949000, -0.198500
  0.951000, -0.201600
  0.953000, -0.204700
  0.955000, -0.207700
  0.957000, -0.210400
  0.959000, -0.212900
  0.961000, -0.215500
  0.963000, -0.218000
  0.965000, -0.220400
  0.967000, -0.222600
  0.969000, -0.224700
  0.971000, -0.226700
  0.973000, -0.228600
  0.975000, -0.230300
  0.977000, -0.231800
  0.979000, -0.233100
  0.981000, -0.234400
  0.983000, -0.235400
  0.985000, -0.236200
  0.987000, -0.237000
  0.989000, -0.237500
  0.991000, -0.237800
  0.993000, -0.237800
  0.995000, -0.237600
  0.997000, -0.237300
  0.999000, -0.236900
  1.001000, -0.236300
  1.003000, -0.235500
  1.005000, -0.234500
  1.007000, -0.233500
  1.009000, -0.232200
  1.011000, -0.230800
  1.013000, -0.229400
  1.015000, -0.227800
  1.017000, -0.226000
  1.019000, -0.224000
  1.021000, -0.221900
  1.023000, -0.219800
  1.025000, -0.217700
  1.027000, -0.215500
  1.029000, -0.213200
  1.031000, -0.210700
  1.033000, -0.208200
  1.035000, -0.205800
  1.037000, -0.203400
  1.039000, -0.200900
  1.041000, -0.198300
  1.043000, -0.195700
  1.045000, -0.193400
  1.047000, -0.190900
  1.049000, -0.188300
  1.051000, -0.185700
  1.053000, -0.183300
  1.055000, -0.180900
  1.057000, -0.178700
  1.059000, -0.176400
  1.061000, -0.174200
  1.063000, -0.172000
  1.065000, -0.169800
  1.067000, -0.167600
  1.069000, -0.165400
  1.071000, -0.163200
  1.073000, -0.161100
  1.075000, -0.159300
  1.077000, -0.157400
  1.079000, -0.155500
  1.081000, -0.153500
  1.083000, -0.151500
  1.085000, -0.149500
  1.087000, -0.147500
  1.089000, -0.145700
  1.091000, -0.144000
  1.093000, -0.142200
  1.095000, -0.140500
  1.097000, -0.138600
  1.099000, -0.136800
  1.101000, -0.135000
  1.103000, -0.133000
  1.105000, -0.131000
  1.107000, -0.129100
  1.109000, -0.127300
  1.111000, -0.125300
  1.113000, -0.123400
  1.115000, -0.121400
  1.117000, -0.119400
  1.119000, -0.117400
  1.121000, -0.115400
  1.123000, -0.113300
  1.125000, -0.111300
  1.127000, -0.109300
  1.129000, -0.107200
  1.131000, -0.105000
  1.133000, -0.103000
  1.135000, -0.101000
  1.137000, -0.099000
  1.139000, -0.097000
  1.141000, -0.095000
  1.143000, -0.093000
  1.145000, -0.091100
  1.147000, -0.089300
  1.149000, -0.087400
  1.151000, -0.085600
  1.153000, -0.083800
  1.155000, -0.082100
  1.157000, -0.080400
  1.159000, -0.078600
  1.161000, -0.076900
  1.163000, -0.075400
  1.165000, -0.073700
  1.167000, -0.072000
  1.169000, -0.070600
  1.171000, -0.069300
  1.173000, -0.068000
  1.175000, -0.066700
  1.177000, -0.065400
  1.179000, -0.064300
  1.181000, -0.063200
  1.183000, -0.062200
  1.185000, -0.061300
  1.187000, -0.060300
  1.189000, -0.059500
  1.191000, -0.058700
  1.193000, -0.058000
  1.195000, -0.057500
  1.197000, -0.056800
  1.199000, -0.056200
  1.201000, -0.055700
  1.203000, -0.055400
  1.205000, -0.054900
  1.207000, -0.054400
  1.209000, -0.054100
  1.211000, -0.053800
  1.213000, -0.053500
  1.215000, -0.053200
  1.217000, -0.053000
  1.219000, -0.052600
  1.221000, -0.052300
  1.223000, -0.052000
  1.225000, -0.051800
  1.227000, -0.051500
  1.229000, -0.051300
  1.231000, -0.050900
  1.233000, -0.050500
  1.235000, -0.050000
  1.237000, -0.049500
  1.239000, -0.049200
  1.241000, -0.048800
  1.243000, -0.048200
  1.245000, -0.047700
  1.247000, -0.047200
  1.249000, -0.046500
  1.251000, -0.045700
  1.253000, -0.045000
  1.255000, -0.044200
  1.257000, -0.043500
  1.259000, -0.042800
  1.261000, -0.041900
  1.263000, -0.040900
  1.265000, -0.040100
  1.267000, -0.039100
  1.269000, -0.038200
  1.271000, -0.037100
  1.273000, -0.036100
  1.275000, -0.035000
  1.277000, -0.034000
  1.279000, -0.033000
  1.281000, -0.031900
  1.283000, -0.030700
  1.285000, -0.029400
  1.287000, -0.028100
  1.289000, -0.026800
  1.291000, -0.025600
  1.293000, -0.024200
  1.295000, -0.022700
  1.297000, -0.021200
  1.299000, -0.019600
  1.301000, -0.018100
  1.303000, -0.016400
  1.305000, -0.014700
  1.307000, -0.013000
  1.309000, -0.011200
  1.311000, -0.009400
  1.313000, -0.007400
  1.315000, -0.005300
  1.317000, -0.003000
  1.319000, -0.000700
  1.321000,  0.001700
  1.323000,  0.004100
  1.325000,  0.006600
  1.327000,  0.009400
  1.329000,  0.012100
  1.331000,  0.014800
  1.333000,  0.017700
  1.335000,  0.020700
  1.337000,  0.023800
  1.339000,  0.027100
  1.341000,  0.030300
  1.343000,  0.033700
  1.345000,  0.037000
  1.347000,  0.040400
  1.349000,  0.043800
  1.351000,  0.047300
  1.353000,  0.050800
  1.355000,  0.054200
  1.357000,  0.057600
  1.359000,  0.061100
  1.361000,  0.064500
  1.363000,  0.067800
  1.365000,  0.071000
  1.367000,  0.074100
  1.369000,  0.077100
  1.371000,  0.079800
  1.373000,  0.082600
  1.375000,  0.085200
  1.377000,  0.087800
  1.379000,  0.089900
  1.381000,  0.091600
  1.383000,  0.093200
  1.385000,  0.094400
  1.387000,  0.095300
  1.389000,  0.095900
  1.391000,  0.096100
  1.393000,  0.095700
  1.395000,  0.095000
  1.397000,  0.093800
  1.399000,  0.091800
