# z (nm)   (kJ/mol)
  0.119000,  5.625500
  0.123000,  4.870400
  0.127000,  4.483700
  0.129000,  4.036300
  0.131000,  3.564900
  0.133000,  3.106900
  0.135000,  2.644200
  0.137000,  2.174200
  0.139000,  1.701000
  0.141000,  1.218700
  0.143000,  0.737000
  0.145000,  0.257700
  0.147000, -0.221500
  0.149000, -0.699500
  0.151000, -1.170700
  0.153000, -1.636400
  0.155000, -2.096700
  0.157000, -2.550100
  0.159000, -2.996100
  0.161000, -3.437700
  0.163000, -3.871600
  0.165000, -4.296900
  0.167000, -4.712500
  0.169000, -5.113500
  0.171000, -5.504000
  0.173000, -5.883500
  0.175000, -6.250100
  0.177000, -6.604300
  0.179000, -6.944100
  0.181000, -7.268900
  0.183000, -7.580400
  0.185000, -7.878600
  0.187000, -8.162500
  0.189000, -8.431800
  0.191000, -8.684800
  0.193000, -8.922900
  0.195000, -9.147000
  0.197000, -9.355100
  0.199000, -9.546500
  0.201000, -9.723200
  0.203000, -9.884500
  0.205000,-10.030100
  0.207000,-10.159900
  0.209000,-10.274200
  0.211000,-10.373900
  0.213000,-10.458200
  0.215000,-10.527300
  0.217000,-10.581800
  0.219000,-10.622100
  0.221000,-10.648600
  0.223000,-10.661700
  0.225000,-10.661900
  0.227000,-10.649800
  0.229000,-10.625700
  0.231000,-10.589300
  0.233000,-10.541500
  0.235000,-10.483300
  0.237000,-10.414900
  0.239000,-10.336800
  0.241000,-10.250000
  0.243000,-10.155900
  0.245000,-10.054300
  0.247000, -9.946800
  0.249000, -9.834000
  0.251000, -9.714300
  0.253000, -9.589600
  0.255000, -9.461600
  0.257000, -9.330600
  0.259000, -9.196100
  0.261000, -9.058700
  0.263000, -8.919300
  0.265000, -8.778400
  0.267000, -8.637600
  0.269000, -8.496900
  0.271000, -8.356000
  0.273000, -8.215400
  0.275000, -8.075900
  0.277000, -7.937600
  0.279000, -7.801100
  0.281000, -7.666800
  0.283000, -7.534600
  0.285000, -7.404800
  0.287000, -7.277300
  0.289000, -7.152600
  0.291000, -7.030800
  0.293000, -6.912000
  0.295000, -6.796000
  0.297000, -6.682900
  0.299000, -6.573100
  0.301000, -6.466100
  0.303000, -6.362100
  0.305000, -6.261100
  0.307000, -6.162700
  0.309000, -6.066800
  0.311000, -5.973400
  0.313000, -5.882800
  0.315000, -5.794900
  0.317000, -5.708700
  0.319000, -5.624600
  0.321000, -5.542300
  0.323000, -5.461500
  0.325000, -5.382200
  0.327000, -5.304200
  0.329000, -5.227600
  0.331000, -5.152000
  0.333000, -5.077300
  0.335000, -5.003200
  0.337000, -4.929300
  0.339000, -4.855800
  0.341000, -4.782600
  0.343000, -4.709200
  0.345000, -4.635500
  0.347000, -4.561800
  0.349000, -4.487900
  0.351000, -4.413500
  0.353000, -4.338400
  0.355000, -4.262500
  0.357000, -4.185600
  0.359000, -4.107800
  0.361000, -4.029300
  0.363000, -3.949500
  0.365000, -3.868800
  0.367000, -3.787000
  0.369000, -3.704100
  0.371000, -3.619900
  0.373000, -3.534700
  0.375000, -3.448300
  0.377000, -3.361000
  0.379000, -3.272800
  0.381000, -3.183300
  0.383000, -3.092800
  0.385000, -3.001500
  0.387000, -2.909400
  0.389000, -2.816500
  0.391000, -2.723300
  0.393000, -2.629500
  0.395000, -2.534700
  0.397000, -2.439600
  0.399000, -2.345000
  0.401000, -2.250500
  0.403000, -2.155600
  0.405000, -2.060600
  0.407000, -1.965300
  0.409000, -1.870200
  0.411000, -1.776400
  0.413000, -1.683200
  0.415000, -1.590200
  0.417000, -1.498700
  0.419000, -1.408200
  0.421000, -1.318500
  0.423000, -1.230500
  0.425000, -1.145100
  0.427000, -1.061300
  0.429000, -0.978200
  0.431000, -0.896900
  0.433000, -0.818200
  0.435000, -0.741900
  0.437000, -0.667900
  0.439000, -0.596400
  0.441000, -0.527200
  0.443000, -0.460400
  0.445000, -0.396800
  0.447000, -0.336200
  0.449000, -0.278100
  0.451000, -0.222900
  0.453000, -0.170500
  0.455000, -0.120800
  0.457000, -0.074200
  0.459000, -0.030800
  0.461000,  0.009800
  0.463000,  0.047300
  0.465000,  0.082000
  0.467000,  0.113400
  0.469000,  0.141900
  0.471000,  0.167500
  0.473000,  0.190200
  0.475000,  0.209900
  0.477000,  0.226800
  0.479000,  0.241100
  0.481000,  0.252700
  0.483000,  0.261700
  0.485000,  0.268100
  0.487000,  0.271900
  0.489000,  0.273600
  0.491000,  0.273100
  0.493000,  0.270300
  0.495000,  0.265400
  0.497000,  0.258700
  0.499000,  0.250200
  0.501000,  0.239800
  0.503000,  0.227700
  0.505000,  0.214400
  0.507000,  0.199700
  0.509000,  0.183400
  0.511000,  0.166100
  0.513000,  0.148000
  0.515000,  0.128800
  0.517000,  0.108700
  0.519000,  0.088100
  0.521000,  0.066800
  0.523000,  0.045000
  0.525000,  0.022700
  0.527000,  0.000200
  0.529000, -0.022900
  0.531000, -0.046300
  0.533000, -0.069600
  0.535000, -0.092800
  0.537000, -0.115900
  0.539000, -0.138700
  0.541000, -0.161500
  0.543000, -0.184200
  0.545000, -0.206300
  0.547000, -0.227900
  0.549000, -0.249400
  0.551000, -0.270400
  0.553000, -0.290700
  0.555000, -0.310500
  0.557000, -0.329900
  0.559000, -0.348800
  0.561000, -0.366900
  0.563000, -0.384200
  0.565000, -0.400700
  0.567000, -0.416700
  0.569000, -0.432200
  0.571000, -0.446900
  0.573000, -0.460700
  0.575000, -0.473900
  0.577000, -0.486300
  0.579000, -0.498300
  0.581000, -0.509700
  0.583000, -0.520400
  0.585000, -0.530100
  0.587000, -0.539200
  0.589000, -0.547600
  0.591000, -0.555200
  0.593000, -0.562100
  0.595000, -0.568400
  0.597000, -0.574400
  0.599000, -0.579600
  0.601000, -0.584100
  0.603000, -0.588000
  0.605000, -0.591500
  0.607000, -0.594500
  0.609000, -0.596800
  0.611000, -0.598700
  0.613000, -0.600100
  0.615000, -0.600700
  0.617000, -0.600700
  0.619000, -0.600100
  0.621000, -0.599100
  0.623000, -0.597700
  0.625000, -0.596000
  0.627000, -0.593800
  0.629000, -0.591000
  0.631000, -0.587800
  0.633000, -0.584300
  0.635000, -0.580200
  0.637000, -0.575900
  0.639000, -0.571300
  0.641000, -0.566100
  0.643000, -0.560300
  0.645000, -0.554200
  0.647000, -0.547500
  0.649000, -0.540500
  0.651000, -0.533100
  0.653000, -0.525400
  0.655000, -0.517200
  0.657000, -0.508600
  0.659000, -0.499600
  0.661000, -0.490500
  0.663000, -0.481000
  0.665000, -0.471000
  0.667000, -0.460500
  0.669000, -0.449500
  0.671000, -0.438300
  0.673000, -0.426700
  0.675000, -0.414900
  0.677000, -0.402500
  0.679000, -0.390100
  0.681000, -0.377500
  0.683000, -0.364600
  0.685000, -0.351200
  0.687000, -0.337600
  0.689000, -0.324000
  0.691000, -0.310100
  0.693000, -0.295700
  0.695000, -0.281100
  0.697000, -0.266400
  0.699000, -0.251700
  0.701000, -0.236800
  0.703000, -0.221700
  0.705000, -0.206600
  0.707000, -0.191500
  0.709000, -0.176300
  0.711000, -0.161100
  0.713000, -0.145700
  0.715000, -0.130200
  0.717000, -0.114600
  0.719000, -0.098900
  0.721000, -0.083500
  0.723000, -0.068200
  0.725000, -0.053400
  0.727000, -0.038600
  0.729000, -0.024000
  0.731000, -0.009500
  0.733000,  0.004900
  0.735000,  0.019100
  0.737000,  0.032900
  0.739000,  0.046500
  0.741000,  0.059800
  0.743000,  0.072900
  0.745000,  0.085700
  0.747000,  0.098100
  0.749000,  0.110000
  0.751000,  0.121700
  0.753000,  0.133000
  0.755000,  0.143800
  0.757000,  0.154200
  0.759000,  0.164200
  0.761000,  0.173700
  0.763000,  0.182600
  0.765000,  0.191300
  0.767000,  0.199600
  0.769000,  0.207600
  0.771000,  0.215000
  0.773000,  0.221700
  0.775000,  0.228100
  0.777000,  0.234000
  0.779000,  0.239300
  0.781000,  0.244200
  0.783000,  0.248800
  0.785000,  0.253000
  0.787000,  0.256700
  0.789000,  0.259900
  0.791000,  0.262700
  0.793000,  0.265000
  0.795000,  0.266800
  0.797000,  0.268300
  0.799000,  0.269400
  0.801000,  0.270100
  0.803000,  0.270400
  0.805000,  0.270400
  0.807000,  0.269900
  0.809000,  0.269100
  0.811000,  0.268100
  0.813000,  0.266600
  0.815000,  0.264800
  0.817000,  0.262600
  0.819000,  0.260100
  0.821000,  0.257400
  0.823000,  0.254300
  0.825000,  0.250800
  0.827000,  0.247100
  0.829000,  0.243200
  0.831000,  0.239000
  0.833000,  0.234700
  0.835000,  0.230000
  0.837000,  0.225300
  0.839000,  0.220300
  0.841000,  0.215200
  0.843000,  0.210000
  0.845000,  0.204600
  0.847000,  0.199000
  0.849000,  0.193300
  0.851000,  0.187400
  0.853000,  0.181500
  0.855000,  0.175400
  0.857000,  0.169300
  0.859000,  0.163100
  0.861000,  0.156900
  0.863000,  0.150600
  0.865000,  0.144300
  0.867000,  0.137900
  0.869000,  0.131400
  0.871000,  0.125100
  0.873000,  0.118700
  0.875000,  0.112400
  0.877000,  0.106200
  0.879000,  0.100100
  0.881000,  0.094000
  0.883000,  0.087900
  0.885000,  0.082000
  0.887000,  0.076100
  0.889000,  0.070300
  0.891000,  0.064600
  0.893000,  0.059000
  0.895000,  0.053500
  0.897000,  0.048100
  0.899000,  0.042800
  0.901000,  0.037700
  0.903000,  0.032900
  0.905000,  0.028100
  0.907000,  0.023500
  0.909000,  0.019100
  0.911000,  0.014800
  0.913000,  0.010800
  0.915000,  0.006900
  0.917000,  0.003200
  0.919000, -0.000300
  0.921000, -0.003600
  0.923000, -0.006600
  0.925000, -0.009500
  0.927000, -0.012200
  0.929000, -0.014800
  0.931000, -0.017100
  0.933000, -0.019100
  0.935000, -0.021000
  0.937000, -0.022700
  0.939000, -0.024200
  0.941000, -0.025500
  0.943000, -0.026700
  0.945000, -0.027600
  0.947000, -0.028300
  0.949000, -0.028900
  0.951000, -0.029200
  0.953000, -0.029300
  0.955000, -0.029200
  0.957000, -0.029000
  0.959000, -0.028700
  0.961000, -0.028200
  0.963000, -0.027600
  0.965000, -0.026800
  0.967000, -0.025800
  0.969000, -0.024700
  0.971000, -0.023500
  0.973000, -0.022200
  0.975000, -0.020700
  0.977000, -0.019200
  0.979000, -0.017500
  0.981000, -0.015700
  0.983000, -0.013900
  0.985000, -0.011900
  0.987000, -0.009800
  0.989000, -0.007700
  0.991000, -0.005700
  0.993000, -0.003700
  0.995000, -0.001600
  0.997000,  0.000500
  0.999000,  0.002700
  1.001000,  0.004900
  1.003000,  0.007200
  1.005000,  0.009500
  1.007000,  0.011800
  1.009000,  0.014000
  1.011000,  0.016200
  1.013000,  0.018400
  1.015000,  0.020700
  1.017000,  0.022900
  1.019000,  0.025100
  1.021000,  0.027200
  1.023000,  0.029200
  1.025000,  0.031200
  1.027000,  0.033100
  1.029000,  0.035000
  1.031000,  0.037000
  1.033000,  0.038700
  1.035000,  0.040600
  1.037000,  0.042500
  1.039000,  0.044100
  1.041000,  0.045700
  1.043000,  0.047400
  1.045000,  0.049000
  1.047000,  0.050600
  1.049000,  0.052100
  1.051000,  0.053600
  1.053000,  0.055100
  1.055000,  0.056400
  1.057000,  0.057800
  1.059000,  0.059100
  1.061000,  0.060500
  1.063000,  0.061700
  1.065000,  0.063100
  1.067000,  0.064500
  1.069000,  0.065800
  1.071000,  0.067000
  1.073000,  0.068200
  1.075000,  0.069500
  1.077000,  0.070800
  1.079000,  0.072000
  1.081000,  0.073300
  1.083000,  0.074600
  1.085000,  0.075800
  1.087000,  0.076900
  1.089000,  0.078100
  1.091000,  0.079300
  1.093000,  0.080500
  1.095000,  0.081500
  1.097000,  0.082500
  1.099000,  0.083500
  1.101000,  0.084500
  1.103000,  0.085400
  1.105000,  0.086200
  1.107000,  0.087100
  1.109000,  0.087900
  1.111000,  0.088600
  1.113000,  0.089200
  1.115000,  0.089900
  1.117000,  0.090400
  1.119000,  0.090900
  1.121000,  0.091300
  1.123000,  0.091600
  1.125000,  0.091800
  1.127000,  0.092000
  1.129000,  0.092000
  1.131000,  0.092000
  1.133000,  0.091900
  1.135000,  0.091700
  1.137000,  0.091400
  1.139000,  0.091000
  1.141000,  0.090500
  1.143000,  0.089900
  1.145000,  0.089200
  1.147000,  0.088500
  1.149000,  0.087600
  1.151000,  0.086500
  1.153000,  0.085400
  1.155000,  0.084300
  1.157000,  0.082900
  1.159000,  0.081500
  1.161000,  0.079900
  1.163000,  0.078400
  1.165000,  0.076800
  1.167000,  0.075200
  1.169000,  0.073600
  1.171000,  0.071900
  1.173000,  0.070100
  1.175000,  0.068200
  1.177000,  0.066300
  1.179000,  0.064500
  1.181000,  0.062600
  1.183000,  0.060700
  1.185000,  0.058800
  1.187000,  0.056800
  1.189000,  0.054800
  1.191000,  0.052900
  1.193000,  0.051000
  1.195000,  0.049000
  1.197000,  0.047100
  1.199000,  0.045300
  1.201000,  0.043400
  1.203000,  0.041600
  1.205000,  0.039800
  1.207000,  0.038000
  1.209000,  0.036200
  1.211000,  0.034500
  1.213000,  0.032900
  1.215000,  0.031300
  1.217000,  0.029700
  1.219000,  0.028300
  1.221000,  0.026800
  1.223000,  0.025500
  1.225000,  0.024300
  1.227000,  0.023000
  1.229000,  0.021800
  1.231000,  0.020600
  1.233000,  0.019500
  1.235000,  0.018400
  1.237000,  0.017300
  1.239000,  0.016400
  1.241000,  0.015600
  1.243000,  0.014900
  1.245000,  0.014200
  1.247000,  0.013400
  1.249000,  0.012600
  1.251000,  0.012000
  1.253000,  0.011400
  1.255000,  0.010600
  1.257000,  0.009800
  1.259000,  0.009100
  1.261000,  0.008500
  1.263000,  0.007900
  1.265000,  0.007300
  1.267000,  0.006600
  1.269000,  0.006100
  1.271000,  0.005400
  1.273000,  0.004800
  1.275000,  0.004200
  1.277000,  0.003700
  1.279000,  0.003100
  1.281000,  0.002500
  1.283000,  0.001900
  1.285000,  0.001300
  1.287000,  0.000500
  1.289000, -0.000200
  1.291000, -0.000900
  1.293000, -0.001600
  1.295000, -0.002400
  1.297000, -0.003200
  1.299000, -0.004000
  1.301000, -0.004900
  1.303000, -0.005800
  1.305000, -0.006700
  1.307000, -0.007600
  1.309000, -0.008400
  1.311000, -0.009400
  1.313000, -0.010400
  1.315000, -0.011300
  1.317000, -0.012200
  1.319000, -0.013100
  1.321000, -0.014100
  1.323000, -0.014900
  1.325000, -0.015600
  1.327000, -0.016200
  1.329000, -0.017000
  1.331000, -0.017700
  1.333000, -0.018500
  1.335000, -0.019000
  1.337000, -0.019500
  1.339000, -0.020200
  1.341000, -0.020700
  1.343000, -0.020900
  1.345000, -0.021000
  1.347000, -0.021100
  1.349000, -0.021100
  1.351000, -0.021200
  1.353000, -0.021200
  1.355000, -0.020900
  1.357000, -0.020600
  1.359000, -0.020200
  1.361000, -0.020000
  1.363000, -0.019600
  1.365000, -0.019100
  1.367000, -0.018600
  1.369000, -0.017900
  1.371000, -0.017300
  1.373000, -0.016700
  1.375000, -0.016100
  1.377000, -0.015200
  1.379000, -0.014500
  1.381000, -0.013800
  1.383000, -0.013200
  1.385000, -0.012700
  1.387000, -0.012300
  1.389000, -0.012000
  1.391000, -0.011800
  1.393000, -0.012000
  1.395000, -0.012400
  1.397000, -0.013000
  1.399000, -0.013800
