# z (nm)   (kJ/mol)
  0.107000, 11.841600
  0.109000, 11.634000
  0.111000, 11.428500
  0.113000, 11.229100
  0.115000, 11.008700
  0.117000, 10.795200
  0.119000, 10.566800
  0.121000, 10.334700
  0.123000, 10.103000
  0.125000,  9.864100
  0.127000,  9.628500
  0.129000,  9.388100
  0.131000,  9.140300
  0.133000,  8.892400
  0.135000,  8.639200
  0.137000,  8.386900
  0.139000,  8.141300
  0.141000,  7.895000
  0.143000,  7.642800
  0.145000,  7.388000
  0.147000,  7.135800
  0.149000,  6.888900
  0.151000,  6.640800
  0.153000,  6.394500
  0.155000,  6.156200
  0.157000,  5.916200
  0.159000,  5.676000
  0.161000,  5.441300
  0.163000,  5.210200
  0.165000,  4.982100
  0.167000,  4.756700
  0.169000,  4.533800
  0.171000,  4.315400
  0.173000,  4.102600
  0.175000,  3.893300
  0.177000,  3.688100
  0.179000,  3.489300
  0.181000,  3.296400
  0.183000,  3.107500
  0.185000,  2.924300
  0.187000,  2.746700
  0.189000,  2.573800
  0.191000,  2.405300
  0.193000,  2.239900
  0.195000,  2.079600
  0.197000,  1.925900
  0.199000,  1.778900
  0.201000,  1.637100
  0.203000,  1.499800
  0.205000,  1.367500
  0.207000,  1.242100
  0.209000,  1.123400
  0.211000,  1.010700
  0.213000,  0.903800
  0.215000,  0.801500
  0.217000,  0.704900
  0.219000,  0.613800
  0.221000,  0.528500
  0.223000,  0.448600
  0.225000,  0.373600
  0.227000,  0.304300
  0.229000,  0.240300
  0.231000,  0.182000
  0.233000,  0.128900
  0.235000,  0.080700
  0.237000,  0.037700
  0.239000,  0.000000
  0.241000, -0.032700
  0.243000, -0.060500
  0.245000, -0.083700
  0.247000, -0.102400
  0.249000, -0.116000
  0.251000, -0.125400
  0.253000, -0.131300
  0.255000, -0.132600
  0.257000, -0.130000
  0.259000, -0.123700
  0.261000, -0.113300
  0.263000, -0.099300
  0.265000, -0.082500
  0.267000, -0.062800
  0.269000, -0.039900
  0.271000, -0.014500
  0.273000,  0.013600
  0.275000,  0.043900
  0.277000,  0.076900
  0.279000,  0.112400
  0.281000,  0.149800
  0.283000,  0.188800
  0.285000,  0.229200
  0.287000,  0.270700
  0.289000,  0.313600
  0.291000,  0.358100
  0.293000,  0.403200
  0.295000,  0.448900
  0.297000,  0.495500
  0.299000,  0.542700
  0.301000,  0.590300
  0.303000,  0.637800
  0.305000,  0.685500
  0.307000,  0.733300
  0.309000,  0.780500
  0.311000,  0.827200
  0.313000,  0.873400
  0.315000,  0.919300
  0.317000,  0.964700
  0.319000,  1.008700
  0.321000,  1.051900
  0.323000,  1.094100
  0.325000,  1.135300
  0.327000,  1.174900
  0.329000,  1.213300
  0.331000,  1.250700
  0.333000,  1.286700
  0.335000,  1.321300
  0.337000,  1.354300
  0.339000,  1.385300
  0.341000,  1.414700
  0.343000,  1.442100
  0.345000,  1.467800
  0.347000,  1.491800
  0.349000,  1.513800
  0.351000,  1.533800
  0.353000,  1.551700
  0.355000,  1.567600
  0.357000,  1.581400
  0.359000,  1.593200
  0.361000,  1.603100
  0.363000,  1.611000
  0.365000,  1.616700
  0.367000,  1.620400
  0.369000,  1.622000
  0.371000,  1.621700
  0.373000,  1.619300
  0.375000,  1.614800
  0.377000,  1.608200
  0.379000,  1.599500
  0.381000,  1.588900
  0.383000,  1.576200
  0.385000,  1.561400
  0.387000,  1.544700
  0.389000,  1.526300
  0.391000,  1.506000
  0.393000,  1.483800
  0.395000,  1.459700
  0.397000,  1.434000
  0.399000,  1.406800
  0.401000,  1.377900
  0.403000,  1.347200
  0.405000,  1.315000
  0.407000,  1.281500
  0.409000,  1.246900
  0.411000,  1.211000
  0.413000,  1.173500
  0.415000,  1.134900
  0.417000,  1.095600
  0.419000,  1.055300
  0.421000,  1.014200
  0.423000,  0.972400
  0.425000,  0.929800
  0.427000,  0.886300
  0.429000,  0.841800
  0.431000,  0.796600
  0.433000,  0.751300
  0.435000,  0.705700
  0.437000,  0.659600
  0.439000,  0.613600
  0.441000,  0.567300
  0.443000,  0.521300
  0.445000,  0.475800
  0.447000,  0.429900
  0.449000,  0.384400
  0.451000,  0.339600
  0.453000,  0.295500
  0.455000,  0.251900
  0.457000,  0.208300
  0.459000,  0.165600
  0.461000,  0.124000
  0.463000,  0.083200
  0.465000,  0.043000
  0.467000,  0.003800
  0.469000, -0.034200
  0.471000, -0.071200
  0.473000, -0.107200
  0.475000, -0.142100
  0.477000, -0.176000
  0.479000, -0.208500
  0.481000, -0.239800
  0.483000, -0.269600
  0.485000, -0.298100
  0.487000, -0.325400
  0.489000, -0.351100
  0.491000, -0.375200
  0.493000, -0.397800
  0.495000, -0.419000
  0.497000, -0.438800
  0.499000, -0.457100
  0.501000, -0.473900
  0.503000, -0.489100
  0.505000, -0.502900
  0.507000, -0.515400
  0.509000, -0.526400
  0.511000, -0.535900
  0.513000, -0.544000
  0.515000, -0.550700
  0.517000, -0.556000
  0.519000, -0.560000
  0.521000, -0.562700
  0.523000, -0.564100
  0.525000, -0.564200
  0.527000, -0.563000
  0.529000, -0.560700
  0.531000, -0.557300
  0.533000, -0.552800
  0.535000, -0.547200
  0.537000, -0.540500
  0.539000, -0.532800
  0.541000, -0.524300
  0.543000, -0.514700
  0.545000, -0.504200
  0.547000, -0.492900
  0.549000, -0.480900
  0.551000, -0.468300
  0.553000, -0.454900
  0.555000, -0.440800
  0.557000, -0.426200
  0.559000, -0.411000
  0.561000, -0.395300
  0.563000, -0.379000
  0.565000, -0.362500
  0.567000, -0.345700
  0.569000, -0.328600
  0.571000, -0.311100
  0.573000, -0.293400
  0.575000, -0.275400
  0.577000, -0.257200
  0.579000, -0.238800
  0.581000, -0.220400
  0.583000, -0.202100
  0.585000, -0.183700
  0.587000, -0.165300
  0.589000, -0.147100
  0.591000, -0.129000
  0.593000, -0.111100
  0.595000, -0.093400
  0.597000, -0.075900
  0.599000, -0.058700
  0.601000, -0.041800
  0.603000, -0.025200
  0.605000, -0.008800
  0.607000,  0.007200
  0.609000,  0.022800
  0.611000,  0.037900
  0.613000,  0.052600
  0.615000,  0.066900
  0.617000,  0.080700
  0.619000,  0.094100
  0.621000,  0.106900
  0.623000,  0.119100
  0.625000,  0.130700
  0.627000,  0.141700
  0.629000,  0.152200
  0.631000,  0.162200
  0.633000,  0.171600
  0.635000,  0.180200
  0.637000,  0.188400
  0.639000,  0.196000
  0.641000,  0.203000
  0.643000,  0.209400
  0.645000,  0.215100
  0.647000,  0.220300
  0.649000,  0.224900
  0.651000,  0.228900
  0.653000,  0.232400
  0.655000,  0.235200
  0.657000,  0.237500
  0.659000,  0.239200
  0.661000,  0.240300
  0.663000,  0.240800
  0.665000,  0.240900
  0.667000,  0.240600
  0.669000,  0.239600
  0.671000,  0.238300
  0.673000,  0.236400
  0.675000,  0.234100
  0.677000,  0.231400
  0.679000,  0.228300
  0.681000,  0.224800
  0.683000,  0.220900
  0.685000,  0.216700
  0.687000,  0.212300
  0.689000,  0.207600
  0.691000,  0.202700
  0.693000,  0.197500
  0.695000,  0.192200
  0.697000,  0.186800
  0.699000,  0.181200
  0.701000,  0.175400
  0.703000,  0.169600
  0.705000,  0.163600
  0.707000,  0.157600
  0.709000,  0.151700
  0.711000,  0.145900
  0.713000,  0.140000
  0.715000,  0.134100
  0.717000,  0.128400
  0.719000,  0.122600
  0.721000,  0.116900
  0.723000,  0.111500
  0.725000,  0.106100
  0.727000,  0.100900
  0.729000,  0.095900
  0.731000,  0.091000
  0.733000,  0.086200
  0.735000,  0.081700
  0.737000,  0.077400
  0.739000,  0.073200
  0.741000,  0.069200
  0.743000,  0.065400
  0.745000,  0.061700
  0.747000,  0.058200
  0.749000,  0.054900
  0.751000,  0.051900
  0.753000,  0.048900
  0.755000,  0.046200
  0.757000,  0.043600
  0.759000,  0.041200
  0.761000,  0.039000
  0.763000,  0.036900
  0.765000,  0.034900
  0.767000,  0.033200
  0.769000,  0.031500
  0.771000,  0.029900
  0.773000,  0.028400
  0.775000,  0.026900
  0.777000,  0.025700
  0.779000,  0.024500
  0.781000,  0.023400
  0.783000,  0.022300
  0.785000,  0.021100
  0.787000,  0.020000
  0.789000,  0.019100
  0.791000,  0.018200
  0.793000,  0.017400
  0.795000,  0.016500
  0.797000,  0.015700
  0.799000,  0.014800
  0.801000,  0.014100
  0.803000,  0.013500
  0.805000,  0.012800
  0.807000,  0.012100
  0.809000,  0.011500
  0.811000,  0.010800
  0.813000,  0.010300
  0.815000,  0.009700
  0.817000,  0.009100
  0.819000,  0.008600
  0.821000,  0.008200
  0.823000,  0.007900
  0.825000,  0.007700
  0.827000,  0.007400
  0.829000,  0.007100
  0.831000,  0.006900
  0.833000,  0.006700
  0.835000,  0.006700
  0.837000,  0.006800
  0.839000,  0.006900
  0.841000,  0.007200
  0.843000,  0.007600
  0.845000,  0.008000
  0.847000,  0.008500
  0.849000,  0.009100
  0.851000,  0.009700
  0.853000,  0.010600
  0.855000,  0.011500
  0.857000,  0.012600
  0.859000,  0.013700
  0.861000,  0.014900
  0.863000,  0.016200
  0.865000,  0.017500
  0.867000,  0.019000
  0.869000,  0.020600
  0.871000,  0.022300
  0.873000,  0.024000
  0.875000,  0.025700
  0.877000,  0.027500
  0.879000,  0.029300
  0.881000,  0.031200
  0.883000,  0.033200
  0.885000,  0.035100
  0.887000,  0.037100
  0.889000,  0.039000
  0.891000,  0.041000
  0.893000,  0.043000
  0.895000,  0.044800
  0.897000,  0.046800
  0.899000,  0.048800
  0.901000,  0.050600
  0.903000,  0.052500
  0.905000,  0.054400
  0.907000,  0.056200
  0.909000,  0.058000
  0.911000,  0.059800
  0.913000,  0.061400
  0.915000,  0.062800
  0.917000,  0.064200
  0.919000,  0.065600
  0.921000,  0.066900
  0.923000,  0.068100
  0.925000,  0.069400
  0.927000,  0.070500
  0.929000,  0.071500
  0.931000,  0.072400
  0.933000,  0.073300
  0.935000,  0.074100
  0.937000,  0.074900
  0.939000,  0.075600
  0.941000,  0.076200
  0.943000,  0.076800
  0.945000,  0.077400
  0.947000,  0.078000
  0.949000,  0.078500
  0.951000,  0.078900
  0.953000,  0.079300
  0.955000,  0.079700
  0.957000,  0.080200
  0.959000,  0.080500
  0.961000,  0.080900
  0.963000,  0.081300
  0.965000,  0.081800
  0.967000,  0.082300
  0.969000,  0.082800
  0.971000,  0.083200
  0.973000,  0.083700
  0.975000,  0.084200
  0.977000,  0.084700
  0.979000,  0.085100
  0.981000,  0.085600
  0.983000,  0.086200
  0.985000,  0.086800
  0.987000,  0.087400
  0.989000,  0.088000
  0.991000,  0.088500
  0.993000,  0.089100
  0.995000,  0.089800
  0.997000,  0.090400
  0.999000,  0.091000
  1.001000,  0.091600
  1.003000,  0.092100
  1.005000,  0.092600
  1.007000,  0.093200
  1.009000,  0.093600
  1.011000,  0.093900
  1.013000,  0.094200
  1.015000,  0.094600
  1.017000,  0.095000
  1.019000,  0.095300
  1.021000,  0.095600
  1.023000,  0.095900
  1.025000,  0.096100
  1.027000,  0.096200
  1.029000,  0.096300
  1.031000,  0.096400
  1.033000,  0.096500
  1.035000,  0.096500
  1.037000,  0.096500
  1.039000,  0.096300
  1.041000,  0.096000
  1.043000,  0.095700
  1.045000,  0.095300
  1.047000,  0.095000
  1.049000,  0.094700
  1.051000,  0.094200
  1.053000,  0.093700
  1.055000,  0.093200
  1.057000,  0.092700
  1.059000,  0.092100
  1.061000,  0.091500
  1.063000,  0.090800
  1.065000,  0.090200
  1.067000,  0.089500
  1.069000,  0.088600
  1.071000,  0.087800
  1.073000,  0.086900
  1.075000,  0.086300
  1.077000,  0.085600
  1.079000,  0.084700
  1.081000,  0.083900
  1.083000,  0.083000
  1.085000,  0.082100
  1.087000,  0.081300
  1.089000,  0.080300
  1.091000,  0.079400
  1.093000,  0.078500
  1.095000,  0.077600
  1.097000,  0.076700
  1.099000,  0.075700
  1.101000,  0.074800
  1.103000,  0.073900
  1.105000,  0.073000
  1.107000,  0.072100
  1.109000,  0.071100
  1.111000,  0.070200
  1.113000,  0.069400
  1.115000,  0.068400
  1.117000,  0.067400
  1.119000,  0.066600
  1.121000,  0.065700
  1.123000,  0.064800
  1.125000,  0.063900
  1.127000,  0.062900
  1.129000,  0.061900
  1.131000,  0.061000
  1.133000,  0.060100
  1.135000,  0.059200
  1.137000,  0.058300
  1.139000,  0.057300
  1.141000,  0.056300
  1.143000,  0.055300
  1.145000,  0.054300
  1.147000,  0.053500
  1.149000,  0.052700
  1.151000,  0.051800
  1.153000,  0.051000
  1.155000,  0.050200
  1.157000,  0.049400
  1.159000,  0.048600
  1.161000,  0.047700
  1.163000,  0.046900
  1.165000,  0.046200
  1.167000,  0.045500
  1.169000,  0.044800
  1.171000,  0.044100
  1.173000,  0.043400
  1.175000,  0.042600
  1.177000,  0.041900
  1.179000,  0.041200
  1.181000,  0.040500
  1.183000,  0.039800
  1.185000,  0.039200
  1.187000,  0.038500
  1.189000,  0.037700
  1.191000,  0.037000
  1.193000,  0.036300
  1.195000,  0.035600
  1.197000,  0.034900
  1.199000,  0.034200
  1.201000,  0.033500
  1.203000,  0.032700
  1.205000,  0.032000
  1.207000,  0.031200
  1.209000,  0.030300
  1.211000,  0.029500
  1.213000,  0.028700
  1.215000,  0.027900
  1.217000,  0.027000
  1.219000,  0.026100
  1.221000,  0.025200
  1.223000,  0.024200
  1.225000,  0.023300
  1.227000,  0.022400
  1.229000,  0.021400
  1.231000,  0.020400
  1.233000,  0.019300
  1.235000,  0.018300
  1.237000,  0.017200
  1.239000,  0.016100
  1.241000,  0.015000
  1.243000,  0.014000
  1.245000,  0.012900
  1.247000,  0.011800
  1.249000,  0.010700
  1.251000,  0.009600
  1.253000,  0.008600
  1.255000,  0.007600
  1.257000,  0.006600
  1.259000,  0.005500
  1.261000,  0.004600
  1.263000,  0.003700
  1.265000,  0.002800
  1.267000,  0.001900
  1.269000,  0.001100
  1.271000,  0.000200
  1.273000, -0.000500
  1.275000, -0.001200
  1.277000, -0.001800
  1.279000, -0.002500
  1.281000, -0.003100
  1.283000, -0.003600
  1.285000, -0.004100
  1.287000, -0.004600
  1.289000, -0.005000
  1.291000, -0.005300
  1.293000, -0.005600
  1.295000, -0.005800
  1.297000, -0.006000
  1.299000, -0.006200
  1.301000, -0.006400
  1.303000, -0.006500
  1.305000, -0.006700
  1.307000, -0.006800
  1.309000, -0.006800
  1.311000, -0.006900
  1.313000, -0.006900
  1.315000, -0.007000
  1.317000, -0.007000
  1.319000, -0.007000
  1.321000, -0.007000
  1.323000, -0.007000
  1.325000, -0.007000
  1.327000, -0.006900
  1.329000, -0.006900
  1.331000, -0.006800
  1.333000, -0.006900
  1.335000, -0.006900
  1.337000, -0.007000
  1.339000, -0.007000
  1.341000, -0.006900
  1.343000, -0.006800
  1.345000, -0.006900
  1.347000, -0.007000
  1.349000, -0.007200
  1.351000, -0.007400
  1.353000, -0.007600
  1.355000, -0.007900
  1.357000, -0.008200
  1.359000, -0.008600
  1.361000, -0.009100
  1.363000, -0.009600
  1.365000, -0.010300
  1.367000, -0.010900
  1.369000, -0.011600
  1.371000, -0.012300
  1.373000, -0.013100
  1.375000, -0.014000
  1.377000, -0.015100
  1.379000, -0.016300
  1.381000, -0.017600
  1.383000, -0.019100
  1.385000, -0.020900
  1.387000, -0.022800
  1.389000, -0.025000
  1.391000, -0.027400
  1.393000, -0.030000
  1.395000, -0.033000
  1.397000, -0.036300
  1.399000, -0.039900
