# z (nm)   (kJ/mol)
  0.129000,  6.532200
  0.131000,  6.150000
  0.133000,  5.746000
  0.135000,  5.354400
  0.137000,  4.965900
  0.139000,  4.570100
  0.141000,  4.175800
  0.143000,  3.778100
  0.145000,  3.382200
  0.147000,  2.975100
  0.149000,  2.563700
  0.151000,  2.147300
  0.153000,  1.729800
  0.155000,  1.315900
  0.157000,  0.909500
  0.159000,  0.506700
  0.161000,  0.101000
  0.163000, -0.298500
  0.165000, -0.690400
  0.167000, -1.077400
  0.169000, -1.458000
  0.171000, -1.831400
  0.173000, -2.198100
  0.175000, -2.557800
  0.177000, -2.911000
  0.179000, -3.254100
  0.181000, -3.586500
  0.183000, -3.906500
  0.185000, -4.217400
  0.187000, -4.521400
  0.189000, -4.815100
  0.191000, -5.099000
  0.193000, -5.372300
  0.195000, -5.633500
  0.197000, -5.882600
  0.199000, -6.119700
  0.201000, -6.344400
  0.203000, -6.556600
  0.205000, -6.756700
  0.207000, -6.945100
  0.209000, -7.120600
  0.211000, -7.283700
  0.213000, -7.435300
  0.215000, -7.575000
  0.217000, -7.702700
  0.219000, -7.818200
  0.221000, -7.922100
  0.223000, -8.014400
  0.225000, -8.095200
  0.227000, -8.165100
  0.229000, -8.224500
  0.231000, -8.273500
  0.233000, -8.312300
  0.235000, -8.341000
  0.237000, -8.359900
  0.239000, -8.370400
  0.241000, -8.372300
  0.243000, -8.366100
  0.245000, -8.351800
  0.247000, -8.330000
  0.249000, -8.301100
  0.251000, -8.265200
  0.253000, -8.223500
  0.255000, -8.176700
  0.257000, -8.124400
  0.259000, -8.066700
  0.261000, -8.005200
  0.263000, -7.939800
  0.265000, -7.871300
  0.267000, -7.800300
  0.269000, -7.727100
  0.271000, -7.651300
  0.273000, -7.573700
  0.275000, -7.494900
  0.277000, -7.415100
  0.279000, -7.334600
  0.281000, -7.252700
  0.283000, -7.170900
  0.285000, -7.089800
  0.287000, -7.009200
  0.289000, -6.929000
  0.291000, -6.848800
  0.293000, -6.769000
  0.295000, -6.689900
  0.297000, -6.611600
  0.299000, -6.534200
  0.301000, -6.457500
  0.303000, -6.381600
  0.305000, -6.306500
  0.307000, -6.232300
  0.309000, -6.158900
  0.311000, -6.086200
  0.313000, -6.014100
  0.315000, -5.942400
  0.317000, -5.871300
  0.319000, -5.800800
  0.321000, -5.730700
  0.323000, -5.660700
  0.325000, -5.590900
  0.327000, -5.521200
  0.329000, -5.451000
  0.331000, -5.380200
  0.333000, -5.309400
  0.335000, -5.238200
  0.337000, -5.166300
  0.339000, -5.093700
  0.341000, -5.020400
  0.343000, -4.946300
  0.345000, -4.871300
  0.347000, -4.795200
  0.349000, -4.717900
  0.351000, -4.639500
  0.353000, -4.560000
  0.355000, -4.479400
  0.357000, -4.397600
  0.359000, -4.314400
  0.361000, -4.229900
  0.363000, -4.144500
  0.365000, -4.057700
  0.367000, -3.969600
  0.369000, -3.880300
  0.371000, -3.789800
  0.373000, -3.698200
  0.375000, -3.605600
  0.377000, -3.512100
  0.379000, -3.417500
  0.381000, -3.321900
  0.383000, -3.225900
  0.385000, -3.129200
  0.387000, -3.032000
  0.389000, -2.934300
  0.391000, -2.835900
  0.393000, -2.737200
  0.395000, -2.638300
  0.397000, -2.539400
  0.399000, -2.440800
  0.401000, -2.343000
  0.403000, -2.245300
  0.405000, -2.147600
  0.407000, -2.050600
  0.409000, -1.954800
  0.411000, -1.859700
  0.413000, -1.765200
  0.415000, -1.672000
  0.417000, -1.580100
  0.419000, -1.489400
  0.421000, -1.400300
  0.423000, -1.312700
  0.425000, -1.227400
  0.427000, -1.143900
  0.429000, -1.062600
  0.431000, -0.983900
  0.433000, -0.907100
  0.435000, -0.832800
  0.437000, -0.761100
  0.439000, -0.691200
  0.441000, -0.624000
  0.443000, -0.559900
  0.445000, -0.498200
  0.447000, -0.439200
  0.449000, -0.383300
  0.451000, -0.330300
  0.453000, -0.280100
  0.455000, -0.232600
  0.457000, -0.188100
  0.459000, -0.146600
  0.461000, -0.108200
  0.463000, -0.072500
  0.465000, -0.039900
  0.467000, -0.010400
  0.469000,  0.016300
  0.471000,  0.040100
  0.473000,  0.061100
  0.475000,  0.079400
  0.477000,  0.094700
  0.479000,  0.107400
  0.481000,  0.117800
  0.483000,  0.125700
  0.485000,  0.130800
  0.487000,  0.133200
  0.489000,  0.133700
  0.491000,  0.132200
  0.493000,  0.128200
  0.495000,  0.121500
  0.497000,  0.113300
  0.499000,  0.103200
  0.501000,  0.091200
  0.503000,  0.077400
  0.505000,  0.062100
  0.507000,  0.045600
  0.509000,  0.027600
  0.511000,  0.008400
  0.513000, -0.012200
  0.515000, -0.033700
  0.517000, -0.056000
  0.519000, -0.079200
  0.521000, -0.102900
  0.523000, -0.127100
  0.525000, -0.151600
  0.527000, -0.176300
  0.529000, -0.201200
  0.531000, -0.226500
  0.533000, -0.252200
  0.535000, -0.278200
  0.537000, -0.303800
  0.539000, -0.328900
  0.541000, -0.353900
  0.543000, -0.379100
  0.545000, -0.403800
  0.547000, -0.427600
  0.549000, -0.451000
  0.551000, -0.473800
  0.553000, -0.495700
  0.555000, -0.517100
  0.557000, -0.537900
  0.559000, -0.557800
  0.561000, -0.576800
  0.563000, -0.594900
  0.565000, -0.611900
  0.567000, -0.627900
  0.569000, -0.642900
  0.571000, -0.656900
  0.573000, -0.669800
  0.575000, -0.681800
  0.577000, -0.692600
  0.579000, -0.702400
  0.581000, -0.711000
  0.583000, -0.718600
  0.585000, -0.725200
  0.587000, -0.730800
  0.589000, -0.735200
  0.591000, -0.738500
  0.593000, -0.740700
  0.595000, -0.742000
  0.597000, -0.742200
  0.599000, -0.741400
  0.601000, -0.739700
  0.603000, -0.737100
  0.605000, -0.733500
  0.607000, -0.729100
  0.609000, -0.723800
  0.611000, -0.717600
  0.613000, -0.710500
  0.615000, -0.702700
  0.617000, -0.694000
  0.619000, -0.684700
  0.621000, -0.674900
  0.623000, -0.664200
  0.625000, -0.652800
  0.627000, -0.640900
  0.629000, -0.628500
  0.631000, -0.615600
  0.633000, -0.602000
  0.635000, -0.588000
  0.637000, -0.573700
  0.639000, -0.558900
  0.641000, -0.543600
  0.643000, -0.528000
  0.645000, -0.512200
  0.647000, -0.495900
  0.649000, -0.479400
  0.651000, -0.462600
  0.653000, -0.445600
  0.655000, -0.428500
  0.657000, -0.411400
  0.659000, -0.394100
  0.661000, -0.376500
  0.663000, -0.358900
  0.665000, -0.341400
  0.667000, -0.323800
  0.669000, -0.305900
  0.671000, -0.288100
  0.673000, -0.270400
  0.675000, -0.252400
  0.677000, -0.234500
  0.679000, -0.216800
  0.681000, -0.199200
  0.683000, -0.181800
  0.685000, -0.164700
  0.687000, -0.147600
  0.689000, -0.130500
  0.691000, -0.113700
  0.693000, -0.097100
  0.695000, -0.080600
  0.697000, -0.064300
  0.699000, -0.048200
  0.701000, -0.032400
  0.703000, -0.016900
  0.705000, -0.001600
  0.707000,  0.013400
  0.709000,  0.028000
  0.711000,  0.042300
  0.713000,  0.056400
  0.715000,  0.070100
  0.717000,  0.083700
  0.719000,  0.096900
  0.721000,  0.109700
  0.723000,  0.122100
  0.725000,  0.134100
  0.727000,  0.145800
  0.729000,  0.157000
  0.731000,  0.167800
  0.733000,  0.178300
  0.735000,  0.188400
  0.737000,  0.198100
  0.739000,  0.207400
  0.741000,  0.216100
  0.743000,  0.224300
  0.745000,  0.232100
  0.747000,  0.239700
  0.749000,  0.246800
  0.751000,  0.253500
  0.753000,  0.259700
  0.755000,  0.265500
  0.757000,  0.270700
  0.759000,  0.275800
  0.761000,  0.280500
  0.763000,  0.284900
  0.765000,  0.288900
  0.767000,  0.292500
  0.769000,  0.295700
  0.771000,  0.298400
  0.773000,  0.300800
  0.775000,  0.302800
  0.777000,  0.304600
  0.779000,  0.306100
  0.781000,  0.307300
  0.783000,  0.308000
  0.785000,  0.308500
  0.787000,  0.308800
  0.789000,  0.308800
  0.791000,  0.308600
  0.793000,  0.308100
  0.795000,  0.307200
  0.797000,  0.306100
  0.799000,  0.304800
  0.801000,  0.303200
  0.803000,  0.301400
  0.805000,  0.299600
  0.807000,  0.297500
  0.809000,  0.295100
  0.811000,  0.292600
  0.813000,  0.290000
  0.815000,  0.287100
  0.817000,  0.284000
  0.819000,  0.280800
  0.821000,  0.277400
  0.823000,  0.273800
  0.825000,  0.270200
  0.827000,  0.266400
  0.829000,  0.262600
  0.831000,  0.258700
  0.833000,  0.254600
  0.835000,  0.250600
  0.837000,  0.246400
  0.839000,  0.242100
  0.841000,  0.237700
  0.843000,  0.233300
  0.845000,  0.228800
  0.847000,  0.224200
  0.849000,  0.219500
  0.851000,  0.214800
  0.853000,  0.210200
  0.855000,  0.205400
  0.857000,  0.200700
  0.859000,  0.195900
  0.861000,  0.191100
  0.863000,  0.186200
  0.865000,  0.181300
  0.867000,  0.176500
  0.869000,  0.171800
  0.871000,  0.167000
  0.873000,  0.162100
  0.875000,  0.157200
  0.877000,  0.152500
  0.879000,  0.147800
  0.881000,  0.143100
  0.883000,  0.138500
  0.885000,  0.134000
  0.887000,  0.129400
  0.889000,  0.124800
  0.891000,  0.120300
  0.893000,  0.115800
  0.895000,  0.111600
  0.897000,  0.107400
  0.899000,  0.103200
  0.901000,  0.099100
  0.903000,  0.095000
  0.905000,  0.091100
  0.907000,  0.087400
  0.909000,  0.083700
  0.911000,  0.080200
  0.913000,  0.077000
  0.915000,  0.073900
  0.917000,  0.070900
  0.919000,  0.067900
  0.921000,  0.065000
  0.923000,  0.062400
  0.925000,  0.059900
  0.927000,  0.057600
  0.929000,  0.055400
  0.931000,  0.053300
  0.933000,  0.051400
  0.935000,  0.049600
  0.937000,  0.047900
  0.939000,  0.046400
  0.941000,  0.045100
  0.943000,  0.044100
  0.945000,  0.043200
  0.947000,  0.042500
  0.949000,  0.041800
  0.951000,  0.041300
  0.953000,  0.041200
  0.955000,  0.041200
  0.957000,  0.041200
  0.959000,  0.041500
  0.961000,  0.041800
  0.963000,  0.042400
  0.965000,  0.043100
  0.967000,  0.044000
  0.969000,  0.044900
  0.971000,  0.046000
  0.973000,  0.047400
  0.975000,  0.048700
  0.977000,  0.050100
  0.979000,  0.051600
  0.981000,  0.053300
  0.983000,  0.055000
  0.985000,  0.056700
  0.987000,  0.058600
  0.989000,  0.060400
  0.991000,  0.062300
  0.993000,  0.064300
  0.995000,  0.066300
  0.997000,  0.068300
  0.999000,  0.070400
  1.001000,  0.072500
  1.003000,  0.074400
  1.005000,  0.076400
  1.007000,  0.078300
  1.009000,  0.080200
  1.011000,  0.082100
  1.013000,  0.083900
  1.015000,  0.085700
  1.017000,  0.087600
  1.019000,  0.089300
  1.021000,  0.091000
  1.023000,  0.092600
  1.025000,  0.094100
  1.027000,  0.095600
  1.029000,  0.096900
  1.031000,  0.098100
  1.033000,  0.099300
  1.035000,  0.100300
  1.037000,  0.101200
  1.039000,  0.102100
  1.041000,  0.102800
  1.043000,  0.103400
  1.045000,  0.103900
  1.047000,  0.104300
  1.049000,  0.104600
  1.051000,  0.104800
  1.053000,  0.105000
  1.055000,  0.105100
  1.057000,  0.105100
  1.059000,  0.104900
  1.061000,  0.104500
  1.063000,  0.104200
  1.065000,  0.103900
  1.067000,  0.103400
  1.069000,  0.102900
  1.071000,  0.102300
  1.073000,  0.101700
  1.075000,  0.100800
  1.077000,  0.099900
  1.079000,  0.099100
  1.081000,  0.098200
  1.083000,  0.097300
  1.085000,  0.096400
  1.087000,  0.095400
  1.089000,  0.094400
  1.091000,  0.093300
  1.093000,  0.092200
  1.095000,  0.091100
  1.097000,  0.090100
  1.099000,  0.089000
  1.101000,  0.087900
  1.103000,  0.086800
  1.105000,  0.085700
  1.107000,  0.084400
  1.109000,  0.083200
  1.111000,  0.082100
  1.113000,  0.080900
  1.115000,  0.079900
  1.117000,  0.078800
  1.119000,  0.077700
  1.121000,  0.076700
  1.123000,  0.075600
  1.125000,  0.074500
  1.127000,  0.073400
  1.129000,  0.072300
  1.131000,  0.071300
  1.133000,  0.070300
  1.135000,  0.069200
  1.137000,  0.068100
  1.139000,  0.066900
  1.141000,  0.065600
  1.143000,  0.064300
  1.145000,  0.063000
  1.147000,  0.061700
  1.149000,  0.060400
  1.151000,  0.059000
  1.153000,  0.057600
  1.155000,  0.056100
  1.157000,  0.054500
  1.159000,  0.052900
  1.161000,  0.051100
  1.163000,  0.049300
  1.165000,  0.047500
  1.167000,  0.045700
  1.169000,  0.043700
  1.171000,  0.041600
  1.173000,  0.039500
  1.175000,  0.037200
  1.177000,  0.034900
  1.179000,  0.032500
  1.181000,  0.030000
  1.183000,  0.027600
  1.185000,  0.025100
  1.187000,  0.022400
  1.189000,  0.019700
  1.191000,  0.017000
  1.193000,  0.014200
  1.195000,  0.011400
  1.197000,  0.008600
  1.199000,  0.005600
  1.201000,  0.002800
  1.203000, -0.000100
  1.205000, -0.003000
  1.207000, -0.005900
  1.209000, -0.008700
  1.211000, -0.011500
  1.213000, -0.014300
  1.215000, -0.017100
  1.217000, -0.019800
  1.219000, -0.022600
  1.221000, -0.025300
  1.223000, -0.027800
  1.225000, -0.030300
  1.227000, -0.032800
  1.229000, -0.035200
  1.231000, -0.037500
  1.233000, -0.039700
  1.235000, -0.041700
  1.237000, -0.043600
  1.239000, -0.045400
  1.241000, -0.046900
  1.243000, -0.048400
  1.245000, -0.049600
  1.247000, -0.050600
  1.249000, -0.051700
  1.251000, -0.052600
  1.253000, -0.053300
  1.255000, -0.053900
  1.257000, -0.054300
  1.259000, -0.054400
  1.261000, -0.054300
  1.263000, -0.054100
  1.265000, -0.053800
  1.267000, -0.053400
  1.269000, -0.052700
  1.271000, -0.052000
  1.273000, -0.051000
  1.275000, -0.050000
  1.277000, -0.048900
  1.279000, -0.047600
  1.281000, -0.046200
  1.283000, -0.044600
  1.285000, -0.042900
  1.287000, -0.041000
  1.289000, -0.039100
  1.291000, -0.037000
  1.293000, -0.035000
  1.295000, -0.032800
  1.297000, -0.030600
  1.299000, -0.028300
  1.301000, -0.025800
  1.303000, -0.023300
  1.305000, -0.020700
  1.307000, -0.018000
  1.309000, -0.015300
  1.311000, -0.012600
  1.313000, -0.010000
  1.315000, -0.007100
  1.317000, -0.004300
  1.319000, -0.001400
  1.321000,  0.001500
  1.323000,  0.004400
  1.325000,  0.007500
  1.327000,  0.010600
  1.329000,  0.013600
  1.331000,  0.016500
  1.333000,  0.019500
  1.335000,  0.022500
  1.337000,  0.025400
  1.339000,  0.028400
  1.341000,  0.031500
  1.343000,  0.034400
  1.345000,  0.037400
  1.347000,  0.040400
  1.349000,  0.043300
  1.351000,  0.046100
  1.353000,  0.048900
  1.355000,  0.051500
  1.357000,  0.054100
  1.359000,  0.056700
  1.361000,  0.059100
  1.363000,  0.061400
  1.365000,  0.063600
  1.367000,  0.065800
  1.369000,  0.067800
  1.371000,  0.069700
  1.373000,  0.071400
  1.375000,  0.073000
  1.377000,  0.074400
  1.379000,  0.075600
  1.381000,  0.076700
  1.383000,  0.077600
  1.385000,  0.078200
  1.387000,  0.078400
  1.389000,  0.078300
  1.391000,  0.077900
  1.393000,  0.077100
  1.395000,  0.075800
  1.397000,  0.074100
  1.399000,  0.072100
