# z (nm)   (kJ/mol)
  0.145000, 10.935400
  0.147000, 10.659100
  0.151000, 10.175400
  0.153000,  9.924700
  0.155000,  9.635900
  0.157000,  9.340500
  0.159000,  9.051400
  0.161000,  8.749100
  0.163000,  8.447100
  0.165000,  8.152900
  0.167000,  7.855400
  0.169000,  7.543800
  0.171000,  7.227500
  0.173000,  6.913200
  0.175000,  6.594500
  0.177000,  6.279200
  0.179000,  5.960800
  0.181000,  5.640400
  0.183000,  5.325100
  0.185000,  5.009900
  0.187000,  4.686200
  0.189000,  4.362900
  0.191000,  4.048100
  0.193000,  3.735300
  0.195000,  3.420900
  0.197000,  3.109000
  0.199000,  2.801000
  0.201000,  2.497400
  0.203000,  2.194200
  0.205000,  1.892800
  0.207000,  1.596900
  0.209000,  1.303800
  0.211000,  1.013300
  0.213000,  0.730700
  0.215000,  0.453500
  0.217000,  0.179300
  0.219000, -0.087400
  0.221000, -0.350900
  0.223000, -0.609900
  0.225000, -0.864000
  0.227000, -1.114200
  0.229000, -1.357400
  0.231000, -1.594800
  0.233000, -1.825700
  0.235000, -2.051600
  0.237000, -2.272800
  0.239000, -2.485900
  0.241000, -2.692500
  0.243000, -2.894600
  0.245000, -3.090500
  0.247000, -3.280200
  0.249000, -3.464500
  0.251000, -3.642900
  0.253000, -3.814500
  0.255000, -3.979700
  0.257000, -4.138900
  0.259000, -4.292000
  0.261000, -4.439200
  0.263000, -4.579700
  0.265000, -4.713900
  0.267000, -4.842000
  0.269000, -4.963600
  0.271000, -5.078900
  0.273000, -5.187600
  0.275000, -5.289600
  0.277000, -5.385300
  0.279000, -5.474900
  0.281000, -5.558200
  0.283000, -5.635500
  0.285000, -5.706800
  0.287000, -5.772000
  0.289000, -5.830800
  0.291000, -5.883000
  0.293000, -5.929200
  0.295000, -5.969700
  0.297000, -6.004400
  0.299000, -6.033000
  0.301000, -6.055500
  0.303000, -6.072900
  0.305000, -6.085200
  0.307000, -6.091500
  0.309000, -6.092300
  0.311000, -6.088200
  0.313000, -6.078800
  0.315000, -6.063800
  0.317000, -6.043500
  0.319000, -6.018700
  0.321000, -5.989300
  0.323000, -5.955300
  0.325000, -5.916600
  0.327000, -5.873200
  0.329000, -5.825500
  0.331000, -5.773700
  0.333000, -5.717900
  0.335000, -5.657900
  0.337000, -5.593600
  0.339000, -5.525300
  0.341000, -5.453800
  0.343000, -5.378800
  0.345000, -5.300700
  0.347000, -5.219300
  0.349000, -5.134500
  0.351000, -5.046900
  0.353000, -4.956600
  0.355000, -4.863900
  0.357000, -4.769200
  0.359000, -4.672300
  0.361000, -4.573000
  0.363000, -4.471800
  0.365000, -4.368800
  0.367000, -4.264000
  0.369000, -4.157500
  0.371000, -4.049200
  0.373000, -3.939900
  0.375000, -3.830400
  0.377000, -3.720600
  0.379000, -3.610200
  0.381000, -3.499000
  0.383000, -3.387300
  0.385000, -3.276000
  0.387000, -3.164600
  0.389000, -3.052800
  0.391000, -2.942200
  0.393000, -2.832400
  0.395000, -2.723000
  0.397000, -2.614300
  0.399000, -2.507200
  0.401000, -2.401100
  0.403000, -2.295900
  0.405000, -2.192600
  0.407000, -2.091300
  0.409000, -1.991700
  0.411000, -1.893500
  0.413000, -1.797700
  0.415000, -1.704100
  0.417000, -1.612600
  0.419000, -1.523700
  0.421000, -1.437300
  0.423000, -1.353600
  0.425000, -1.272600
  0.427000, -1.194100
  0.429000, -1.118100
  0.431000, -1.044800
  0.433000, -0.974500
  0.435000, -0.907100
  0.437000, -0.842900
  0.439000, -0.781700
  0.441000, -0.723200
  0.443000, -0.667700
  0.445000, -0.615300
  0.447000, -0.565800
  0.449000, -0.519400
  0.451000, -0.476000
  0.453000, -0.435200
  0.455000, -0.397100
  0.457000, -0.361700
  0.459000, -0.329300
  0.461000, -0.299700
  0.463000, -0.272600
  0.465000, -0.248000
  0.467000, -0.225800
  0.469000, -0.205700
  0.471000, -0.188000
  0.473000, -0.172400
  0.475000, -0.159200
  0.477000, -0.148100
  0.479000, -0.139000
  0.481000, -0.131800
  0.483000, -0.126100
  0.485000, -0.121800
  0.487000, -0.118800
  0.489000, -0.117300
  0.491000, -0.117100
  0.493000, -0.118000
  0.495000, -0.119600
  0.497000, -0.122300
  0.499000, -0.125900
  0.501000, -0.130400
  0.503000, -0.135700
  0.505000, -0.141700
  0.507000, -0.148200
  0.509000, -0.155200
  0.511000, -0.162400
  0.513000, -0.169900
  0.515000, -0.177700
  0.517000, -0.185700
  0.519000, -0.193500
  0.521000, -0.201500
  0.523000, -0.209300
  0.525000, -0.217200
  0.527000, -0.225000
  0.529000, -0.232600
  0.531000, -0.240100
  0.533000, -0.247200
  0.535000, -0.254100
  0.537000, -0.260700
  0.539000, -0.266800
  0.541000, -0.272600
  0.543000, -0.278200
  0.545000, -0.283400
  0.547000, -0.288200
  0.549000, -0.292500
  0.551000, -0.296500
  0.553000, -0.300000
  0.555000, -0.303200
  0.557000, -0.306000
  0.559000, -0.308300
  0.561000, -0.310100
  0.563000, -0.311600
  0.565000, -0.312700
  0.567000, -0.313500
  0.569000, -0.313800
  0.571000, -0.313700
  0.573000, -0.313300
  0.575000, -0.312500
  0.577000, -0.311400
  0.579000, -0.310100
  0.581000, -0.308300
  0.583000, -0.306200
  0.585000, -0.303900
  0.587000, -0.301300
  0.589000, -0.298400
  0.591000, -0.295200
  0.593000, -0.291900
  0.595000, -0.288300
  0.597000, -0.284500
  0.599000, -0.280400
  0.601000, -0.276100
  0.603000, -0.271600
  0.605000, -0.267000
  0.607000, -0.262300
  0.609000, -0.257300
  0.611000, -0.252200
  0.613000, -0.247100
  0.615000, -0.241700
  0.617000, -0.236000
  0.619000, -0.230400
  0.621000, -0.224600
  0.623000, -0.218600
  0.625000, -0.212500
  0.627000, -0.206300
  0.629000, -0.200000
  0.631000, -0.193600
  0.633000, -0.187000
  0.635000, -0.180400
  0.637000, -0.173700
  0.639000, -0.166900
  0.641000, -0.160200
  0.643000, -0.153400
  0.645000, -0.146300
  0.647000, -0.139100
  0.649000, -0.131800
  0.651000, -0.124600
  0.653000, -0.117400
  0.655000, -0.110100
  0.657000, -0.102800
  0.659000, -0.095500
  0.661000, -0.088200
  0.663000, -0.080900
  0.665000, -0.073700
  0.667000, -0.066300
  0.669000, -0.059000
  0.671000, -0.051800
  0.673000, -0.044500
  0.675000, -0.037100
  0.677000, -0.029800
  0.679000, -0.022500
  0.681000, -0.015200
  0.683000, -0.008000
  0.685000, -0.000900
  0.687000,  0.006100
  0.689000,  0.013000
  0.691000,  0.019900
  0.693000,  0.026600
  0.695000,  0.033200
  0.697000,  0.039600
  0.699000,  0.045900
  0.701000,  0.052200
  0.703000,  0.058400
  0.705000,  0.064500
  0.707000,  0.070300
  0.709000,  0.076100
  0.711000,  0.081800
  0.713000,  0.087200
  0.715000,  0.092500
  0.717000,  0.097600
  0.719000,  0.102600
  0.721000,  0.107400
  0.723000,  0.112200
  0.725000,  0.116800
  0.727000,  0.121100
  0.729000,  0.125300
  0.731000,  0.129300
  0.733000,  0.133200
  0.735000,  0.136900
  0.737000,  0.140400
  0.739000,  0.143900
  0.741000,  0.147300
  0.743000,  0.150500
  0.745000,  0.153500
  0.747000,  0.156400
  0.749000,  0.159100
  0.751000,  0.161700
  0.753000,  0.164200
  0.755000,  0.166600
  0.757000,  0.168900
  0.759000,  0.171100
  0.761000,  0.173200
  0.763000,  0.175300
  0.765000,  0.177400
  0.767000,  0.179400
  0.769000,  0.181300
  0.771000,  0.183000
  0.773000,  0.184700
  0.775000,  0.186200
  0.777000,  0.187800
  0.779000,  0.189400
  0.781000,  0.190700
  0.783000,  0.191900
  0.785000,  0.193200
  0.787000,  0.194700
  0.789000,  0.196200
  0.791000,  0.197800
  0.793000,  0.199100
  0.795000,  0.200300
  0.797000,  0.201700
  0.799000,  0.203000
  0.801000,  0.204300
  0.803000,  0.205600
  0.805000,  0.206800
  0.807000,  0.208000
  0.809000,  0.209300
  0.811000,  0.210500
  0.813000,  0.211700
  0.815000,  0.212900
  0.817000,  0.213900
  0.819000,  0.214900
  0.821000,  0.215900
  0.823000,  0.216900
  0.825000,  0.217900
  0.827000,  0.218700
  0.829000,  0.219400
  0.831000,  0.220100
  0.833000,  0.220800
  0.835000,  0.221400
  0.837000,  0.221900
  0.839000,  0.222300
  0.841000,  0.222600
  0.843000,  0.222700
  0.845000,  0.222600
  0.847000,  0.222500
  0.849000,  0.222100
  0.851000,  0.221600
  0.853000,  0.221000
  0.855000,  0.220400
  0.857000,  0.219800
  0.859000,  0.219000
  0.861000,  0.218200
  0.863000,  0.217300
  0.865000,  0.216100
  0.867000,  0.214800
  0.869000,  0.213400
  0.871000,  0.211900
  0.873000,  0.210200
  0.875000,  0.208400
  0.877000,  0.206400
  0.879000,  0.204200
  0.881000,  0.202100
  0.883000,  0.199800
  0.885000,  0.197400
  0.887000,  0.195000
  0.889000,  0.192700
  0.891000,  0.190200
  0.893000,  0.187500
  0.895000,  0.184900
  0.897000,  0.182100
  0.899000,  0.179300
  0.901000,  0.176600
  0.903000,  0.173900
  0.905000,  0.171100
  0.907000,  0.168300
  0.909000,  0.165700
  0.911000,  0.163100
  0.913000,  0.160700
  0.915000,  0.158200
  0.917000,  0.155700
  0.919000,  0.153300
  0.921000,  0.150800
  0.923000,  0.148400
  0.925000,  0.146300
  0.927000,  0.144300
  0.929000,  0.142300
  0.931000,  0.140600
  0.933000,  0.138900
  0.935000,  0.137400
  0.937000,  0.136000
  0.939000,  0.134800
  0.941000,  0.133700
  0.943000,  0.132800
  0.945000,  0.132000
  0.947000,  0.131200
  0.949000,  0.130600
  0.951000,  0.130100
  0.953000,  0.129900
  0.955000,  0.129800
  0.957000,  0.129800
  0.959000,  0.130000
  0.961000,  0.130200
  0.963000,  0.130600
  0.965000,  0.131100
  0.967000,  0.131600
  0.969000,  0.132200
  0.971000,  0.132900
  0.973000,  0.133800
  0.975000,  0.134800
  0.977000,  0.135900
  0.979000,  0.137000
  0.981000,  0.138200
  0.983000,  0.139400
  0.985000,  0.140600
  0.987000,  0.141900
  0.989000,  0.143300
  0.991000,  0.144600
  0.993000,  0.146000
  0.995000,  0.147400
  0.997000,  0.148800
  0.999000,  0.150300
  1.001000,  0.151700
  1.003000,  0.153100
  1.005000,  0.154300
  1.007000,  0.155600
  1.009000,  0.156800
  1.011000,  0.158000
  1.013000,  0.159100
  1.015000,  0.160100
  1.017000,  0.161100
  1.019000,  0.162200
  1.021000,  0.163100
  1.023000,  0.164000
  1.025000,  0.164800
  1.027000,  0.165400
  1.029000,  0.165900
  1.031000,  0.166500
  1.033000,  0.167000
  1.035000,  0.167500
  1.037000,  0.167900
  1.039000,  0.168200
  1.041000,  0.168400
  1.043000,  0.168500
  1.045000,  0.168600
  1.047000,  0.168500
  1.049000,  0.168200
  1.051000,  0.168000
  1.053000,  0.167700
  1.055000,  0.167300
  1.057000,  0.166800
  1.059000,  0.166200
  1.061000,  0.165700
  1.063000,  0.165000
  1.065000,  0.164100
  1.067000,  0.163300
  1.069000,  0.162400
  1.071000,  0.161300
  1.073000,  0.160300
  1.075000,  0.159200
  1.077000,  0.158000
  1.079000,  0.156700
  1.081000,  0.155400
  1.083000,  0.154000
  1.085000,  0.152500
  1.087000,  0.150900
  1.089000,  0.149300
  1.091000,  0.147800
  1.093000,  0.146100
  1.095000,  0.144400
  1.097000,  0.142600
  1.099000,  0.140800
  1.101000,  0.139000
  1.103000,  0.137300
  1.105000,  0.135500
  1.107000,  0.133700
  1.109000,  0.131800
  1.111000,  0.129800
  1.113000,  0.127800
  1.115000,  0.125700
  1.117000,  0.123600
  1.119000,  0.121500
  1.121000,  0.119400
  1.123000,  0.117200
  1.125000,  0.114900
  1.127000,  0.112600
  1.129000,  0.110300
  1.131000,  0.107900
  1.133000,  0.105500
  1.135000,  0.103000
  1.137000,  0.100500
  1.139000,  0.098000
  1.141000,  0.095500
  1.143000,  0.092800
  1.145000,  0.090200
  1.147000,  0.087700
  1.149000,  0.085100
  1.151000,  0.082400
  1.153000,  0.079700
  1.155000,  0.077000
  1.157000,  0.074300
  1.159000,  0.071500
  1.161000,  0.068900
  1.163000,  0.066200
  1.165000,  0.063600
  1.167000,  0.061000
  1.169000,  0.058500
  1.171000,  0.056000
  1.173000,  0.053600
  1.175000,  0.051100
  1.177000,  0.048700
  1.179000,  0.046400
  1.181000,  0.044100
  1.183000,  0.041900
  1.185000,  0.039800
  1.187000,  0.037700
  1.189000,  0.035800
  1.191000,  0.033900
  1.193000,  0.032200
  1.195000,  0.030400
  1.197000,  0.028700
  1.199000,  0.027100
  1.201000,  0.025600
  1.203000,  0.024200
  1.205000,  0.023000
  1.207000,  0.021800
  1.209000,  0.020600
  1.211000,  0.019600
  1.213000,  0.018700
  1.215000,  0.017700
  1.217000,  0.016800
  1.219000,  0.015900
  1.221000,  0.015000
  1.223000,  0.014300
  1.225000,  0.013700
  1.227000,  0.013200
  1.229000,  0.012500
  1.231000,  0.011900
  1.233000,  0.011200
  1.235000,  0.010700
  1.237000,  0.010100
  1.239000,  0.009600
  1.241000,  0.009100
  1.243000,  0.008600
  1.245000,  0.007900
  1.247000,  0.007300
  1.249000,  0.006600
  1.251000,  0.005800
  1.253000,  0.004900
  1.255000,  0.004000
  1.257000,  0.003000
  1.259000,  0.001900
  1.261000,  0.001000
  1.263000, -0.000000
  1.265000, -0.001200
  1.267000, -0.002400
  1.269000, -0.003600
  1.271000, -0.004900
  1.273000, -0.006200
  1.275000, -0.007600
  1.277000, -0.009000
  1.279000, -0.010400
  1.281000, -0.011800
  1.283000, -0.013300
  1.285000, -0.014900
  1.287000, -0.016400
  1.289000, -0.017800
  1.291000, -0.019300
  1.293000, -0.020700
  1.295000, -0.022100
  1.297000, -0.023400
  1.299000, -0.024700
  1.301000, -0.025800
  1.303000, -0.026900
  1.305000, -0.028000
  1.307000, -0.028900
  1.309000, -0.029700
  1.311000, -0.030500
  1.313000, -0.031000
  1.315000, -0.031500
  1.317000, -0.031800
  1.319000, -0.032000
  1.321000, -0.032100
  1.323000, -0.031900
  1.325000, -0.031600
  1.327000, -0.031100
  1.329000, -0.030500
  1.331000, -0.029700
  1.333000, -0.028800
  1.335000, -0.027800
  1.337000, -0.026600
  1.339000, -0.025100
  1.341000, -0.023300
  1.343000, -0.021500
  1.345000, -0.019400
  1.347000, -0.017200
  1.349000, -0.015000
  1.351000, -0.012500
  1.353000, -0.009900
  1.355000, -0.007100
  1.357000, -0.004300
  1.359000, -0.001400
  1.361000,  0.001500
  1.363000,  0.004400
  1.365000,  0.007500
  1.367000,  0.010800
  1.369000,  0.014100
  1.371000,  0.017300
  1.373000,  0.020400
  1.375000,  0.023400
  1.377000,  0.026300
  1.379000,  0.029200
  1.381000,  0.032000
  1.383000,  0.034800
  1.385000,  0.037500
  1.387000,  0.040000
  1.389000,  0.042500
  1.391000,  0.044600
  1.393000,  0.046300
  1.395000,  0.047600
  1.397000,  0.048500
  1.399000,  0.049200
