# z (nm)   (kJ/mol)
  0.133000,  3.866200
  0.135000,  3.393400
  0.137000,  2.940200
  0.139000,  2.449200
  0.141000,  1.946100
  0.143000,  1.458400
  0.145000,  0.991400
  0.147000,  0.533900
  0.149000,  0.071600
  0.151000, -0.398600
  0.153000, -0.872200
  0.155000, -1.334600
  0.157000, -1.786700
  0.159000, -2.238600
  0.161000, -2.685100
  0.163000, -3.123300
  0.165000, -3.554400
  0.167000, -3.977200
  0.169000, -4.388700
  0.171000, -4.788400
  0.173000, -5.176300
  0.175000, -5.555200
  0.177000, -5.921500
  0.179000, -6.272500
  0.181000, -6.609500
  0.183000, -6.932600
  0.185000, -7.241700
  0.187000, -7.536100
  0.189000, -7.815800
  0.191000, -8.080600
  0.193000, -8.330900
  0.195000, -8.565000
  0.197000, -8.783100
  0.199000, -8.985600
  0.201000, -9.170700
  0.203000, -9.340800
  0.205000, -9.495800
  0.207000, -9.634300
  0.209000, -9.757600
  0.211000, -9.865900
  0.213000, -9.959000
  0.215000,-10.037600
  0.217000,-10.101800
  0.219000,-10.151800
  0.221000,-10.188300
  0.223000,-10.211700
  0.225000,-10.222000
  0.227000,-10.219800
  0.229000,-10.206800
  0.231000,-10.182800
  0.233000,-10.147400
  0.235000,-10.101900
  0.237000,-10.047600
  0.239000, -9.985000
  0.241000, -9.913700
  0.243000, -9.835200
  0.245000, -9.750200
  0.247000, -9.658800
  0.249000, -9.562200
  0.251000, -9.461200
  0.253000, -9.356100
  0.255000, -9.247300
  0.257000, -9.135700
  0.259000, -9.021000
  0.261000, -8.903700
  0.263000, -8.785300
  0.265000, -8.665500
  0.267000, -8.545500
  0.269000, -8.426400
  0.271000, -8.307900
  0.273000, -8.189500
  0.275000, -8.071600
  0.277000, -7.954700
  0.279000, -7.839400
  0.281000, -7.726100
  0.283000, -7.614700
  0.285000, -7.505600
  0.287000, -7.398800
  0.289000, -7.294200
  0.291000, -7.191700
  0.293000, -7.091500
  0.295000, -6.993800
  0.297000, -6.898300
  0.299000, -6.805300
  0.301000, -6.714500
  0.303000, -6.625800
  0.305000, -6.539200
  0.307000, -6.454600
  0.309000, -6.371900
  0.311000, -6.291100
  0.313000, -6.211800
  0.315000, -6.133900
  0.317000, -6.057600
  0.319000, -5.982600
  0.321000, -5.908900
  0.323000, -5.836100
  0.325000, -5.764200
  0.327000, -5.693100
  0.329000, -5.622500
  0.331000, -5.552500
  0.333000, -5.483000
  0.335000, -5.413900
  0.337000, -5.345000
  0.339000, -5.276400
  0.341000, -5.207900
  0.343000, -5.139100
  0.345000, -5.070200
  0.347000, -5.001000
  0.349000, -4.931600
  0.351000, -4.861800
  0.353000, -4.791600
  0.355000, -4.721000
  0.357000, -4.649700
  0.359000, -4.578000
  0.361000, -4.505900
  0.363000, -4.433300
  0.365000, -4.360200
  0.367000, -4.286500
  0.369000, -4.212100
  0.371000, -4.137100
  0.373000, -4.061500
  0.375000, -3.985400
  0.377000, -3.908800
  0.379000, -3.831700
  0.381000, -3.754200
  0.383000, -3.676400
  0.385000, -3.598300
  0.387000, -3.519600
  0.389000, -3.440200
  0.391000, -3.360200
  0.393000, -3.279900
  0.395000, -3.199300
  0.397000, -3.118500
  0.399000, -3.037600
  0.401000, -2.956400
  0.403000, -2.875100
  0.405000, -2.793600
  0.407000, -2.711900
  0.409000, -2.630500
  0.411000, -2.549300
  0.413000, -2.468300
  0.415000, -2.387700
  0.417000, -2.307700
  0.419000, -2.227800
  0.421000, -2.148500
  0.423000, -2.070200
  0.425000, -1.992400
  0.427000, -1.915200
  0.429000, -1.839200
  0.431000, -1.764300
  0.433000, -1.690200
  0.435000, -1.617300
  0.437000, -1.545900
  0.439000, -1.476300
  0.441000, -1.408500
  0.443000, -1.342200
  0.445000, -1.277700
  0.447000, -1.214700
  0.449000, -1.153800
  0.451000, -1.095100
  0.453000, -1.038200
  0.455000, -0.983400
  0.457000, -0.930800
  0.459000, -0.880800
  0.461000, -0.833400
  0.463000, -0.788300
  0.465000, -0.745700
  0.467000, -0.705600
  0.469000, -0.667800
  0.471000, -0.632700
  0.473000, -0.600200
  0.475000, -0.570400
  0.477000, -0.542900
  0.479000, -0.517800
  0.481000, -0.495500
  0.483000, -0.475800
  0.485000, -0.458800
  0.487000, -0.444300
  0.489000, -0.432100
  0.491000, -0.422300
  0.493000, -0.414700
  0.495000, -0.409500
  0.497000, -0.406400
  0.499000, -0.405500
  0.501000, -0.406700
  0.503000, -0.409800
  0.505000, -0.414500
  0.507000, -0.421100
  0.509000, -0.429400
  0.511000, -0.439100
  0.513000, -0.450500
  0.515000, -0.463400
  0.517000, -0.477400
  0.519000, -0.492800
  0.521000, -0.509300
  0.523000, -0.526800
  0.525000, -0.545100
  0.527000, -0.564000
  0.529000, -0.583300
  0.531000, -0.603000
  0.533000, -0.623500
  0.535000, -0.644500
  0.537000, -0.665500
  0.539000, -0.686400
  0.541000, -0.707700
  0.543000, -0.728900
  0.545000, -0.750000
  0.547000, -0.770900
  0.549000, -0.791300
  0.551000, -0.811400
  0.553000, -0.831100
  0.555000, -0.850400
  0.557000, -0.869200
  0.559000, -0.887500
  0.561000, -0.905200
  0.563000, -0.922200
  0.565000, -0.938600
  0.567000, -0.954100
  0.569000, -0.969000
  0.571000, -0.983100
  0.573000, -0.996500
  0.575000, -1.009200
  0.577000, -1.021100
  0.579000, -1.032200
  0.581000, -1.042500
  0.583000, -1.051800
  0.585000, -1.060300
  0.587000, -1.067900
  0.589000, -1.074900
  0.591000, -1.081100
  0.593000, -1.086300
  0.595000, -1.090600
  0.597000, -1.094200
  0.599000, -1.097200
  0.601000, -1.099300
  0.603000, -1.100700
  0.605000, -1.101400
  0.607000, -1.101300
  0.609000, -1.100500
  0.611000, -1.099100
  0.613000, -1.097000
  0.615000, -1.094300
  0.617000, -1.090800
  0.619000, -1.086800
  0.621000, -1.082200
  0.623000, -1.077200
  0.625000, -1.071400
  0.627000, -1.065000
  0.629000, -1.058100
  0.631000, -1.050600
  0.633000, -1.042600
  0.635000, -1.034100
  0.637000, -1.025000
  0.639000, -1.015700
  0.641000, -1.006000
  0.643000, -0.995900
  0.645000, -0.985400
  0.647000, -0.974300
  0.649000, -0.962700
  0.651000, -0.950700
  0.653000, -0.938400
  0.655000, -0.926000
  0.657000, -0.913200
  0.659000, -0.900000
  0.661000, -0.886500
  0.663000, -0.872600
  0.665000, -0.858400
  0.667000, -0.844000
  0.669000, -0.829200
  0.671000, -0.814100
  0.673000, -0.798900
  0.675000, -0.783400
  0.677000, -0.767700
  0.679000, -0.751900
  0.681000, -0.735700
  0.683000, -0.719400
  0.685000, -0.703000
  0.687000, -0.686400
  0.689000, -0.669700
  0.691000, -0.652900
  0.693000, -0.636000
  0.695000, -0.619200
  0.697000, -0.602300
  0.699000, -0.585300
  0.701000, -0.568200
  0.703000, -0.551200
  0.705000, -0.534300
  0.707000, -0.517400
  0.709000, -0.500500
  0.711000, -0.483700
  0.713000, -0.467000
  0.715000, -0.450400
  0.717000, -0.434000
  0.719000, -0.417800
  0.721000, -0.401700
  0.723000, -0.385900
  0.725000, -0.370300
  0.727000, -0.354900
  0.729000, -0.339800
  0.731000, -0.325100
  0.733000, -0.310700
  0.735000, -0.296500
  0.737000, -0.282500
  0.739000, -0.268900
  0.741000, -0.255900
  0.743000, -0.243200
  0.745000, -0.230800
  0.747000, -0.218800
  0.749000, -0.207300
  0.751000, -0.196300
  0.753000, -0.185700
  0.755000, -0.175500
  0.757000, -0.165700
  0.759000, -0.156300
  0.761000, -0.147400
  0.763000, -0.139000
  0.765000, -0.130900
  0.767000, -0.123200
  0.769000, -0.116000
  0.771000, -0.109300
  0.773000, -0.103000
  0.775000, -0.097100
  0.777000, -0.091600
  0.779000, -0.086600
  0.781000, -0.082000
  0.783000, -0.077900
  0.785000, -0.074200
  0.787000, -0.070800
  0.789000, -0.067800
  0.791000, -0.065200
  0.793000, -0.063000
  0.795000, -0.061100
  0.797000, -0.059500
  0.799000, -0.058300
  0.801000, -0.057500
  0.803000, -0.057200
  0.805000, -0.057100
  0.807000, -0.057400
  0.809000, -0.058000
  0.811000, -0.058900
  0.813000, -0.060200
  0.815000, -0.061700
  0.817000, -0.063500
  0.819000, -0.065600
  0.821000, -0.067900
  0.823000, -0.070600
  0.825000, -0.073500
  0.827000, -0.076700
  0.829000, -0.080200
  0.831000, -0.083700
  0.833000, -0.087500
  0.835000, -0.091700
  0.837000, -0.096000
  0.839000, -0.100200
  0.841000, -0.104700
  0.843000, -0.109400
  0.845000, -0.114400
  0.847000, -0.119500
  0.849000, -0.124900
  0.851000, -0.130300
  0.853000, -0.135800
  0.855000, -0.141300
  0.857000, -0.146800
  0.859000, -0.152500
  0.861000, -0.158200
  0.863000, -0.163900
  0.865000, -0.169700
  0.867000, -0.175400
  0.869000, -0.181200
  0.871000, -0.186900
  0.873000, -0.192600
  0.875000, -0.198200
  0.877000, -0.203700
  0.879000, -0.209000
  0.881000, -0.214200
  0.883000, -0.219300
  0.885000, -0.224300
  0.887000, -0.229100
  0.889000, -0.233800
  0.891000, -0.238300
  0.893000, -0.242600
  0.895000, -0.246600
  0.897000, -0.250400
  0.899000, -0.254000
  0.901000, -0.257400
  0.903000, -0.260500
  0.905000, -0.263400
  0.907000, -0.266100
  0.909000, -0.268500
  0.911000, -0.270600
  0.913000, -0.272400
  0.915000, -0.274000
  0.917000, -0.275400
  0.919000, -0.276600
  0.921000, -0.277400
  0.923000, -0.278100
  0.925000, -0.278500
  0.927000, -0.278800
  0.929000, -0.278800
  0.931000, -0.278700
  0.933000, -0.278300
  0.935000, -0.277700
  0.937000, -0.277000
  0.939000, -0.276200
  0.941000, -0.275200
  0.943000, -0.274100
  0.945000, -0.272800
  0.947000, -0.271300
  0.949000, -0.269700
  0.951000, -0.268100
  0.953000, -0.266400
  0.955000, -0.264500
  0.957000, -0.262700
  0.959000, -0.260700
  0.961000, -0.258700
  0.963000, -0.256500
  0.965000, -0.254400
  0.967000, -0.252200
  0.969000, -0.249900
  0.971000, -0.247700
  0.973000, -0.245400
  0.975000, -0.243100
  0.977000, -0.240800
  0.979000, -0.238500
  0.981000, -0.236200
  0.983000, -0.233800
  0.985000, -0.231500
  0.987000, -0.229200
  0.989000, -0.226900
  0.991000, -0.224500
  0.993000, -0.222200
  0.995000, -0.219900
  0.997000, -0.217500
  0.999000, -0.215200
  1.001000, -0.212800
  1.003000, -0.210500
  1.005000, -0.208000
  1.007000, -0.205600
  1.009000, -0.203200
  1.011000, -0.200800
  1.013000, -0.198500
  1.015000, -0.196100
  1.017000, -0.193800
  1.019000, -0.191400
  1.021000, -0.188900
  1.023000, -0.186500
  1.025000, -0.184100
  1.027000, -0.181700
  1.029000, -0.179400
  1.031000, -0.177000
  1.033000, -0.174700
  1.035000, -0.172300
  1.037000, -0.170000
  1.039000, -0.167700
  1.041000, -0.165300
  1.043000, -0.163000
  1.045000, -0.160600
  1.047000, -0.158200
  1.049000, -0.155900
  1.051000, -0.153600
  1.053000, -0.151300
  1.055000, -0.149000
  1.057000, -0.146700
  1.059000, -0.144400
  1.061000, -0.142200
  1.063000, -0.139900
  1.065000, -0.137600
  1.067000, -0.135400
  1.069000, -0.133200
  1.071000, -0.131000
  1.073000, -0.128800
  1.075000, -0.126600
  1.077000, -0.124500
  1.079000, -0.122300
  1.081000, -0.120200
  1.083000, -0.118300
  1.085000, -0.116300
  1.087000, -0.114300
  1.089000, -0.112400
  1.091000, -0.110400
  1.093000, -0.108400
  1.095000, -0.106500
  1.097000, -0.104600
  1.099000, -0.102700
  1.101000, -0.100900
  1.103000, -0.099200
  1.105000, -0.097500
  1.107000, -0.095700
  1.109000, -0.094100
  1.111000, -0.092400
  1.113000, -0.090800
  1.115000, -0.089400
  1.117000, -0.088000
  1.119000, -0.086500
  1.121000, -0.085100
  1.123000, -0.083700
  1.125000, -0.082300
  1.127000, -0.080900
  1.129000, -0.079600
  1.131000, -0.078400
  1.133000, -0.077200
  1.135000, -0.076200
  1.137000, -0.075000
  1.139000, -0.073900
  1.141000, -0.073000
  1.143000, -0.072100
  1.145000, -0.071000
  1.147000, -0.070100
  1.149000, -0.069200
  1.151000, -0.068400
  1.153000, -0.067700
  1.155000, -0.066900
  1.157000, -0.066200
  1.159000, -0.065500
  1.161000, -0.064800
  1.163000, -0.064100
  1.165000, -0.063500
  1.167000, -0.062900
  1.169000, -0.062300
  1.171000, -0.061700
  1.173000, -0.061100
  1.175000, -0.060500
  1.177000, -0.059900
  1.179000, -0.059300
  1.181000, -0.058800
  1.183000, -0.058200
  1.185000, -0.057600
  1.187000, -0.056900
  1.189000, -0.056200
  1.191000, -0.055600
  1.193000, -0.055100
  1.195000, -0.054500
  1.197000, -0.053800
  1.199000, -0.053100
  1.201000, -0.052300
  1.203000, -0.051700
  1.205000, -0.050900
  1.207000, -0.050000
  1.209000, -0.049100
  1.211000, -0.048200
  1.213000, -0.047300
  1.215000, -0.046300
  1.217000, -0.045500
  1.219000, -0.044600
  1.221000, -0.043500
  1.223000, -0.042300
  1.225000, -0.041200
  1.227000, -0.040000
  1.229000, -0.038700
  1.231000, -0.037400
  1.233000, -0.036200
  1.235000, -0.034900
  1.237000, -0.033600
  1.239000, -0.032400
  1.241000, -0.031100
  1.243000, -0.029900
  1.245000, -0.028600
  1.247000, -0.027300
  1.249000, -0.025900
  1.251000, -0.024600
  1.253000, -0.023200
  1.255000, -0.022000
  1.257000, -0.020700
  1.259000, -0.019400
  1.261000, -0.018200
  1.263000, -0.016900
  1.265000, -0.015700
  1.267000, -0.014500
  1.269000, -0.013300
  1.271000, -0.012300
  1.273000, -0.011300
  1.275000, -0.010300
  1.277000, -0.009200
  1.279000, -0.008200
  1.281000, -0.007300
  1.283000, -0.006400
  1.285000, -0.005500
  1.287000, -0.004600
  1.289000, -0.003800
  1.291000, -0.003100
  1.293000, -0.002300
  1.295000, -0.001600
  1.297000, -0.000900
  1.299000, -0.000200
  1.301000,  0.000400
  1.303000,  0.001000
  1.305000,  0.001500
  1.307000,  0.002100
  1.309000,  0.002700
  1.311000,  0.003300
  1.313000,  0.004100
  1.315000,  0.004800
  1.317000,  0.005400
  1.319000,  0.006200
  1.321000,  0.006900
  1.323000,  0.007700
  1.325000,  0.008500
  1.327000,  0.009400
  1.329000,  0.010400
  1.331000,  0.011400
  1.333000,  0.012500
  1.335000,  0.013700
  1.337000,  0.014900
  1.339000,  0.016200
  1.341000,  0.017600
  1.343000,  0.019000
  1.345000,  0.020500
  1.347000,  0.022000
  1.349000,  0.023700
  1.351000,  0.025400
  1.353000,  0.027100
  1.355000,  0.028900
  1.357000,  0.030700
  1.359000,  0.032500
  1.361000,  0.034300
  1.363000,  0.036100
  1.365000,  0.037900
  1.367000,  0.039700
  1.369000,  0.041500
  1.371000,  0.043300
  1.373000,  0.044800
  1.375000,  0.046400
  1.377000,  0.047900
  1.379000,  0.049300
  1.381000,  0.050600
  1.383000,  0.051700
  1.385000,  0.052500
  1.387000,  0.053200
  1.389000,  0.053600
  1.391000,  0.053600
  1.393000,  0.053400
  1.395000,  0.052800
  1.397000,  0.051700
  1.399000,  0.050300
