# z (nm)   (kJ/mol)
  0.137000,  3.664300
  0.139000,  3.184300
  0.141000,  2.670700
  0.143000,  2.171300
  0.145000,  1.684100
  0.147000,  1.175600
  0.149000,  0.683200
  0.151000,  0.189000
  0.153000, -0.298200
  0.155000, -0.781500
  0.157000, -1.257900
  0.159000, -1.731300
  0.161000, -2.197100
  0.163000, -2.648800
  0.165000, -3.101200
  0.167000, -3.544100
  0.169000, -3.974300
  0.171000, -4.395700
  0.173000, -4.803800
  0.175000, -5.197000
  0.177000, -5.577300
  0.179000, -5.947800
  0.181000, -6.306000
  0.183000, -6.650400
  0.185000, -6.980200
  0.187000, -7.294000
  0.189000, -7.593000
  0.191000, -7.874500
  0.193000, -8.139900
  0.195000, -8.391200
  0.197000, -8.626400
  0.199000, -8.844600
  0.201000, -9.045600
  0.203000, -9.230600
  0.205000, -9.400200
  0.207000, -9.554000
  0.209000, -9.691100
  0.211000, -9.812500
  0.213000, -9.918100
  0.215000,-10.007700
  0.217000,-10.082300
  0.219000,-10.142100
  0.221000,-10.187300
  0.223000,-10.218100
  0.225000,-10.235000
  0.227000,-10.238700
  0.229000,-10.229800
  0.231000,-10.209000
  0.233000,-10.176300
  0.235000,-10.132400
  0.237000,-10.079000
  0.239000,-10.016300
  0.241000, -9.943400
  0.243000, -9.860000
  0.245000, -9.769500
  0.247000, -9.673000
  0.249000, -9.569200
  0.251000, -9.459000
  0.253000, -9.343100
  0.255000, -9.222800
  0.257000, -9.098900
  0.259000, -8.972400
  0.261000, -8.843600
  0.263000, -8.713300
  0.265000, -8.581700
  0.267000, -8.449400
  0.269000, -8.317000
  0.271000, -8.184400
  0.273000, -8.053100
  0.275000, -7.923200
  0.277000, -7.794000
  0.279000, -7.667000
  0.281000, -7.542700
  0.283000, -7.420700
  0.285000, -7.301400
  0.287000, -7.185000
  0.289000, -7.071500
  0.291000, -6.961400
  0.293000, -6.854700
  0.295000, -6.751300
  0.297000, -6.651600
  0.299000, -6.555300
  0.301000, -6.462400
  0.303000, -6.372900
  0.305000, -6.286900
  0.307000, -6.204100
  0.309000, -6.124400
  0.311000, -6.047800
  0.313000, -5.974000
  0.315000, -5.902700
  0.317000, -5.834100
  0.319000, -5.768000
  0.321000, -5.703700
  0.323000, -5.641300
  0.325000, -5.581000
  0.327000, -5.522700
  0.329000, -5.466000
  0.331000, -5.410200
  0.333000, -5.355500
  0.335000, -5.301600
  0.337000, -5.248100
  0.339000, -5.195200
  0.341000, -5.142600
  0.343000, -5.090200
  0.345000, -5.037600
  0.347000, -4.984700
  0.349000, -4.931600
  0.351000, -4.878100
  0.353000, -4.823900
  0.355000, -4.768800
  0.357000, -4.712900
  0.359000, -4.656200
  0.361000, -4.598400
  0.363000, -4.539400
  0.365000, -4.479200
  0.367000, -4.417500
  0.369000, -4.354400
  0.371000, -4.289800
  0.373000, -4.223800
  0.375000, -4.156400
  0.377000, -4.087300
  0.379000, -4.016700
  0.381000, -3.944700
  0.383000, -3.871100
  0.385000, -3.795900
  0.387000, -3.719200
  0.389000, -3.641000
  0.391000, -3.561400
  0.393000, -3.480000
  0.395000, -3.397200
  0.397000, -3.313300
  0.399000, -3.228000
  0.401000, -3.141800
  0.403000, -3.054500
  0.405000, -2.966400
  0.407000, -2.877800
  0.409000, -2.788500
  0.411000, -2.698000
  0.413000, -2.606600
  0.415000, -2.514700
  0.417000, -2.422500
  0.419000, -2.329900
  0.421000, -2.237600
  0.423000, -2.145500
  0.425000, -2.052900
  0.427000, -1.960800
  0.429000, -1.870000
  0.431000, -1.780200
  0.433000, -1.691800
  0.435000, -1.604000
  0.437000, -1.517000
  0.439000, -1.431100
  0.441000, -1.346000
  0.443000, -1.262700
  0.445000, -1.181000
  0.447000, -1.101000
  0.449000, -1.022900
  0.451000, -0.947100
  0.453000, -0.873600
  0.455000, -0.802300
  0.457000, -0.733300
  0.459000, -0.666500
  0.461000, -0.602500
  0.463000, -0.541200
  0.465000, -0.482700
  0.467000, -0.427100
  0.469000, -0.374200
  0.471000, -0.324500
  0.473000, -0.277700
  0.475000, -0.233800
  0.477000, -0.192900
  0.479000, -0.155000
  0.481000, -0.120200
  0.483000, -0.088400
  0.485000, -0.059800
  0.487000, -0.034200
  0.489000, -0.011300
  0.491000,  0.008800
  0.493000,  0.026000
  0.495000,  0.040300
  0.497000,  0.051800
  0.499000,  0.060500
  0.501000,  0.066900
  0.503000,  0.070700
  0.505000,  0.072300
  0.507000,  0.071500
  0.509000,  0.068400
  0.511000,  0.063200
  0.513000,  0.055900
  0.515000,  0.046600
  0.517000,  0.035600
  0.519000,  0.023200
  0.521000,  0.009200
  0.523000, -0.006300
  0.525000, -0.023200
  0.527000, -0.041000
  0.529000, -0.059700
  0.531000, -0.079600
  0.533000, -0.100500
  0.535000, -0.122300
  0.537000, -0.144800
  0.539000, -0.167700
  0.541000, -0.190900
  0.543000, -0.214400
  0.545000, -0.238200
  0.547000, -0.262200
  0.549000, -0.286500
  0.551000, -0.310800
  0.553000, -0.335000
  0.555000, -0.359000
  0.557000, -0.382700
  0.559000, -0.406100
  0.561000, -0.429100
  0.563000, -0.451900
  0.565000, -0.473900
  0.567000, -0.495300
  0.569000, -0.516000
  0.571000, -0.536100
  0.573000, -0.555700
  0.575000, -0.574500
  0.577000, -0.592500
  0.579000, -0.609700
  0.581000, -0.626000
  0.583000, -0.641500
  0.585000, -0.656200
  0.587000, -0.669800
  0.589000, -0.682600
  0.591000, -0.694500
  0.593000, -0.705500
  0.595000, -0.715400
  0.597000, -0.724400
  0.599000, -0.732500
  0.601000, -0.739600
  0.603000, -0.745700
  0.605000, -0.750900
  0.607000, -0.755100
  0.609000, -0.758400
  0.611000, -0.760800
  0.613000, -0.762300
  0.615000, -0.762900
  0.617000, -0.762600
  0.619000, -0.761500
  0.621000, -0.759500
  0.623000, -0.756600
  0.625000, -0.753000
  0.627000, -0.748600
  0.629000, -0.743400
  0.631000, -0.737500
  0.633000, -0.730700
  0.635000, -0.723300
  0.637000, -0.715300
  0.639000, -0.706700
  0.641000, -0.697400
  0.643000, -0.687500
  0.645000, -0.677300
  0.647000, -0.666400
  0.649000, -0.655000
  0.651000, -0.643100
  0.653000, -0.630700
  0.655000, -0.617900
  0.657000, -0.604800
  0.659000, -0.591300
  0.661000, -0.577700
  0.663000, -0.563900
  0.665000, -0.549900
  0.667000, -0.535500
  0.669000, -0.520700
  0.671000, -0.505900
  0.673000, -0.490900
  0.675000, -0.475700
  0.677000, -0.460500
  0.679000, -0.444700
  0.681000, -0.428900
  0.683000, -0.413300
  0.685000, -0.397800
  0.687000, -0.382200
  0.689000, -0.366400
  0.691000, -0.350500
  0.693000, -0.334500
  0.695000, -0.318600
  0.697000, -0.302800
  0.699000, -0.287100
  0.701000, -0.271500
  0.703000, -0.256000
  0.705000, -0.240600
  0.707000, -0.225100
  0.709000, -0.209700
  0.711000, -0.194500
  0.713000, -0.179400
  0.715000, -0.164600
  0.717000, -0.149800
  0.719000, -0.135200
  0.721000, -0.120800
  0.723000, -0.106700
  0.725000, -0.092900
  0.727000, -0.079300
  0.729000, -0.066100
  0.731000, -0.053000
  0.733000, -0.040100
  0.735000, -0.027100
  0.737000, -0.014300
  0.739000, -0.002000
  0.741000,  0.010000
  0.743000,  0.021600
  0.745000,  0.033100
  0.747000,  0.044100
  0.749000,  0.054700
  0.751000,  0.065200
  0.753000,  0.075400
  0.755000,  0.085300
  0.757000,  0.094900
  0.759000,  0.104100
  0.761000,  0.112900
  0.763000,  0.121400
  0.765000,  0.129500
  0.767000,  0.137400
  0.769000,  0.145100
  0.771000,  0.152200
  0.773000,  0.158700
  0.775000,  0.164800
  0.777000,  0.170700
  0.779000,  0.176200
  0.781000,  0.181400
  0.783000,  0.186000
  0.785000,  0.190200
  0.787000,  0.194000
  0.789000,  0.197200
  0.791000,  0.200000
  0.793000,  0.202400
  0.795000,  0.204400
  0.797000,  0.206200
  0.799000,  0.207600
  0.801000,  0.208500
  0.803000,  0.209000
  0.805000,  0.209200
  0.807000,  0.209000
  0.809000,  0.208400
  0.811000,  0.207400
  0.813000,  0.206200
  0.815000,  0.204600
  0.817000,  0.202700
  0.819000,  0.200600
  0.821000,  0.198100
  0.823000,  0.195200
  0.825000,  0.192100
  0.827000,  0.188700
  0.829000,  0.185000
  0.831000,  0.181100
  0.833000,  0.177000
  0.835000,  0.172700
  0.837000,  0.168200
  0.839000,  0.163400
  0.841000,  0.158500
  0.843000,  0.153400
  0.845000,  0.148100
  0.847000,  0.142700
  0.849000,  0.137200
  0.851000,  0.131700
  0.853000,  0.126100
  0.855000,  0.120200
  0.857000,  0.114200
  0.859000,  0.108100
  0.861000,  0.102100
  0.863000,  0.096000
  0.865000,  0.089700
  0.867000,  0.083600
  0.869000,  0.077400
  0.871000,  0.071200
  0.873000,  0.065000
  0.875000,  0.058900
  0.877000,  0.052700
  0.879000,  0.046700
  0.881000,  0.040700
  0.883000,  0.034800
  0.885000,  0.029000
  0.887000,  0.023200
  0.889000,  0.017700
  0.891000,  0.012100
  0.893000,  0.006600
  0.895000,  0.001400
  0.897000, -0.003800
  0.899000, -0.008700
  0.901000, -0.013400
  0.903000, -0.018000
  0.905000, -0.022300
  0.907000, -0.026400
  0.909000, -0.030400
  0.911000, -0.034200
  0.913000, -0.037900
  0.915000, -0.041200
  0.917000, -0.044300
  0.919000, -0.047200
  0.921000, -0.050000
  0.923000, -0.052400
  0.925000, -0.054500
  0.927000, -0.056400
  0.929000, -0.058200
  0.931000, -0.059800
  0.933000, -0.061000
  0.935000, -0.062100
  0.937000, -0.063000
  0.939000, -0.063500
  0.941000, -0.063700
  0.943000, -0.063700
  0.945000, -0.063500
  0.947000, -0.063100
  0.949000, -0.062400
  0.951000, -0.061600
  0.953000, -0.060600
  0.955000, -0.059500
  0.957000, -0.058200
  0.959000, -0.056600
  0.961000, -0.054800
  0.963000, -0.052800
  0.965000, -0.050600
  0.967000, -0.048300
  0.969000, -0.045900
  0.971000, -0.043200
  0.973000, -0.040400
  0.975000, -0.037300
  0.977000, -0.034200
  0.979000, -0.030900
  0.981000, -0.027500
  0.983000, -0.024000
  0.985000, -0.020400
  0.987000, -0.016600
  0.989000, -0.012800
  0.991000, -0.008900
  0.993000, -0.004900
  0.995000, -0.000800
  0.997000,  0.003500
  0.999000,  0.007800
  1.001000,  0.012100
  1.003000,  0.016400
  1.005000,  0.020800
  1.007000,  0.025300
  1.009000,  0.029800
  1.011000,  0.034300
  1.013000,  0.039000
  1.015000,  0.043600
  1.017000,  0.048200
  1.019000,  0.052800
  1.021000,  0.057300
  1.023000,  0.061900
  1.025000,  0.066400
  1.027000,  0.070900
  1.029000,  0.075300
  1.031000,  0.079500
  1.033000,  0.083800
  1.035000,  0.088100
  1.037000,  0.092200
  1.039000,  0.096300
  1.041000,  0.100300
  1.043000,  0.104200
  1.045000,  0.108000
  1.047000,  0.111700
  1.049000,  0.115400
  1.051000,  0.118900
  1.053000,  0.122100
  1.055000,  0.125300
  1.057000,  0.128300
  1.059000,  0.131300
  1.061000,  0.134000
  1.063000,  0.136600
  1.065000,  0.139100
  1.067000,  0.141400
  1.069000,  0.143500
  1.071000,  0.145300
  1.073000,  0.146900
  1.075000,  0.148400
  1.077000,  0.149900
  1.079000,  0.151000
  1.081000,  0.152100
  1.083000,  0.153000
  1.085000,  0.153700
  1.087000,  0.154200
  1.089000,  0.154600
  1.091000,  0.154900
  1.093000,  0.154800
  1.095000,  0.154700
  1.097000,  0.154400
  1.099000,  0.154100
  1.101000,  0.153700
  1.103000,  0.153200
  1.105000,  0.152500
  1.107000,  0.151700
  1.109000,  0.150700
  1.111000,  0.149600
  1.113000,  0.148500
  1.115000,  0.147400
  1.117000,  0.146200
  1.119000,  0.144900
  1.121000,  0.143500
  1.123000,  0.142000
  1.125000,  0.140600
  1.127000,  0.139000
  1.129000,  0.137400
  1.131000,  0.135600
  1.133000,  0.133900
  1.135000,  0.132200
  1.137000,  0.130400
  1.139000,  0.128700
  1.141000,  0.126800
  1.143000,  0.124900
  1.145000,  0.123000
  1.147000,  0.121200
  1.149000,  0.119300
  1.151000,  0.117300
  1.153000,  0.115500
  1.155000,  0.113500
  1.157000,  0.111500
  1.159000,  0.109800
  1.161000,  0.108000
  1.163000,  0.106000
  1.165000,  0.104000
  1.167000,  0.101900
  1.169000,  0.099900
  1.171000,  0.097800
  1.173000,  0.095600
  1.175000,  0.093500
  1.177000,  0.091300
  1.179000,  0.089300
  1.181000,  0.087100
  1.183000,  0.084900
  1.185000,  0.082500
  1.187000,  0.080200
  1.189000,  0.078000
  1.191000,  0.075700
  1.193000,  0.073400
  1.195000,  0.071000
  1.197000,  0.068600
  1.199000,  0.066200
  1.201000,  0.063700
  1.203000,  0.061200
  1.205000,  0.058600
  1.207000,  0.056000
  1.209000,  0.053300
  1.211000,  0.050700
  1.213000,  0.048000
  1.215000,  0.045400
  1.217000,  0.042700
  1.219000,  0.040000
  1.221000,  0.037300
  1.223000,  0.034600
  1.225000,  0.031900
  1.227000,  0.029300
  1.229000,  0.026600
  1.231000,  0.024000
  1.233000,  0.021200
  1.235000,  0.018500
  1.237000,  0.015800
  1.239000,  0.013100
  1.241000,  0.010500
  1.243000,  0.007900
  1.245000,  0.005400
  1.247000,  0.002900
  1.249000,  0.000500
  1.251000, -0.001900
  1.253000, -0.004300
  1.255000, -0.006600
  1.257000, -0.008800
  1.259000, -0.011000
  1.261000, -0.013100
  1.263000, -0.015200
  1.265000, -0.017100
  1.267000, -0.019000
  1.269000, -0.020700
  1.271000, -0.022300
  1.273000, -0.023800
  1.275000, -0.025300
  1.277000, -0.026700
  1.279000, -0.028000
  1.281000, -0.029100
  1.283000, -0.030200
  1.285000, -0.031200
  1.287000, -0.032000
  1.289000, -0.032800
  1.291000, -0.033500
  1.293000, -0.034100
  1.295000, -0.034600
  1.297000, -0.034900
  1.299000, -0.035200
  1.301000, -0.035500
  1.303000, -0.035700
  1.305000, -0.035700
  1.307000, -0.035600
  1.309000, -0.035500
  1.311000, -0.035200
  1.313000, -0.034800
  1.315000, -0.034400
  1.317000, -0.033800
  1.319000, -0.033100
  1.321000, -0.032400
  1.323000, -0.031500
  1.325000, -0.030600
  1.327000, -0.029600
  1.329000, -0.028500
  1.331000, -0.027200
  1.333000, -0.025700
  1.335000, -0.024200
  1.337000, -0.022500
  1.339000, -0.020800
  1.341000, -0.019000
  1.343000, -0.017100
  1.345000, -0.015100
  1.347000, -0.013000
  1.349000, -0.010900
  1.351000, -0.008700
  1.353000, -0.006400
  1.355000, -0.004200
  1.357000, -0.001800
  1.359000,  0.000700
  1.361000,  0.003300
  1.363000,  0.005800
  1.365000,  0.008300
  1.367000,  0.010600
  1.369000,  0.013100
  1.371000,  0.015700
  1.373000,  0.018100
  1.375000,  0.020500
  1.377000,  0.022800
  1.379000,  0.025100
  1.381000,  0.027200
  1.383000,  0.029200
  1.385000,  0.030900
  1.387000,  0.032400
  1.389000,  0.033800
  1.391000,  0.034900
  1.393000,  0.035700
  1.395000,  0.036100
  1.397000,  0.036400
  1.399000,  0.036300
