# z (nm)   (kJ/mol)
  0.133000,  5.607100
  0.137000,  4.606400
  0.139000,  4.157800
  0.141000,  3.724500
  0.143000,  3.242400
  0.145000,  2.756300
  0.147000,  2.273400
  0.149000,  1.776100
  0.151000,  1.283500
  0.153000,  0.806600
  0.155000,  0.328700
  0.157000, -0.151600
  0.159000, -0.622600
  0.161000, -1.082800
  0.163000, -1.532300
  0.165000, -1.972900
  0.167000, -2.405000
  0.169000, -2.826000
  0.171000, -3.237100
  0.173000, -3.637800
  0.175000, -4.023800
  0.177000, -4.394600
  0.179000, -4.752400
  0.181000, -5.096500
  0.183000, -5.423100
  0.185000, -5.733000
  0.187000, -6.028900
  0.189000, -6.310100
  0.191000, -6.575700
  0.193000, -6.823000
  0.195000, -7.050800
  0.197000, -7.261900
  0.199000, -7.456100
  0.201000, -7.632600
  0.203000, -7.792200
  0.205000, -7.934100
  0.207000, -8.058800
  0.209000, -8.166200
  0.211000, -8.255900
  0.213000, -8.327800
  0.215000, -8.382900
  0.217000, -8.421600
  0.219000, -8.444700
  0.221000, -8.451900
  0.223000, -8.443300
  0.225000, -8.419900
  0.227000, -8.381800
  0.229000, -8.330000
  0.231000, -8.265000
  0.233000, -8.186800
  0.235000, -8.095800
  0.237000, -7.993200
  0.239000, -7.879200
  0.241000, -7.754800
  0.243000, -7.621700
  0.245000, -7.480700
  0.247000, -7.332500
  0.249000, -7.177000
  0.251000, -7.014200
  0.253000, -6.844300
  0.255000, -6.670000
  0.257000, -6.492500
  0.259000, -6.311800
  0.261000, -6.128500
  0.263000, -5.942800
  0.265000, -5.755700
  0.267000, -5.568500
  0.269000, -5.382400
  0.271000, -5.196600
  0.273000, -5.011600
  0.275000, -4.827900
  0.277000, -4.646300
  0.279000, -4.468200
  0.281000, -4.293400
  0.283000, -4.122200
  0.285000, -3.954800
  0.287000, -3.792200
  0.289000, -3.634500
  0.291000, -3.481200
  0.293000, -3.332900
  0.295000, -3.190100
  0.297000, -3.052400
  0.299000, -2.919900
  0.301000, -2.792900
  0.303000, -2.671100
  0.305000, -2.554700
  0.307000, -2.443700
  0.309000, -2.338200
  0.311000, -2.238100
  0.313000, -2.143100
  0.315000, -2.053100
  0.317000, -1.967600
  0.319000, -1.886600
  0.321000, -1.810100
  0.323000, -1.738000
  0.325000, -1.670200
  0.327000, -1.606400
  0.329000, -1.546900
  0.331000, -1.491000
  0.333000, -1.438400
  0.335000, -1.388500
  0.337000, -1.341300
  0.339000, -1.296800
  0.341000, -1.254900
  0.343000, -1.215200
  0.345000, -1.177400
  0.347000, -1.141900
  0.349000, -1.108500
  0.351000, -1.076000
  0.353000, -1.044500
  0.355000, -1.014300
  0.357000, -0.985500
  0.359000, -0.957500
  0.361000, -0.929800
  0.363000, -0.902500
  0.365000, -0.875500
  0.367000, -0.848700
  0.369000, -0.821900
  0.371000, -0.795100
  0.373000, -0.768200
  0.375000, -0.741000
  0.377000, -0.713700
  0.379000, -0.686100
  0.381000, -0.658100
  0.383000, -0.629700
  0.385000, -0.600800
  0.387000, -0.571400
  0.389000, -0.541400
  0.391000, -0.510800
  0.393000, -0.479500
  0.395000, -0.447400
  0.397000, -0.414900
  0.399000, -0.382100
  0.401000, -0.348900
  0.403000, -0.314900
  0.405000, -0.280500
  0.407000, -0.245900
  0.409000, -0.211100
  0.411000, -0.176300
  0.413000, -0.141300
  0.415000, -0.106200
  0.417000, -0.071400
  0.419000, -0.036700
  0.421000, -0.002500
  0.423000,  0.031500
  0.425000,  0.064900
  0.427000,  0.097500
  0.429000,  0.129700
  0.431000,  0.161100
  0.433000,  0.191100
  0.435000,  0.219900
  0.437000,  0.247400
  0.439000,  0.273400
  0.441000,  0.297900
  0.443000,  0.320800
  0.445000,  0.342200
  0.447000,  0.361600
  0.449000,  0.378800
  0.451000,  0.393700
  0.453000,  0.406700
  0.455000,  0.417900
  0.457000,  0.426700
  0.459000,  0.433100
  0.461000,  0.437200
  0.463000,  0.438800
  0.465000,  0.438200
  0.467000,  0.435200
  0.469000,  0.429900
  0.471000,  0.422300
  0.473000,  0.412100
  0.475000,  0.399500
  0.477000,  0.384800
  0.479000,  0.367800
  0.481000,  0.348600
  0.483000,  0.327300
  0.485000,  0.304100
  0.487000,  0.278600
  0.489000,  0.251300
  0.491000,  0.222600
  0.493000,  0.192000
  0.495000,  0.159900
  0.497000,  0.126300
  0.499000,  0.091200
  0.501000,  0.055100
  0.503000,  0.017700
  0.505000, -0.020600
  0.507000, -0.059400
  0.509000, -0.099100
  0.511000, -0.139200
  0.513000, -0.179500
  0.515000, -0.220400
  0.517000, -0.261600
  0.519000, -0.302600
  0.521000, -0.343700
  0.523000, -0.384700
  0.525000, -0.425300
  0.527000, -0.465800
  0.529000, -0.505500
  0.531000, -0.544400
  0.533000, -0.582800
  0.535000, -0.620200
  0.537000, -0.656800
  0.539000, -0.692400
  0.541000, -0.726800
  0.543000, -0.760300
  0.545000, -0.792400
  0.547000, -0.822900
  0.549000, -0.851900
  0.551000, -0.879800
  0.553000, -0.906500
  0.555000, -0.931700
  0.557000, -0.955400
  0.559000, -0.977600
  0.561000, -0.998000
  0.563000, -1.016900
  0.565000, -1.034300
  0.567000, -1.050100
  0.569000, -1.064400
  0.571000, -1.077300
  0.573000, -1.088600
  0.575000, -1.098400
  0.577000, -1.106600
  0.579000, -1.113500
  0.581000, -1.119100
  0.583000, -1.123200
  0.585000, -1.125900
  0.587000, -1.127100
  0.589000, -1.126900
  0.591000, -1.125400
  0.593000, -1.122800
  0.595000, -1.119000
  0.597000, -1.114200
  0.599000, -1.108500
  0.601000, -1.101900
  0.603000, -1.094400
  0.605000, -1.085700
  0.607000, -1.076400
  0.609000, -1.066100
  0.611000, -1.054800
  0.613000, -1.042700
  0.615000, -1.029900
  0.617000, -1.016800
  0.619000, -1.002900
  0.621000, -0.988100
  0.623000, -0.973200
  0.625000, -0.957700
  0.627000, -0.941600
  0.629000, -0.925200
  0.631000, -0.908500
  0.633000, -0.891400
  0.635000, -0.874200
  0.637000, -0.857000
  0.639000, -0.839500
  0.641000, -0.821900
  0.643000, -0.804400
  0.645000, -0.786600
  0.647000, -0.768600
  0.649000, -0.750600
  0.651000, -0.732600
  0.653000, -0.714700
  0.655000, -0.696700
  0.657000, -0.678600
  0.659000, -0.660600
  0.661000, -0.642600
  0.663000, -0.624700
  0.665000, -0.607000
  0.667000, -0.589500
  0.669000, -0.572200
  0.671000, -0.555100
  0.673000, -0.538000
  0.675000, -0.521100
  0.677000, -0.504300
  0.679000, -0.487600
  0.681000, -0.471200
  0.683000, -0.455000
  0.685000, -0.439000
  0.687000, -0.423300
  0.689000, -0.407800
  0.691000, -0.392500
  0.693000, -0.377400
  0.695000, -0.362700
  0.697000, -0.348300
  0.699000, -0.334100
  0.701000, -0.320200
  0.703000, -0.306500
  0.705000, -0.293100
  0.707000, -0.280100
  0.709000, -0.267400
  0.711000, -0.255000
  0.713000, -0.243000
  0.715000, -0.231200
  0.717000, -0.219800
  0.719000, -0.208800
  0.721000, -0.198100
  0.723000, -0.187700
  0.725000, -0.177700
  0.727000, -0.168100
  0.729000, -0.158900
  0.731000, -0.150000
  0.733000, -0.141500
  0.735000, -0.133300
  0.737000, -0.125700
  0.739000, -0.118400
  0.741000, -0.111600
  0.743000, -0.105200
  0.745000, -0.099200
  0.747000, -0.093600
  0.749000, -0.088500
  0.751000, -0.083800
  0.753000, -0.079500
  0.755000, -0.075700
  0.757000, -0.072300
  0.759000, -0.069300
  0.761000, -0.066800
  0.763000, -0.064700
  0.765000, -0.063000
  0.767000, -0.061700
  0.769000, -0.061000
  0.771000, -0.060700
  0.773000, -0.060700
  0.775000, -0.061200
  0.777000, -0.062100
  0.779000, -0.063500
  0.781000, -0.065200
  0.783000, -0.067200
  0.785000, -0.069600
  0.787000, -0.072300
  0.789000, -0.075400
  0.791000, -0.078800
  0.793000, -0.082500
  0.795000, -0.086500
  0.797000, -0.090800
  0.799000, -0.095500
  0.801000, -0.100400
  0.803000, -0.105600
  0.805000, -0.110900
  0.807000, -0.116400
  0.809000, -0.122100
  0.811000, -0.127800
  0.813000, -0.133800
  0.815000, -0.139700
  0.817000, -0.145600
  0.819000, -0.151600
  0.821000, -0.157800
  0.823000, -0.164000
  0.825000, -0.170100
  0.827000, -0.176200
  0.829000, -0.182300
  0.831000, -0.188400
  0.833000, -0.194500
  0.835000, -0.200400
  0.837000, -0.206100
  0.839000, -0.211900
  0.841000, -0.217500
  0.843000, -0.223000
  0.845000, -0.228300
  0.847000, -0.233400
  0.849000, -0.238300
  0.851000, -0.243000
  0.853000, -0.247500
  0.855000, -0.251800
  0.857000, -0.256000
  0.859000, -0.260000
  0.861000, -0.263700
  0.863000, -0.267300
  0.865000, -0.270600
  0.867000, -0.273800
  0.869000, -0.276700
  0.871000, -0.279200
  0.873000, -0.281500
  0.875000, -0.283600
  0.877000, -0.285500
  0.879000, -0.287300
  0.881000, -0.288900
  0.883000, -0.290300
  0.885000, -0.291500
  0.887000, -0.292400
  0.889000, -0.293200
  0.891000, -0.293800
  0.893000, -0.294100
  0.895000, -0.294300
  0.897000, -0.294300
  0.899000, -0.294100
  0.901000, -0.293900
  0.903000, -0.293600
  0.905000, -0.293100
  0.907000, -0.292500
  0.909000, -0.291800
  0.911000, -0.291000
  0.913000, -0.289900
  0.915000, -0.288800
  0.917000, -0.287500
  0.919000, -0.286300
  0.921000, -0.284900
  0.923000, -0.283400
  0.925000, -0.281800
  0.927000, -0.280200
  0.929000, -0.278500
  0.931000, -0.276700
  0.933000, -0.274800
  0.935000, -0.272900
  0.937000, -0.270900
  0.939000, -0.268800
  0.941000, -0.266600
  0.943000, -0.264200
  0.945000, -0.261800
  0.947000, -0.259400
  0.949000, -0.256800
  0.951000, -0.254200
  0.953000, -0.251600
  0.955000, -0.248700
  0.957000, -0.245800
  0.959000, -0.242700
  0.961000, -0.239700
  0.963000, -0.236600
  0.965000, -0.233300
  0.967000, -0.229900
  0.969000, -0.226500
  0.971000, -0.222900
  0.973000, -0.219200
  0.975000, -0.215400
  0.977000, -0.211500
  0.979000, -0.207500
  0.981000, -0.203400
  0.983000, -0.199200
  0.985000, -0.194900
  0.987000, -0.190400
  0.989000, -0.185900
  0.991000, -0.181300
  0.993000, -0.176500
  0.995000, -0.171700
  0.997000, -0.166700
  0.999000, -0.161600
  1.001000, -0.156500
  1.003000, -0.151300
  1.005000, -0.146100
  1.007000, -0.140800
  1.009000, -0.135400
  1.011000, -0.129900
  1.013000, -0.124200
  1.015000, -0.118600
  1.017000, -0.113000
  1.019000, -0.107400
  1.021000, -0.101700
  1.023000, -0.095900
  1.025000, -0.090100
  1.027000, -0.084300
  1.029000, -0.078600
  1.031000, -0.072900
  1.033000, -0.067200
  1.035000, -0.061600
  1.037000, -0.056000
  1.039000, -0.050400
  1.041000, -0.045000
  1.043000, -0.039600
  1.045000, -0.034200
  1.047000, -0.028900
  1.049000, -0.023800
  1.051000, -0.018800
  1.053000, -0.014000
  1.055000, -0.009200
  1.057000, -0.004600
  1.059000, -0.000200
  1.061000,  0.004100
  1.063000,  0.008200
  1.065000,  0.012100
  1.067000,  0.015900
  1.069000,  0.019500
  1.071000,  0.022800
  1.073000,  0.025900
  1.075000,  0.028800
  1.077000,  0.031500
  1.079000,  0.034000
  1.081000,  0.036200
  1.083000,  0.038200
  1.085000,  0.039900
  1.087000,  0.041500
  1.089000,  0.042800
  1.091000,  0.043900
  1.093000,  0.044800
  1.095000,  0.045400
  1.097000,  0.045900
  1.099000,  0.046200
  1.101000,  0.046300
  1.103000,  0.046200
  1.105000,  0.045900
  1.107000,  0.045400
  1.109000,  0.044800
  1.111000,  0.044000
  1.113000,  0.043000
  1.115000,  0.041800
  1.117000,  0.040600
  1.119000,  0.039300
  1.121000,  0.037800
  1.123000,  0.036100
  1.125000,  0.034400
  1.127000,  0.032600
  1.129000,  0.030800
  1.131000,  0.028900
  1.133000,  0.027100
  1.135000,  0.025100
  1.137000,  0.023100
  1.139000,  0.021100
  1.141000,  0.019000
  1.143000,  0.016900
  1.145000,  0.014800
  1.147000,  0.012800
  1.149000,  0.010600
  1.151000,  0.008600
  1.153000,  0.006600
  1.155000,  0.004700
  1.157000,  0.002800
  1.159000,  0.000900
  1.161000, -0.001000
  1.163000, -0.002800
  1.165000, -0.004700
  1.167000, -0.006500
  1.169000, -0.008300
  1.171000, -0.010100
  1.173000, -0.011700
  1.175000, -0.013200
  1.177000, -0.014700
  1.179000, -0.016200
  1.181000, -0.017700
  1.183000, -0.019100
  1.185000, -0.020400
  1.187000, -0.021700
  1.189000, -0.022900
  1.191000, -0.024100
  1.193000, -0.025300
  1.195000, -0.026500
  1.197000, -0.027500
  1.199000, -0.028600
  1.201000, -0.029600
  1.203000, -0.030700
  1.205000, -0.031800
  1.207000, -0.032700
  1.209000, -0.033700
  1.211000, -0.034700
  1.213000, -0.035600
  1.215000, -0.036600
  1.217000, -0.037500
  1.219000, -0.038400
  1.221000, -0.039200
  1.223000, -0.039900
  1.225000, -0.040700
  1.227000, -0.041300
  1.229000, -0.042000
  1.231000, -0.042500
  1.233000, -0.042900
  1.235000, -0.043200
  1.237000, -0.043600
  1.239000, -0.043900
  1.241000, -0.044000
  1.243000, -0.044000
  1.245000, -0.044000
  1.247000, -0.043900
  1.249000, -0.043800
  1.251000, -0.043600
  1.253000, -0.043300
  1.255000, -0.042800
  1.257000, -0.042400
  1.259000, -0.041900
  1.261000, -0.041200
  1.263000, -0.040500
  1.265000, -0.039600
  1.267000, -0.038600
  1.269000, -0.037600
  1.271000, -0.036500
  1.273000, -0.035200
  1.275000, -0.033800
  1.277000, -0.032400
  1.279000, -0.031100
  1.281000, -0.029700
  1.283000, -0.027900
  1.285000, -0.026100
  1.287000, -0.024500
  1.289000, -0.022700
  1.291000, -0.020900
  1.293000, -0.019000
  1.295000, -0.017000
  1.297000, -0.014900
  1.299000, -0.012800
  1.301000, -0.010700
  1.303000, -0.008500
  1.305000, -0.006400
  1.307000, -0.004300
  1.309000, -0.002000
  1.311000,  0.000200
  1.313000,  0.002500
  1.315000,  0.004800
  1.317000,  0.007000
  1.319000,  0.009300
  1.321000,  0.011500
  1.323000,  0.013700
  1.325000,  0.015900
  1.327000,  0.018000
  1.329000,  0.020100
  1.331000,  0.022100
  1.333000,  0.024200
  1.335000,  0.026300
  1.337000,  0.028300
  1.339000,  0.030200
  1.341000,  0.032200
  1.343000,  0.034100
  1.345000,  0.036000
  1.347000,  0.037900
  1.349000,  0.039700
  1.351000,  0.041400
  1.353000,  0.043100
  1.355000,  0.044900
  1.357000,  0.046600
  1.359000,  0.048200
  1.361000,  0.049800
  1.363000,  0.051300
  1.365000,  0.052800
  1.367000,  0.054300
  1.369000,  0.055800
  1.371000,  0.057200
  1.373000,  0.058600
  1.375000,  0.059900
  1.377000,  0.061100
  1.379000,  0.062200
  1.381000,  0.063200
  1.383000,  0.064100
  1.385000,  0.064900
  1.387000,  0.065500
  1.389000,  0.066000
  1.391000,  0.066300
  1.393000,  0.066400
  1.395000,  0.066300
  1.397000,  0.065900
  1.399000,  0.065100
