# z (nm)   (kJ/mol)
  0.131000,  6.304900
  0.135000,  5.466200
  0.137000,  5.052800
  0.139000,  4.649000
  0.141000,  4.233400
  0.143000,  3.807800
  0.145000,  3.395200
  0.147000,  2.980800
  0.149000,  2.554700
  0.151000,  2.123700
  0.153000,  1.686000
  0.155000,  1.244100
  0.157000,  0.805100
  0.159000,  0.367800
  0.161000, -0.068600
  0.163000, -0.505500
  0.165000, -0.941100
  0.167000, -1.370200
  0.169000, -1.794100
  0.171000, -2.216500
  0.173000, -2.635200
  0.175000, -3.047800
  0.177000, -3.455600
  0.179000, -3.856200
  0.181000, -4.250500
  0.183000, -4.640600
  0.185000, -5.023900
  0.187000, -5.396300
  0.189000, -5.757800
  0.191000, -6.111300
  0.193000, -6.456400
  0.195000, -6.789500
  0.197000, -7.111000
  0.199000, -7.424000
  0.201000, -7.727000
  0.203000, -8.018700
  0.205000, -8.297500
  0.207000, -8.562700
  0.209000, -8.814300
  0.211000, -9.054500
  0.213000, -9.283600
  0.215000, -9.499200
  0.217000, -9.701200
  0.219000, -9.889400
  0.221000,-10.063900
  0.223000,-10.224700
  0.225000,-10.371900
  0.227000,-10.505400
  0.229000,-10.625700
  0.231000,-10.732500
  0.233000,-10.825600
  0.235000,-10.905400
  0.237000,-10.972800
  0.239000,-11.027800
  0.241000,-11.069600
  0.243000,-11.099400
  0.245000,-11.117200
  0.247000,-11.124200
  0.249000,-11.119700
  0.251000,-11.103800
  0.253000,-11.079000
  0.255000,-11.044700
  0.257000,-11.000100
  0.259000,-10.945900
  0.261000,-10.883200
  0.263000,-10.812700
  0.265000,-10.735200
  0.267000,-10.650700
  0.269000,-10.559200
  0.271000,-10.461800
  0.273000,-10.358900
  0.275000,-10.251300
  0.277000,-10.139600
  0.279000,-10.023400
  0.281000, -9.904200
  0.283000, -9.782200
  0.285000, -9.656800
  0.287000, -9.528800
  0.289000, -9.398700
  0.291000, -9.267100
  0.293000, -9.134700
  0.295000, -9.001100
  0.297000, -8.866700
  0.299000, -8.732300
  0.301000, -8.597700
  0.303000, -8.462900
  0.305000, -8.328400
  0.307000, -8.194700
  0.309000, -8.061600
  0.311000, -7.929200
  0.313000, -7.797700
  0.315000, -7.667100
  0.317000, -7.537600
  0.319000, -7.409200
  0.321000, -7.281900
  0.323000, -7.156000
  0.325000, -7.031200
  0.327000, -6.907600
  0.329000, -6.785000
  0.331000, -6.663600
  0.333000, -6.543300
  0.335000, -6.424000
  0.337000, -6.305600
  0.339000, -6.188200
  0.341000, -6.071700
  0.343000, -5.955800
  0.345000, -5.840600
  0.347000, -5.726000
  0.349000, -5.611900
  0.351000, -5.498500
  0.353000, -5.385300
  0.355000, -5.272500
  0.357000, -5.159900
  0.359000, -5.047400
  0.361000, -4.935000
  0.363000, -4.822700
  0.365000, -4.710400
  0.367000, -4.598000
  0.369000, -4.485300
  0.371000, -4.372400
  0.373000, -4.259200
  0.375000, -4.145700
  0.377000, -4.031800
  0.379000, -3.917700
  0.381000, -3.803200
  0.383000, -3.688300
  0.385000, -3.573000
  0.387000, -3.457200
  0.389000, -3.341200
  0.391000, -3.224900
  0.393000, -3.108500
  0.395000, -2.992000
  0.397000, -2.875600
  0.399000, -2.759200
  0.401000, -2.642900
  0.403000, -2.526100
  0.405000, -2.408700
  0.407000, -2.291400
  0.409000, -2.174700
  0.411000, -2.058700
  0.413000, -1.943000
  0.415000, -1.828300
  0.417000, -1.713800
  0.419000, -1.600100
  0.421000, -1.487600
  0.423000, -1.376000
  0.425000, -1.265500
  0.427000, -1.156200
  0.429000, -1.048300
  0.431000, -0.942100
  0.433000, -0.837900
  0.435000, -0.735400
  0.437000, -0.634000
  0.439000, -0.534900
  0.441000, -0.438300
  0.443000, -0.343600
  0.445000, -0.251700
  0.447000, -0.162700
  0.449000, -0.076400
  0.451000,  0.007600
  0.453000,  0.088900
  0.455000,  0.166800
  0.457000,  0.241000
  0.459000,  0.311900
  0.461000,  0.379600
  0.463000,  0.444100
  0.465000,  0.505200
  0.467000,  0.562700
  0.469000,  0.616500
  0.471000,  0.666900
  0.473000,  0.713300
  0.475000,  0.755900
  0.477000,  0.794800
  0.479000,  0.830100
  0.481000,  0.862000
  0.483000,  0.890000
  0.485000,  0.914500
  0.487000,  0.935400
  0.489000,  0.952600
  0.491000,  0.966300
  0.493000,  0.976600
  0.495000,  0.983600
  0.497000,  0.987300
  0.499000,  0.987600
  0.501000,  0.984900
  0.503000,  0.979100
  0.505000,  0.970700
  0.507000,  0.959300
  0.509000,  0.945100
  0.511000,  0.928700
  0.513000,  0.909600
  0.515000,  0.888400
  0.517000,  0.865400
  0.519000,  0.840300
  0.521000,  0.813500
  0.523000,  0.785000
  0.525000,  0.754300
  0.527000,  0.722400
  0.529000,  0.689400
  0.531000,  0.655700
  0.533000,  0.621200
  0.535000,  0.585500
  0.537000,  0.548500
  0.539000,  0.510400
  0.541000,  0.472000
  0.543000,  0.432900
  0.545000,  0.393500
  0.547000,  0.354500
  0.549000,  0.315700
  0.551000,  0.277000
  0.553000,  0.238500
  0.555000,  0.200600
  0.557000,  0.163000
  0.559000,  0.125500
  0.561000,  0.089000
  0.563000,  0.053300
  0.565000,  0.018200
  0.567000, -0.015900
  0.569000, -0.049100
  0.571000, -0.081800
  0.573000, -0.113600
  0.575000, -0.144300
  0.577000, -0.173900
  0.579000, -0.202500
  0.581000, -0.230000
  0.583000, -0.256400
  0.585000, -0.281600
  0.587000, -0.305700
  0.589000, -0.328500
  0.591000, -0.350000
  0.593000, -0.370000
  0.595000, -0.388900
  0.597000, -0.406500
  0.599000, -0.423000
  0.601000, -0.438200
  0.603000, -0.452200
  0.605000, -0.465000
  0.607000, -0.476600
  0.609000, -0.486900
  0.611000, -0.496000
  0.613000, -0.503900
  0.615000, -0.510700
  0.617000, -0.516300
  0.619000, -0.520800
  0.621000, -0.524300
  0.623000, -0.526600
  0.625000, -0.527800
  0.627000, -0.528100
  0.629000, -0.527300
  0.631000, -0.525500
  0.633000, -0.522900
  0.635000, -0.519300
  0.637000, -0.514800
  0.639000, -0.509500
  0.641000, -0.503300
  0.643000, -0.496200
  0.645000, -0.488300
  0.647000, -0.479700
  0.649000, -0.470300
  0.651000, -0.460300
  0.653000, -0.449600
  0.655000, -0.438300
  0.657000, -0.426300
  0.659000, -0.413800
  0.661000, -0.400700
  0.663000, -0.387000
  0.665000, -0.372800
  0.667000, -0.358300
  0.669000, -0.343300
  0.671000, -0.327900
  0.673000, -0.312100
  0.675000, -0.296100
  0.677000, -0.279600
  0.679000, -0.263000
  0.681000, -0.246100
  0.683000, -0.229100
  0.685000, -0.211900
  0.687000, -0.194400
  0.689000, -0.177000
  0.691000, -0.159400
  0.693000, -0.141800
  0.695000, -0.124200
  0.697000, -0.106500
  0.699000, -0.088900
  0.701000, -0.071500
  0.703000, -0.054200
  0.705000, -0.037100
  0.707000, -0.020000
  0.709000, -0.003100
  0.711000,  0.013600
  0.713000,  0.030100
  0.715000,  0.046400
  0.717000,  0.062300
  0.719000,  0.077800
  0.721000,  0.093000
  0.723000,  0.107800
  0.725000,  0.122300
  0.727000,  0.136300
  0.729000,  0.150000
  0.731000,  0.163200
  0.733000,  0.176100
  0.735000,  0.188400
  0.737000,  0.200200
  0.739000,  0.211500
  0.741000,  0.222200
  0.743000,  0.232500
  0.745000,  0.242100
  0.747000,  0.251300
  0.749000,  0.259900
  0.751000,  0.267900
  0.753000,  0.275400
  0.755000,  0.282300
  0.757000,  0.288500
  0.759000,  0.294300
  0.761000,  0.299500
  0.763000,  0.303900
  0.765000,  0.307900
  0.767000,  0.311200
  0.769000,  0.314100
  0.771000,  0.316400
  0.773000,  0.318100
  0.775000,  0.319200
  0.777000,  0.319700
  0.779000,  0.319800
  0.781000,  0.319200
  0.783000,  0.318200
  0.785000,  0.316700
  0.787000,  0.314700
  0.789000,  0.312200
  0.791000,  0.309200
  0.793000,  0.305800
  0.795000,  0.302000
  0.797000,  0.297700
  0.799000,  0.293000
  0.801000,  0.287900
  0.803000,  0.282500
  0.805000,  0.276500
  0.807000,  0.270200
  0.809000,  0.263700
  0.811000,  0.256800
  0.813000,  0.249700
  0.815000,  0.242200
  0.817000,  0.234500
  0.819000,  0.226600
  0.821000,  0.218500
  0.823000,  0.210400
  0.825000,  0.202000
  0.827000,  0.193400
  0.829000,  0.184900
  0.831000,  0.176200
  0.833000,  0.167600
  0.835000,  0.158800
  0.837000,  0.150000
  0.839000,  0.141100
  0.841000,  0.132100
  0.843000,  0.123200
  0.845000,  0.114400
  0.847000,  0.105600
  0.849000,  0.096900
  0.851000,  0.088300
  0.853000,  0.079900
  0.855000,  0.071700
  0.857000,  0.063500
  0.859000,  0.055600
  0.861000,  0.047700
  0.863000,  0.039800
  0.865000,  0.032200
  0.867000,  0.024700
  0.869000,  0.017500
  0.871000,  0.010300
  0.873000,  0.003500
  0.875000, -0.003100
  0.877000, -0.009600
  0.879000, -0.015700
  0.881000, -0.021700
  0.883000, -0.027300
  0.885000, -0.032800
  0.887000, -0.038000
  0.889000, -0.043000
  0.891000, -0.047800
  0.893000, -0.052400
  0.895000, -0.056800
  0.897000, -0.060900
  0.899000, -0.064900
  0.901000, -0.068600
  0.903000, -0.072000
  0.905000, -0.075400
  0.907000, -0.078500
  0.909000, -0.081300
  0.911000, -0.083800
  0.913000, -0.086100
  0.915000, -0.088200
  0.917000, -0.090100
  0.919000, -0.091700
  0.921000, -0.093200
  0.923000, -0.094500
  0.925000, -0.095500
  0.927000, -0.096400
  0.929000, -0.097100
  0.931000, -0.097500
  0.933000, -0.097700
  0.935000, -0.097800
  0.937000, -0.097600
  0.939000, -0.097300
  0.941000, -0.096800
  0.943000, -0.096100
  0.945000, -0.095200
  0.947000, -0.094100
  0.949000, -0.092900
  0.951000, -0.091500
  0.953000, -0.090000
  0.955000, -0.088400
  0.957000, -0.086600
  0.959000, -0.084700
  0.961000, -0.082500
  0.963000, -0.080300
  0.965000, -0.078000
  0.967000, -0.075400
  0.969000, -0.072800
  0.971000, -0.070100
  0.973000, -0.067400
  0.975000, -0.064400
  0.977000, -0.061400
  0.979000, -0.058400
  0.981000, -0.055200
  0.983000, -0.052000
  0.985000, -0.048600
  0.987000, -0.045200
  0.989000, -0.041700
  0.991000, -0.038200
  0.993000, -0.034600
  0.995000, -0.031000
  0.997000, -0.027400
  0.999000, -0.023800
  1.001000, -0.020100
  1.003000, -0.016300
  1.005000, -0.012500
  1.007000, -0.008800
  1.009000, -0.005000
  1.011000, -0.001200
  1.013000,  0.002600
  1.015000,  0.006300
  1.017000,  0.010100
  1.019000,  0.013800
  1.021000,  0.017600
  1.023000,  0.021400
  1.025000,  0.025200
  1.027000,  0.028900
  1.029000,  0.032600
  1.031000,  0.036300
  1.033000,  0.039900
  1.035000,  0.043700
  1.037000,  0.047300
  1.039000,  0.050900
  1.041000,  0.054500
  1.043000,  0.058000
  1.045000,  0.061400
  1.047000,  0.064700
  1.049000,  0.068000
  1.051000,  0.071200
  1.053000,  0.074400
  1.055000,  0.077500
  1.057000,  0.080600
  1.059000,  0.083500
  1.061000,  0.086300
  1.063000,  0.089100
  1.065000,  0.091900
  1.067000,  0.094500
  1.069000,  0.096900
  1.071000,  0.099400
  1.073000,  0.101700
  1.075000,  0.103800
  1.077000,  0.105900
  1.079000,  0.107700
  1.081000,  0.109600
  1.083000,  0.111300
  1.085000,  0.112800
  1.087000,  0.114200
  1.089000,  0.115400
  1.091000,  0.116500
  1.093000,  0.117500
  1.095000,  0.118300
  1.097000,  0.118900
  1.099000,  0.119400
  1.101000,  0.119600
  1.103000,  0.119700
  1.105000,  0.119600
  1.107000,  0.119400
  1.109000,  0.119000
  1.111000,  0.118500
  1.113000,  0.118000
  1.115000,  0.117200
  1.117000,  0.116400
  1.119000,  0.115300
  1.121000,  0.114000
  1.123000,  0.112500
  1.125000,  0.111100
  1.127000,  0.109500
  1.129000,  0.107700
  1.131000,  0.105900
  1.133000,  0.104000
  1.135000,  0.101900
  1.137000,  0.099700
  1.139000,  0.097500
  1.141000,  0.095300
  1.143000,  0.092800
  1.145000,  0.090300
  1.147000,  0.087700
  1.149000,  0.085000
  1.151000,  0.082300
  1.153000,  0.079600
  1.155000,  0.076800
  1.157000,  0.074000
  1.159000,  0.071200
  1.161000,  0.068400
  1.163000,  0.065600
  1.165000,  0.062700
  1.167000,  0.059900
  1.169000,  0.057000
  1.171000,  0.054200
  1.173000,  0.051400
  1.175000,  0.048600
  1.177000,  0.045800
  1.179000,  0.043000
  1.181000,  0.040400
  1.183000,  0.037700
  1.185000,  0.035200
  1.187000,  0.032600
  1.189000,  0.030200
  1.191000,  0.027700
  1.193000,  0.025400
  1.195000,  0.023000
  1.197000,  0.020700
  1.199000,  0.018600
  1.201000,  0.016400
  1.203000,  0.014400
  1.205000,  0.012600
  1.207000,  0.010700
  1.209000,  0.008900
  1.211000,  0.007000
  1.213000,  0.005300
  1.215000,  0.003700
  1.217000,  0.002100
  1.219000,  0.000700
  1.221000, -0.000700
  1.223000, -0.002000
  1.225000, -0.003200
  1.227000, -0.004300
  1.229000, -0.005300
  1.231000, -0.006300
  1.233000, -0.007100
  1.235000, -0.007900
  1.237000, -0.008600
  1.239000, -0.009200
  1.241000, -0.009800
  1.243000, -0.010300
  1.245000, -0.010700
  1.247000, -0.011100
  1.249000, -0.011500
  1.251000, -0.011700
  1.253000, -0.011900
  1.255000, -0.012000
  1.257000, -0.012100
  1.259000, -0.012200
  1.261000, -0.012200
  1.263000, -0.012200
  1.265000, -0.012200
  1.267000, -0.012200
  1.269000, -0.012100
  1.271000, -0.012000
  1.273000, -0.011800
  1.275000, -0.011700
  1.277000, -0.011400
  1.279000, -0.011100
  1.281000, -0.010800
  1.283000, -0.010600
  1.285000, -0.010300
  1.287000, -0.010100
  1.289000, -0.010000
  1.291000, -0.009700
  1.293000, -0.009300
  1.295000, -0.009000
  1.297000, -0.008800
  1.299000, -0.008500
  1.301000, -0.008200
  1.303000, -0.007900
  1.305000, -0.007500
  1.307000, -0.007200
  1.309000, -0.006900
  1.311000, -0.006500
  1.313000, -0.006100
  1.315000, -0.005700
  1.317000, -0.005300
  1.319000, -0.004800
  1.321000, -0.004400
  1.323000, -0.003900
  1.325000, -0.003300
  1.327000, -0.002700
  1.329000, -0.002000
  1.331000, -0.001400
  1.333000, -0.000800
  1.335000, -0.000100
  1.337000,  0.000600
  1.339000,  0.001400
  1.341000,  0.002200
  1.343000,  0.003100
  1.345000,  0.003900
  1.347000,  0.004800
  1.349000,  0.005700
  1.351000,  0.006700
  1.353000,  0.007600
  1.355000,  0.008600
  1.357000,  0.009600
  1.359000,  0.010600
  1.361000,  0.011600
  1.363000,  0.012500
  1.365000,  0.013500
  1.367000,  0.014400
  1.369000,  0.015200
  1.371000,  0.016000
  1.373000,  0.016800
  1.375000,  0.017400
  1.377000,  0.017900
  1.379000,  0.018400
  1.381000,  0.018700
  1.383000,  0.018800
  1.385000,  0.018700
  1.387000,  0.018400
  1.389000,  0.017900
  1.391000,  0.017100
  1.393000,  0.016100
  1.395000,  0.014800
  1.397000,  0.013000
  1.399000,  0.010900
