# z (nm)   (kJ/mol)
  0.143000,  5.813100
  0.145000,  5.439600
  0.147000,  5.058000
  0.149000,  4.634900
  0.151000,  4.214400
  0.153000,  3.812200
  0.155000,  3.410000
  0.157000,  3.001600
  0.159000,  2.588000
  0.161000,  2.177000
  0.163000,  1.769400
  0.165000,  1.354600
  0.167000,  0.936700
  0.169000,  0.521300
  0.171000,  0.107300
  0.173000, -0.307700
  0.175000, -0.720500
  0.177000, -1.129200
  0.179000, -1.536000
  0.181000, -1.940000
  0.183000, -2.336000
  0.185000, -2.725900
  0.187000, -3.113300
  0.189000, -3.492800
  0.191000, -3.865600
  0.193000, -4.233600
  0.195000, -4.593800
  0.197000, -4.945700
  0.199000, -5.291300
  0.201000, -5.628900
  0.203000, -5.955800
  0.205000, -6.274300
  0.207000, -6.585300
  0.209000, -6.886600
  0.211000, -7.177100
  0.213000, -7.458800
  0.215000, -7.730100
  0.217000, -7.989600
  0.219000, -8.239300
  0.221000, -8.479000
  0.223000, -8.706800
  0.225000, -8.923200
  0.227000, -9.128300
  0.229000, -9.321800
  0.231000, -9.503300
  0.233000, -9.673000
  0.235000, -9.831300
  0.237000, -9.978000
  0.239000,-10.112900
  0.241000,-10.236200
  0.243000,-10.347500
  0.245000,-10.447300
  0.247000,-10.535500
  0.249000,-10.612300
  0.251000,-10.677800
  0.253000,-10.732000
  0.255000,-10.775500
  0.257000,-10.808500
  0.259000,-10.831000
  0.261000,-10.842700
  0.263000,-10.844200
  0.265000,-10.835900
  0.267000,-10.818000
  0.269000,-10.790900
  0.271000,-10.754800
  0.273000,-10.710500
  0.275000,-10.657900
  0.277000,-10.597400
  0.279000,-10.528900
  0.281000,-10.452900
  0.283000,-10.370400
  0.285000,-10.280600
  0.287000,-10.184600
  0.289000,-10.083000
  0.291000, -9.975300
  0.293000, -9.862300
  0.295000, -9.744700
  0.297000, -9.622600
  0.299000, -9.496000
  0.301000, -9.365200
  0.303000, -9.230600
  0.305000, -9.092500
  0.307000, -8.951100
  0.309000, -8.806700
  0.311000, -8.659300
  0.313000, -8.509200
  0.315000, -8.357100
  0.317000, -8.203000
  0.319000, -8.047000
  0.321000, -7.889200
  0.323000, -7.730100
  0.325000, -7.570000
  0.327000, -7.408600
  0.329000, -7.246100
  0.331000, -7.082700
  0.333000, -6.918400
  0.335000, -6.753600
  0.337000, -6.588500
  0.339000, -6.423000
  0.341000, -6.257400
  0.343000, -6.091900
  0.345000, -5.926400
  0.347000, -5.760800
  0.349000, -5.595500
  0.351000, -5.430500
  0.353000, -5.266200
  0.355000, -5.102400
  0.357000, -4.939400
  0.359000, -4.776900
  0.361000, -4.614800
  0.363000, -4.453300
  0.365000, -4.292700
  0.367000, -4.133200
  0.369000, -3.974500
  0.371000, -3.816700
  0.373000, -3.660200
  0.375000, -3.505100
  0.377000, -3.351100
  0.379000, -3.198300
  0.381000, -3.046800
  0.383000, -2.896600
  0.385000, -2.747400
  0.387000, -2.599600
  0.389000, -2.453900
  0.391000, -2.310200
  0.393000, -2.167600
  0.395000, -2.026700
  0.397000, -1.888000
  0.399000, -1.751300
  0.401000, -1.615900
  0.403000, -1.482300
  0.405000, -1.350900
  0.407000, -1.221800
  0.409000, -1.094700
  0.411000, -0.969700
  0.413000, -0.846600
  0.415000, -0.726000
  0.417000, -0.608500
  0.419000, -0.493200
  0.421000, -0.380000
  0.423000, -0.270200
  0.425000, -0.163100
  0.427000, -0.057900
  0.429000,  0.044400
  0.431000,  0.143300
  0.433000,  0.239400
  0.435000,  0.332800
  0.437000,  0.422900
  0.439000,  0.510400
  0.441000,  0.594600
  0.443000,  0.674900
  0.445000,  0.751900
  0.447000,  0.825800
  0.449000,  0.896400
  0.451000,  0.963700
  0.453000,  1.026900
  0.455000,  1.086500
  0.457000,  1.142900
  0.459000,  1.195600
  0.461000,  1.244200
  0.463000,  1.289000
  0.465000,  1.330200
  0.467000,  1.368000
  0.469000,  1.402100
  0.471000,  1.432500
  0.473000,  1.458900
  0.475000,  1.481600
  0.477000,  1.500700
  0.479000,  1.516200
  0.481000,  1.527900
  0.483000,  1.536100
  0.485000,  1.540800
  0.487000,  1.542100
  0.489000,  1.539500
  0.491000,  1.533600
  0.493000,  1.524600
  0.495000,  1.512100
  0.497000,  1.496200
  0.499000,  1.477400
  0.501000,  1.455600
  0.503000,  1.431000
  0.505000,  1.403500
  0.507000,  1.372900
  0.509000,  1.339600
  0.511000,  1.303800
  0.513000,  1.266000
  0.515000,  1.225800
  0.517000,  1.183500
  0.519000,  1.139400
  0.521000,  1.093300
  0.523000,  1.045000
  0.525000,  0.995400
  0.527000,  0.944900
  0.529000,  0.892900
  0.531000,  0.840400
  0.533000,  0.786700
  0.535000,  0.731500
  0.537000,  0.676100
  0.539000,  0.620300
  0.541000,  0.563300
  0.543000,  0.505600
  0.545000,  0.448400
  0.547000,  0.391400
  0.549000,  0.334500
  0.551000,  0.278300
  0.553000,  0.221900
  0.555000,  0.165300
  0.557000,  0.109500
  0.559000,  0.054600
  0.561000, -0.000100
  0.563000, -0.053800
  0.565000, -0.106000
  0.567000, -0.157400
  0.569000, -0.207700
  0.571000, -0.256500
  0.573000, -0.304100
  0.575000, -0.350100
  0.577000, -0.394400
  0.579000, -0.437400
  0.581000, -0.478800
  0.583000, -0.518700
  0.585000, -0.557200
  0.587000, -0.593600
  0.589000, -0.628300
  0.591000, -0.661200
  0.593000, -0.692300
  0.595000, -0.721500
  0.597000, -0.748800
  0.599000, -0.774100
  0.601000, -0.797600
  0.603000, -0.819400
  0.605000, -0.839400
  0.607000, -0.857400
  0.609000, -0.873700
  0.611000, -0.888100
  0.613000, -0.900800
  0.615000, -0.911600
  0.617000, -0.920600
  0.619000, -0.927900
  0.621000, -0.933500
  0.623000, -0.937500
  0.625000, -0.939800
  0.627000, -0.940500
  0.629000, -0.939600
  0.631000, -0.937200
  0.633000, -0.933300
  0.635000, -0.928100
  0.637000, -0.921400
  0.639000, -0.913300
  0.641000, -0.903900
  0.643000, -0.893300
  0.645000, -0.881600
  0.647000, -0.868600
  0.649000, -0.854600
  0.651000, -0.839400
  0.653000, -0.823200
  0.655000, -0.806000
  0.657000, -0.788100
  0.659000, -0.769300
  0.661000, -0.749600
  0.663000, -0.729400
  0.665000, -0.708400
  0.667000, -0.686600
  0.669000, -0.664300
  0.671000, -0.641300
  0.673000, -0.617600
  0.675000, -0.593600
  0.677000, -0.569200
  0.679000, -0.544200
  0.681000, -0.518900
  0.683000, -0.493300
  0.685000, -0.467600
  0.687000, -0.441500
  0.689000, -0.415300
  0.691000, -0.389000
  0.693000, -0.362700
  0.695000, -0.336300
  0.697000, -0.310100
  0.699000, -0.283800
  0.701000, -0.257600
  0.703000, -0.231400
  0.705000, -0.205400
  0.707000, -0.179700
  0.709000, -0.154300
  0.711000, -0.129300
  0.713000, -0.104600
  0.715000, -0.080400
  0.717000, -0.056500
  0.719000, -0.033000
  0.721000, -0.010100
  0.723000,  0.012400
  0.725000,  0.034300
  0.727000,  0.055500
  0.729000,  0.075900
  0.731000,  0.095700
  0.733000,  0.115100
  0.735000,  0.133700
  0.737000,  0.151500
  0.739000,  0.168600
  0.741000,  0.184900
  0.743000,  0.200400
  0.745000,  0.215100
  0.747000,  0.228900
  0.749000,  0.242000
  0.751000,  0.254200
  0.753000,  0.265500
  0.755000,  0.275900
  0.757000,  0.285600
  0.759000,  0.294200
  0.761000,  0.301900
  0.763000,  0.308800
  0.765000,  0.314900
  0.767000,  0.320000
  0.769000,  0.324300
  0.771000,  0.327700
  0.773000,  0.330300
  0.775000,  0.332100
  0.777000,  0.333000
  0.779000,  0.333300
  0.781000,  0.332700
  0.783000,  0.331300
  0.785000,  0.329200
  0.787000,  0.326200
  0.789000,  0.322600
  0.791000,  0.318300
  0.793000,  0.313400
  0.795000,  0.307800
  0.797000,  0.301700
  0.799000,  0.294900
  0.801000,  0.287500
  0.803000,  0.279600
  0.805000,  0.271300
  0.807000,  0.262500
  0.809000,  0.253300
  0.811000,  0.243600
  0.813000,  0.233700
  0.815000,  0.223500
  0.817000,  0.212800
  0.819000,  0.201800
  0.821000,  0.190500
  0.823000,  0.178900
  0.825000,  0.166900
  0.827000,  0.154800
  0.829000,  0.142500
  0.831000,  0.130000
  0.833000,  0.117400
  0.835000,  0.104600
  0.837000,  0.091700
  0.839000,  0.078700
  0.841000,  0.065600
  0.843000,  0.052500
  0.845000,  0.039600
  0.847000,  0.026500
  0.849000,  0.013300
  0.851000,  0.000200
  0.853000, -0.013000
  0.855000, -0.026100
  0.857000, -0.039200
  0.859000, -0.052100
  0.861000, -0.064900
  0.863000, -0.077400
  0.865000, -0.089900
  0.867000, -0.102300
  0.869000, -0.114500
  0.871000, -0.126400
  0.873000, -0.138100
  0.875000, -0.149600
  0.877000, -0.160900
  0.879000, -0.172000
  0.881000, -0.182900
  0.883000, -0.193500
  0.885000, -0.203700
  0.887000, -0.213700
  0.889000, -0.223300
  0.891000, -0.232500
  0.893000, -0.241400
  0.895000, -0.249800
  0.897000, -0.257800
  0.899000, -0.265500
  0.901000, -0.272700
  0.903000, -0.279600
  0.905000, -0.286000
  0.907000, -0.291900
  0.909000, -0.297300
  0.911000, -0.302200
  0.913000, -0.306800
  0.915000, -0.310800
  0.917000, -0.314300
  0.919000, -0.317400
  0.921000, -0.320000
  0.923000, -0.322000
  0.925000, -0.323600
  0.927000, -0.324800
  0.929000, -0.325500
  0.931000, -0.325500
  0.933000, -0.325100
  0.935000, -0.324300
  0.937000, -0.323100
  0.939000, -0.321400
  0.941000, -0.319200
  0.943000, -0.316500
  0.945000, -0.313300
  0.947000, -0.309800
  0.949000, -0.305900
  0.951000, -0.301600
  0.953000, -0.297000
  0.955000, -0.292000
  0.957000, -0.286600
  0.959000, -0.281000
  0.961000, -0.275000
  0.963000, -0.268800
  0.965000, -0.262200
  0.967000, -0.255400
  0.969000, -0.248400
  0.971000, -0.241200
  0.973000, -0.233800
  0.975000, -0.226100
  0.977000, -0.218300
  0.979000, -0.210400
  0.981000, -0.202300
  0.983000, -0.194200
  0.985000, -0.186000
  0.987000, -0.177600
  0.989000, -0.169200
  0.991000, -0.160800
  0.993000, -0.152300
  0.995000, -0.143800
  0.997000, -0.135300
  0.999000, -0.126800
  1.001000, -0.118300
  1.003000, -0.110000
  1.005000, -0.101600
  1.007000, -0.093400
  1.009000, -0.085300
  1.011000, -0.077300
  1.013000, -0.069400
  1.015000, -0.061700
  1.017000, -0.054200
  1.019000, -0.046700
  1.021000, -0.039500
  1.023000, -0.032400
  1.025000, -0.025500
  1.027000, -0.018800
  1.029000, -0.012200
  1.031000, -0.005900
  1.033000,  0.000100
  1.035000,  0.006000
  1.037000,  0.011700
  1.039000,  0.017100
  1.041000,  0.022200
  1.043000,  0.027000
  1.045000,  0.031700
  1.047000,  0.036200
  1.049000,  0.040400
  1.051000,  0.044300
  1.053000,  0.047900
  1.055000,  0.051300
  1.057000,  0.054300
  1.059000,  0.057200
  1.061000,  0.059700
  1.063000,  0.062000
  1.065000,  0.064000
  1.067000,  0.065600
  1.069000,  0.066900
  1.071000,  0.068000
  1.073000,  0.068900
  1.075000,  0.069600
  1.077000,  0.070100
  1.079000,  0.070200
  1.081000,  0.070100
  1.083000,  0.070000
  1.085000,  0.069600
  1.087000,  0.068900
  1.089000,  0.068100
  1.091000,  0.067200
  1.093000,  0.066000
  1.095000,  0.064800
  1.097000,  0.063500
  1.099000,  0.061800
  1.101000,  0.060100
  1.103000,  0.058200
  1.105000,  0.056100
  1.107000,  0.054000
  1.109000,  0.051800
  1.111000,  0.049500
  1.113000,  0.047200
  1.115000,  0.044800
  1.117000,  0.042400
  1.119000,  0.040000
  1.121000,  0.037500
  1.123000,  0.035000
  1.125000,  0.032500
  1.127000,  0.030100
  1.129000,  0.027800
  1.131000,  0.025400
  1.133000,  0.022900
  1.135000,  0.020500
  1.137000,  0.018200
  1.139000,  0.016000
  1.141000,  0.013800
  1.143000,  0.011600
  1.145000,  0.009600
  1.147000,  0.007600
  1.149000,  0.005700
  1.151000,  0.003900
  1.153000,  0.002200
  1.155000,  0.000700
  1.157000, -0.000800
  1.159000, -0.002200
  1.161000, -0.003600
  1.163000, -0.004900
  1.165000, -0.006100
  1.167000, -0.007300
  1.169000, -0.008300
  1.171000, -0.009300
  1.173000, -0.010200
  1.175000, -0.011100
  1.177000, -0.012000
  1.179000, -0.012700
  1.181000, -0.013500
  1.183000, -0.014200
  1.185000, -0.014800
  1.187000, -0.015200
  1.189000, -0.015700
  1.191000, -0.016100
  1.193000, -0.016600
  1.195000, -0.017200
  1.197000, -0.017600
  1.199000, -0.017900
  1.201000, -0.018300
  1.203000, -0.018700
  1.205000, -0.019100
  1.207000, -0.019500
  1.209000, -0.020000
  1.211000, -0.020500
  1.213000, -0.021000
  1.215000, -0.021400
  1.217000, -0.021900
  1.219000, -0.022400
  1.221000, -0.023000
  1.223000, -0.023500
  1.225000, -0.024200
  1.227000, -0.024800
  1.229000, -0.025400
  1.231000, -0.025900
  1.233000, -0.026500
  1.235000, -0.027000
  1.237000, -0.027700
  1.239000, -0.028400
  1.241000, -0.029000
  1.243000, -0.029700
  1.245000, -0.030400
  1.247000, -0.031100
  1.249000, -0.031900
  1.251000, -0.032600
  1.253000, -0.033200
  1.255000, -0.033800
  1.257000, -0.034400
  1.259000, -0.035000
  1.261000, -0.035400
  1.263000, -0.035800
  1.265000, -0.036200
  1.267000, -0.036600
  1.269000, -0.036800
  1.271000, -0.036900
  1.273000, -0.037000
  1.275000, -0.037200
  1.277000, -0.037300
  1.279000, -0.037100
  1.281000, -0.036900
  1.283000, -0.036600
  1.285000, -0.036200
  1.287000, -0.035700
  1.289000, -0.035100
  1.291000, -0.034500
  1.293000, -0.033700
  1.295000, -0.032900
  1.297000, -0.031800
  1.299000, -0.030700
  1.301000, -0.029500
  1.303000, -0.028100
  1.305000, -0.026700
  1.307000, -0.025200
  1.309000, -0.023600
  1.311000, -0.021900
  1.313000, -0.020000
  1.315000, -0.017900
  1.317000, -0.015900
  1.319000, -0.013700
  1.321000, -0.011400
  1.323000, -0.009000
  1.325000, -0.006500
  1.327000, -0.004000
  1.329000, -0.001300
  1.331000,  0.001500
  1.333000,  0.004200
  1.335000,  0.007100
  1.337000,  0.010100
  1.339000,  0.013200
  1.341000,  0.016200
  1.343000,  0.019300
  1.345000,  0.022400
  1.347000,  0.025600
  1.349000,  0.028800
  1.351000,  0.032000
  1.353000,  0.035200
  1.355000,  0.038600
  1.357000,  0.041800
  1.359000,  0.045000
  1.361000,  0.048200
  1.363000,  0.051200
  1.365000,  0.054200
  1.367000,  0.057200
  1.369000,  0.060300
  1.371000,  0.063300
  1.373000,  0.066100
  1.375000,  0.068900
  1.377000,  0.071600
  1.379000,  0.074200
  1.381000,  0.076600
  1.383000,  0.078900
  1.385000,  0.081100
  1.387000,  0.083000
  1.389000,  0.084600
  1.391000,  0.086000
  1.393000,  0.087200
  1.395000,  0.088000
  1.397000,  0.088500
  1.399000,  0.088600
