# z (nm)   (kJ/mol)
  0.139000, 10.481200
  0.141000, 10.209700
  0.143000,  9.932100
  0.145000,  9.654700
  0.147000,  9.371800
  0.149000,  9.051300
  0.151000,  8.713600
  0.153000,  8.390900
  0.155000,  8.063700
  0.157000,  7.722300
  0.159000,  7.375500
  0.161000,  7.023900
  0.163000,  6.668200
  0.165000,  6.315400
  0.167000,  5.958700
  0.169000,  5.595200
  0.171000,  5.231400
  0.173000,  4.867300
  0.175000,  4.504100
  0.177000,  4.137000
  0.179000,  3.768800
  0.181000,  3.399200
  0.183000,  3.028700
  0.185000,  2.664700
  0.187000,  2.307100
  0.189000,  1.950200
  0.191000,  1.601100
  0.193000,  1.261200
  0.195000,  0.921600
  0.197000,  0.586500
  0.199000,  0.259000
  0.201000, -0.060100
  0.203000, -0.371700
  0.205000, -0.678600
  0.207000, -0.978200
  0.209000, -1.269500
  0.211000, -1.552400
  0.213000, -1.828200
  0.215000, -2.098200
  0.217000, -2.360200
  0.219000, -2.613500
  0.221000, -2.858600
  0.223000, -3.094600
  0.225000, -3.321500
  0.227000, -3.540200
  0.229000, -3.750000
  0.231000, -3.950100
  0.233000, -4.141100
  0.235000, -4.323800
  0.237000, -4.497800
  0.239000, -4.662700
  0.241000, -4.818700
  0.243000, -4.965300
  0.245000, -5.102400
  0.247000, -5.230700
  0.249000, -5.349600
  0.251000, -5.460400
  0.253000, -5.562600
  0.255000, -5.655800
  0.257000, -5.740100
  0.259000, -5.815500
  0.261000, -5.882800
  0.263000, -5.942500
  0.265000, -5.994200
  0.267000, -6.038000
  0.269000, -6.073700
  0.271000, -6.102100
  0.273000, -6.124200
  0.275000, -6.139800
  0.277000, -6.148400
  0.279000, -6.150500
  0.281000, -6.146400
  0.283000, -6.136100
  0.285000, -6.120900
  0.287000, -6.100500
  0.289000, -6.074000
  0.291000, -6.043400
  0.293000, -6.009800
  0.295000, -5.972700
  0.297000, -5.931100
  0.299000, -5.885400
  0.301000, -5.836300
  0.303000, -5.785000
  0.305000, -5.731500
  0.307000, -5.675100
  0.309000, -5.616600
  0.311000, -5.555900
  0.313000, -5.493000
  0.315000, -5.429100
  0.317000, -5.364500
  0.319000, -5.299200
  0.321000, -5.232400
  0.323000, -5.164600
  0.325000, -5.096300
  0.327000, -5.027700
  0.329000, -4.958700
  0.331000, -4.889300
  0.333000, -4.819600
  0.335000, -4.750000
  0.337000, -4.680700
  0.339000, -4.611300
  0.341000, -4.541900
  0.343000, -4.472500
  0.345000, -4.403100
  0.347000, -4.333800
  0.349000, -4.264800
  0.351000, -4.196000
  0.353000, -4.127300
  0.355000, -4.059000
  0.357000, -3.991100
  0.359000, -3.923100
  0.361000, -3.855300
  0.363000, -3.787800
  0.365000, -3.720500
  0.367000, -3.653600
  0.369000, -3.586700
  0.371000, -3.519800
  0.373000, -3.453100
  0.375000, -3.386500
  0.377000, -3.319900
  0.379000, -3.253200
  0.381000, -3.186600
  0.383000, -3.120200
  0.385000, -3.053800
  0.387000, -2.987300
  0.389000, -2.920700
  0.391000, -2.854200
  0.393000, -2.787800
  0.395000, -2.721600
  0.397000, -2.655200
  0.399000, -2.588700
  0.401000, -2.522500
  0.403000, -2.456100
  0.405000, -2.389700
  0.407000, -2.323500
  0.409000, -2.257400
  0.411000, -2.191600
  0.413000, -2.125900
  0.415000, -2.060400
  0.417000, -1.995200
  0.419000, -1.930000
  0.421000, -1.865200
  0.423000, -1.800900
  0.425000, -1.736700
  0.427000, -1.673200
  0.429000, -1.610100
  0.431000, -1.547500
  0.433000, -1.485700
  0.435000, -1.424500
  0.437000, -1.363800
  0.439000, -1.303800
  0.441000, -1.244500
  0.443000, -1.186200
  0.445000, -1.129400
  0.447000, -1.073500
  0.449000, -1.018200
  0.451000, -0.964200
  0.453000, -0.911700
  0.455000, -0.860400
  0.457000, -0.810300
  0.459000, -0.761400
  0.461000, -0.714000
  0.463000, -0.668100
  0.465000, -0.624100
  0.467000, -0.581700
  0.469000, -0.540800
  0.471000, -0.501600
  0.473000, -0.464500
  0.475000, -0.429000
  0.477000, -0.395200
  0.479000, -0.363300
  0.481000, -0.333700
  0.483000, -0.306300
  0.485000, -0.280600
  0.487000, -0.256600
  0.489000, -0.234500
  0.491000, -0.214300
  0.493000, -0.196200
  0.495000, -0.180000
  0.497000, -0.165600
  0.499000, -0.153400
  0.501000, -0.143000
  0.503000, -0.134200
  0.505000, -0.127400
  0.507000, -0.122300
  0.509000, -0.118800
  0.511000, -0.117000
  0.513000, -0.117000
  0.515000, -0.118400
  0.517000, -0.120900
  0.519000, -0.125100
  0.521000, -0.130500
  0.523000, -0.137100
  0.525000, -0.144900
  0.527000, -0.153700
  0.529000, -0.163700
  0.531000, -0.174700
  0.533000, -0.186600
  0.535000, -0.199000
  0.537000, -0.212200
  0.539000, -0.226100
  0.541000, -0.240500
  0.543000, -0.255100
  0.545000, -0.270200
  0.547000, -0.285600
  0.549000, -0.301100
  0.551000, -0.316600
  0.553000, -0.332000
  0.555000, -0.347600
  0.557000, -0.362900
  0.559000, -0.378000
  0.561000, -0.393100
  0.563000, -0.407700
  0.565000, -0.421900
  0.567000, -0.435700
  0.569000, -0.449100
  0.571000, -0.461900
  0.573000, -0.473900
  0.575000, -0.485300
  0.577000, -0.496200
  0.579000, -0.506400
  0.581000, -0.515800
  0.583000, -0.524500
  0.585000, -0.532600
  0.587000, -0.539700
  0.589000, -0.545900
  0.591000, -0.551400
  0.593000, -0.555900
  0.595000, -0.559500
  0.597000, -0.562300
  0.599000, -0.564100
  0.601000, -0.565100
  0.603000, -0.565200
  0.605000, -0.564400
  0.607000, -0.562700
  0.609000, -0.560300
  0.611000, -0.556900
  0.613000, -0.552700
  0.615000, -0.547600
  0.617000, -0.541700
  0.619000, -0.535000
  0.621000, -0.527700
  0.623000, -0.519600
  0.625000, -0.510800
  0.627000, -0.501300
  0.629000, -0.491200
  0.631000, -0.480600
  0.633000, -0.469300
  0.635000, -0.457500
  0.637000, -0.445200
  0.639000, -0.432400
  0.641000, -0.419100
  0.643000, -0.405400
  0.645000, -0.391200
  0.647000, -0.376700
  0.649000, -0.361900
  0.651000, -0.346900
  0.653000, -0.331600
  0.655000, -0.316100
  0.657000, -0.300500
  0.659000, -0.284700
  0.661000, -0.268800
  0.663000, -0.252800
  0.665000, -0.236800
  0.667000, -0.220900
  0.669000, -0.205000
  0.671000, -0.189100
  0.673000, -0.173300
  0.675000, -0.157600
  0.677000, -0.142200
  0.679000, -0.126800
  0.681000, -0.111600
  0.683000, -0.096600
  0.685000, -0.081900
  0.687000, -0.067400
  0.689000, -0.053200
  0.691000, -0.039300
  0.693000, -0.025700
  0.695000, -0.012400
  0.697000,  0.000700
  0.699000,  0.013500
  0.701000,  0.025900
  0.703000,  0.037800
  0.705000,  0.049300
  0.707000,  0.060200
  0.709000,  0.070800
  0.711000,  0.081000
  0.713000,  0.090900
  0.715000,  0.100300
  0.717000,  0.109300
  0.719000,  0.117900
  0.721000,  0.125900
  0.723000,  0.133500
  0.725000,  0.140600
  0.727000,  0.147400
  0.729000,  0.153700
  0.731000,  0.159500
  0.733000,  0.164700
  0.735000,  0.169700
  0.737000,  0.174400
  0.739000,  0.178400
  0.741000,  0.182100
  0.743000,  0.185300
  0.745000,  0.188000
  0.747000,  0.190400
  0.749000,  0.192400
  0.751000,  0.193800
  0.753000,  0.194800
  0.755000,  0.195500
  0.757000,  0.195700
  0.759000,  0.195500
  0.761000,  0.195000
  0.763000,  0.194300
  0.765000,  0.193200
  0.767000,  0.191600
  0.769000,  0.189600
  0.771000,  0.187400
  0.773000,  0.184700
  0.775000,  0.181700
  0.777000,  0.178400
  0.779000,  0.174800
  0.781000,  0.170900
  0.783000,  0.166800
  0.785000,  0.162300
  0.787000,  0.157700
  0.789000,  0.153000
  0.791000,  0.147900
  0.793000,  0.142600
  0.795000,  0.137200
  0.797000,  0.131600
  0.799000,  0.126000
  0.801000,  0.120200
  0.803000,  0.114200
  0.805000,  0.108100
  0.807000,  0.101900
  0.809000,  0.095600
  0.811000,  0.089300
  0.813000,  0.082900
  0.815000,  0.076400
  0.817000,  0.070000
  0.819000,  0.063500
  0.821000,  0.057000
  0.823000,  0.050500
  0.825000,  0.044000
  0.827000,  0.037500
  0.829000,  0.031100
  0.831000,  0.024900
  0.833000,  0.018700
  0.835000,  0.012600
  0.837000,  0.006600
  0.839000,  0.000700
  0.841000, -0.005100
  0.843000, -0.010800
  0.845000, -0.016400
  0.847000, -0.021800
  0.849000, -0.027100
  0.851000, -0.032100
  0.853000, -0.037000
  0.855000, -0.041900
  0.857000, -0.046600
  0.859000, -0.051200
  0.861000, -0.055500
  0.863000, -0.059800
  0.865000, -0.063900
  0.867000, -0.067700
  0.869000, -0.071200
  0.871000, -0.074700
  0.873000, -0.077900
  0.875000, -0.081000
  0.877000, -0.083900
  0.879000, -0.086600
  0.881000, -0.089100
  0.883000, -0.091400
  0.885000, -0.093600
  0.887000, -0.095700
  0.889000, -0.097700
  0.891000, -0.099500
  0.893000, -0.101300
  0.895000, -0.102900
  0.897000, -0.104300
  0.899000, -0.105600
  0.901000, -0.106700
  0.903000, -0.107700
  0.905000, -0.108700
  0.907000, -0.109600
  0.909000, -0.110400
  0.911000, -0.111100
  0.913000, -0.111800
  0.915000, -0.112300
  0.917000, -0.112900
  0.919000, -0.113400
  0.921000, -0.113700
  0.923000, -0.114100
  0.925000, -0.114500
  0.927000, -0.114800
  0.929000, -0.115200
  0.931000, -0.115400
  0.933000, -0.115600
  0.935000, -0.115700
  0.937000, -0.116000
  0.939000, -0.116300
  0.941000, -0.116400
  0.943000, -0.116600
  0.945000, -0.116800
  0.947000, -0.117000
  0.949000, -0.117200
  0.951000, -0.117600
  0.953000, -0.117800
  0.955000, -0.118100
  0.957000, -0.118200
  0.959000, -0.118500
  0.961000, -0.118700
  0.963000, -0.118800
  0.965000, -0.118900
  0.967000, -0.119100
  0.969000, -0.119400
  0.971000, -0.119600
  0.973000, -0.119800
  0.975000, -0.119900
  0.977000, -0.120100
  0.979000, -0.120200
  0.981000, -0.120300
  0.983000, -0.120300
  0.985000, -0.120400
  0.987000, -0.120300
  0.989000, -0.120200
  0.991000, -0.120000
  0.993000, -0.119800
  0.995000, -0.119600
  0.997000, -0.119400
  0.999000, -0.119100
  1.001000, -0.118800
  1.003000, -0.118600
  1.005000, -0.118200
  1.007000, -0.117800
  1.009000, -0.117200
  1.011000, -0.116600
  1.013000, -0.116000
  1.015000, -0.115400
  1.017000, -0.114700
  1.019000, -0.113900
  1.021000, -0.113100
  1.023000, -0.112300
  1.025000, -0.111400
  1.027000, -0.110500
  1.029000, -0.109500
  1.031000, -0.108500
  1.033000, -0.107500
  1.035000, -0.106400
  1.037000, -0.105200
  1.039000, -0.103900
  1.041000, -0.102700
  1.043000, -0.101400
  1.045000, -0.100100
  1.047000, -0.098700
  1.049000, -0.097400
  1.051000, -0.096100
  1.053000, -0.094800
  1.055000, -0.093400
  1.057000, -0.092100
  1.059000, -0.090800
  1.061000, -0.089400
  1.063000, -0.088100
  1.065000, -0.086900
  1.067000, -0.085600
  1.069000, -0.084300
  1.071000, -0.083000
  1.073000, -0.081800
  1.075000, -0.080600
  1.077000, -0.079400
  1.079000, -0.078200
  1.081000, -0.077200
  1.083000, -0.076200
  1.085000, -0.075300
  1.087000, -0.074300
  1.089000, -0.073500
  1.091000, -0.072700
  1.093000, -0.072000
  1.095000, -0.071400
  1.097000, -0.070900
  1.099000, -0.070600
  1.101000, -0.070300
  1.103000, -0.070000
  1.105000, -0.069700
  1.107000, -0.069500
  1.109000, -0.069400
  1.111000, -0.069400
  1.113000, -0.069400
  1.115000, -0.069500
  1.117000, -0.069600
  1.119000, -0.069900
  1.121000, -0.070200
  1.123000, -0.070600
  1.125000, -0.070900
  1.127000, -0.071200
  1.129000, -0.071600
  1.131000, -0.072100
  1.133000, -0.072600
  1.135000, -0.073100
  1.137000, -0.073600
  1.139000, -0.074100
  1.141000, -0.074500
  1.143000, -0.074800
  1.145000, -0.075200
  1.147000, -0.075600
  1.149000, -0.075900
  1.151000, -0.076300
  1.153000, -0.076500
  1.155000, -0.076700
  1.157000, -0.076800
  1.159000, -0.076900
  1.161000, -0.076900
  1.163000, -0.076700
  1.165000, -0.076600
  1.167000, -0.076300
  1.169000, -0.076000
  1.171000, -0.075600
  1.173000, -0.075200
  1.175000, -0.074800
  1.177000, -0.074200
  1.179000, -0.073500
  1.181000, -0.072700
  1.183000, -0.071900
  1.185000, -0.071000
  1.187000, -0.070000
  1.189000, -0.068900
  1.191000, -0.067700
  1.193000, -0.066600
  1.195000, -0.065500
  1.197000, -0.064300
  1.199000, -0.063000
  1.201000, -0.061800
  1.203000, -0.060600
  1.205000, -0.059400
  1.207000, -0.058000
  1.209000, -0.056600
  1.211000, -0.055200
  1.213000, -0.053800
  1.215000, -0.052500
  1.217000, -0.051200
  1.219000, -0.049900
  1.221000, -0.048500
  1.223000, -0.047100
  1.225000, -0.045600
  1.227000, -0.044100
  1.229000, -0.042700
  1.231000, -0.041400
  1.233000, -0.040000
  1.235000, -0.038600
  1.237000, -0.037200
  1.239000, -0.036000
  1.241000, -0.034800
  1.243000, -0.033500
  1.245000, -0.032200
  1.247000, -0.030800
  1.249000, -0.029400
  1.251000, -0.028100
  1.253000, -0.026800
  1.255000, -0.025500
  1.257000, -0.024200
  1.259000, -0.022900
  1.261000, -0.021600
  1.263000, -0.020300
  1.265000, -0.019000
  1.267000, -0.017700
  1.269000, -0.016500
  1.271000, -0.015200
  1.273000, -0.013800
  1.275000, -0.012300
  1.277000, -0.010900
  1.279000, -0.009500
  1.281000, -0.008100
  1.283000, -0.006600
  1.285000, -0.005300
  1.287000, -0.004000
  1.289000, -0.002700
  1.291000, -0.001300
  1.293000,  0.000000
  1.295000,  0.001300
  1.297000,  0.002600
  1.299000,  0.004000
  1.301000,  0.005300
  1.303000,  0.006600
  1.305000,  0.007900
  1.307000,  0.009100
  1.309000,  0.010300
  1.311000,  0.011400
  1.313000,  0.012600
  1.315000,  0.013700
  1.317000,  0.014900
  1.319000,  0.015900
  1.321000,  0.017000
  1.323000,  0.017900
  1.325000,  0.018900
  1.327000,  0.019900
  1.329000,  0.020800
  1.331000,  0.021800
  1.333000,  0.022700
  1.335000,  0.023600
  1.337000,  0.024500
  1.339000,  0.025400
  1.341000,  0.026300
  1.343000,  0.027200
  1.345000,  0.028100
  1.347000,  0.029000
  1.349000,  0.030000
  1.351000,  0.031000
  1.353000,  0.032000
  1.355000,  0.033000
  1.357000,  0.034000
  1.359000,  0.035000
  1.361000,  0.035900
  1.363000,  0.036800
  1.365000,  0.037800
  1.367000,  0.038900
  1.369000,  0.040000
  1.371000,  0.040900
  1.373000,  0.041900
  1.375000,  0.042800
  1.377000,  0.043800
  1.379000,  0.044700
  1.381000,  0.045500
  1.383000,  0.046300
  1.385000,  0.047000
  1.387000,  0.047500
  1.389000,  0.047700
  1.391000,  0.047800
  1.393000,  0.047800
  1.395000,  0.047400
  1.397000,  0.046700
  1.399000,  0.045900
