# z (nm)   (kJ/mol)
  0.115000,  7.009400
  0.123000,  6.396200
  0.125000,  6.028700
  0.127000,  5.642100
  0.129000,  5.247600
  0.131000,  4.842300
  0.133000,  4.427800
  0.135000,  4.002700
  0.137000,  3.587600
  0.139000,  3.168500
  0.141000,  2.745400
  0.143000,  2.328000
  0.145000,  1.902900
  0.147000,  1.467700
  0.149000,  1.032300
  0.151000,  0.600800
  0.153000,  0.166300
  0.155000, -0.270200
  0.157000, -0.703200
  0.159000, -1.134600
  0.161000, -1.563000
  0.163000, -1.987000
  0.165000, -2.405800
  0.167000, -2.819500
  0.169000, -3.227900
  0.171000, -3.630300
  0.173000, -4.027700
  0.175000, -4.419600
  0.177000, -4.803800
  0.179000, -5.178600
  0.181000, -5.542300
  0.183000, -5.893400
  0.185000, -6.235300
  0.187000, -6.568400
  0.189000, -6.890500
  0.191000, -7.202700
  0.193000, -7.504100
  0.195000, -7.793000
  0.197000, -8.070600
  0.199000, -8.335200
  0.201000, -8.586600
  0.203000, -8.826500
  0.205000, -9.053200
  0.207000, -9.266600
  0.209000, -9.468500
  0.211000, -9.657400
  0.213000, -9.834000
  0.215000, -9.997600
  0.217000,-10.148000
  0.219000,-10.285900
  0.221000,-10.410900
  0.223000,-10.522500
  0.225000,-10.621600
  0.227000,-10.708400
  0.229000,-10.783100
  0.231000,-10.846100
  0.233000,-10.896900
  0.235000,-10.936100
  0.237000,-10.964500
  0.239000,-10.982200
  0.241000,-10.989200
  0.243000,-10.986300
  0.245000,-10.973200
  0.247000,-10.950300
  0.249000,-10.918700
  0.251000,-10.879500
  0.253000,-10.831700
  0.255000,-10.775200
  0.257000,-10.712800
  0.259000,-10.644100
  0.261000,-10.568500
  0.263000,-10.487500
  0.265000,-10.401300
  0.267000,-10.309900
  0.269000,-10.214900
  0.271000,-10.116300
  0.273000,-10.013200
  0.275000, -9.906800
  0.277000, -9.798100
  0.279000, -9.686800
  0.281000, -9.573200
  0.283000, -9.458300
  0.285000, -9.342100
  0.287000, -9.225000
  0.289000, -9.107000
  0.291000, -8.988300
  0.293000, -8.869500
  0.295000, -8.750800
  0.297000, -8.632100
  0.299000, -8.513800
  0.301000, -8.396100
  0.303000, -8.278700
  0.305000, -8.161900
  0.307000, -8.045900
  0.309000, -7.930600
  0.311000, -7.816700
  0.313000, -7.703500
  0.315000, -7.591200
  0.317000, -7.479900
  0.319000, -7.369600
  0.321000, -7.260500
  0.323000, -7.152300
  0.325000, -7.045200
  0.327000, -6.939200
  0.329000, -6.834100
  0.331000, -6.729700
  0.333000, -6.626200
  0.335000, -6.523500
  0.337000, -6.421200
  0.339000, -6.319500
  0.341000, -6.218500
  0.343000, -6.118000
  0.345000, -6.018000
  0.347000, -5.918400
  0.349000, -5.819100
  0.351000, -5.719800
  0.353000, -5.620600
  0.355000, -5.521400
  0.357000, -5.422200
  0.359000, -5.322900
  0.361000, -5.223600
  0.363000, -5.124100
  0.365000, -5.024400
  0.367000, -4.924300
  0.369000, -4.824100
  0.371000, -4.723700
  0.373000, -4.622700
  0.375000, -4.521200
  0.377000, -4.419400
  0.379000, -4.317200
  0.381000, -4.214600
  0.383000, -4.111600
  0.385000, -4.008100
  0.387000, -3.904000
  0.389000, -3.799800
  0.391000, -3.695600
  0.393000, -3.590800
  0.395000, -3.485900
  0.397000, -3.380300
  0.399000, -3.274300
  0.401000, -3.168600
  0.403000, -3.062700
  0.405000, -2.956500
  0.407000, -2.850300
  0.409000, -2.744400
  0.411000, -2.638300
  0.413000, -2.532300
  0.415000, -2.426300
  0.417000, -2.321100
  0.419000, -2.216500
  0.421000, -2.112100
  0.423000, -2.009200
  0.425000, -1.907100
  0.427000, -1.805800
  0.429000, -1.705900
  0.431000, -1.607100
  0.433000, -1.510100
  0.435000, -1.414900
  0.437000, -1.320900
  0.439000, -1.228100
  0.441000, -1.136700
  0.443000, -1.047400
  0.445000, -0.960000
  0.447000, -0.874600
  0.449000, -0.791700
  0.451000, -0.711100
  0.453000, -0.633000
  0.455000, -0.557200
  0.457000, -0.483700
  0.459000, -0.412900
  0.461000, -0.345200
  0.463000, -0.280100
  0.465000, -0.217800
  0.467000, -0.158600
  0.469000, -0.102100
  0.471000, -0.048600
  0.473000,  0.001800
  0.475000,  0.049000
  0.477000,  0.093000
  0.479000,  0.134100
  0.481000,  0.172000
  0.483000,  0.206800
  0.485000,  0.238600
  0.487000,  0.267400
  0.489000,  0.293200
  0.491000,  0.316000
  0.493000,  0.335800
  0.495000,  0.352800
  0.497000,  0.367000
  0.499000,  0.378200
  0.501000,  0.387000
  0.503000,  0.393500
  0.505000,  0.397500
  0.507000,  0.398800
  0.509000,  0.397600
  0.511000,  0.394400
  0.513000,  0.388800
  0.515000,  0.380900
  0.517000,  0.371000
  0.519000,  0.359600
  0.521000,  0.346700
  0.523000,  0.331900
  0.525000,  0.315300
  0.527000,  0.297100
  0.529000,  0.277800
  0.531000,  0.257300
  0.533000,  0.235900
  0.535000,  0.213500
  0.537000,  0.189600
  0.539000,  0.164800
  0.541000,  0.139700
  0.543000,  0.114500
  0.545000,  0.089000
  0.547000,  0.063400
  0.549000,  0.037500
  0.551000,  0.011700
  0.553000, -0.014200
  0.555000, -0.040300
  0.557000, -0.066000
  0.559000, -0.091600
  0.561000, -0.117000
  0.563000, -0.141900
  0.565000, -0.166600
  0.567000, -0.191100
  0.569000, -0.215200
  0.571000, -0.238500
  0.573000, -0.261000
  0.575000, -0.282800
  0.577000, -0.304000
  0.579000, -0.324600
  0.581000, -0.344200
  0.583000, -0.363100
  0.585000, -0.381200
  0.587000, -0.398500
  0.589000, -0.414900
  0.591000, -0.430300
  0.593000, -0.444800
  0.595000, -0.458400
  0.597000, -0.471100
  0.599000, -0.483000
  0.601000, -0.494000
  0.603000, -0.504000
  0.605000, -0.513100
  0.607000, -0.521400
  0.609000, -0.529000
  0.611000, -0.535600
  0.613000, -0.541400
  0.615000, -0.546400
  0.617000, -0.550500
  0.619000, -0.553900
  0.621000, -0.556700
  0.623000, -0.558600
  0.625000, -0.559900
  0.627000, -0.560400
  0.629000, -0.560200
  0.631000, -0.559400
  0.633000, -0.558000
  0.635000, -0.555900
  0.637000, -0.553100
  0.639000, -0.549800
  0.641000, -0.546000
  0.643000, -0.541600
  0.645000, -0.536700
  0.647000, -0.531300
  0.649000, -0.525500
  0.651000, -0.519200
  0.653000, -0.512400
  0.655000, -0.505300
  0.657000, -0.497700
  0.659000, -0.489700
  0.661000, -0.481300
  0.663000, -0.472600
  0.665000, -0.463500
  0.667000, -0.454100
  0.669000, -0.444400
  0.671000, -0.434400
  0.673000, -0.424100
  0.675000, -0.413500
  0.677000, -0.402500
  0.679000, -0.391300
  0.681000, -0.379800
  0.683000, -0.368000
  0.685000, -0.356000
  0.687000, -0.343700
  0.689000, -0.331300
  0.691000, -0.318600
  0.693000, -0.305700
  0.695000, -0.292600
  0.697000, -0.279300
  0.699000, -0.265900
  0.701000, -0.252300
  0.703000, -0.238500
  0.705000, -0.224600
  0.707000, -0.210700
  0.709000, -0.196500
  0.711000, -0.182300
  0.713000, -0.167900
  0.715000, -0.153600
  0.717000, -0.139200
  0.719000, -0.124800
  0.721000, -0.110400
  0.723000, -0.096000
  0.725000, -0.081600
  0.727000, -0.067300
  0.729000, -0.053100
  0.731000, -0.039000
  0.733000, -0.025100
  0.735000, -0.011200
  0.737000,  0.002500
  0.739000,  0.015900
  0.741000,  0.029100
  0.743000,  0.042000
  0.745000,  0.054800
  0.747000,  0.067300
  0.749000,  0.079600
  0.751000,  0.091400
  0.753000,  0.102700
  0.755000,  0.113700
  0.757000,  0.124300
  0.759000,  0.134500
  0.761000,  0.144300
  0.763000,  0.153500
  0.765000,  0.162300
  0.767000,  0.170600
  0.769000,  0.178400
  0.771000,  0.185600
  0.773000,  0.192200
  0.775000,  0.198400
  0.777000,  0.204000
  0.779000,  0.208900
  0.781000,  0.213300
  0.783000,  0.217000
  0.785000,  0.220200
  0.787000,  0.222800
  0.789000,  0.224800
  0.791000,  0.226200
  0.793000,  0.227100
  0.795000,  0.227300
  0.797000,  0.226900
  0.799000,  0.225900
  0.801000,  0.224400
  0.803000,  0.222300
  0.805000,  0.219700
  0.807000,  0.216600
  0.809000,  0.212900
  0.811000,  0.208800
  0.813000,  0.204300
  0.815000,  0.199400
  0.817000,  0.194100
  0.819000,  0.188400
  0.821000,  0.182200
  0.823000,  0.175700
  0.825000,  0.168900
  0.827000,  0.161700
  0.829000,  0.154200
  0.831000,  0.146700
  0.833000,  0.139000
  0.835000,  0.131100
  0.837000,  0.122900
  0.839000,  0.114600
  0.841000,  0.106200
  0.843000,  0.097800
  0.845000,  0.089400
  0.847000,  0.080800
  0.849000,  0.072200
  0.851000,  0.063700
  0.853000,  0.055300
  0.855000,  0.047000
  0.857000,  0.038700
  0.859000,  0.030600
  0.861000,  0.022700
  0.863000,  0.015000
  0.865000,  0.007200
  0.867000, -0.000400
  0.869000, -0.007700
  0.871000, -0.014900
  0.873000, -0.021900
  0.875000, -0.028800
  0.877000, -0.035300
  0.879000, -0.041500
  0.881000, -0.047500
  0.883000, -0.053300
  0.885000, -0.058800
  0.887000, -0.064100
  0.889000, -0.069300
  0.891000, -0.074200
  0.893000, -0.078800
  0.895000, -0.083200
  0.897000, -0.087300
  0.899000, -0.091100
  0.901000, -0.094800
  0.903000, -0.098200
  0.905000, -0.101600
  0.907000, -0.104700
  0.909000, -0.107500
  0.911000, -0.110100
  0.913000, -0.112600
  0.915000, -0.114900
  0.917000, -0.117000
  0.919000, -0.118900
  0.921000, -0.120500
  0.923000, -0.122000
  0.925000, -0.123400
  0.927000, -0.124600
  0.929000, -0.125600
  0.931000, -0.126500
  0.933000, -0.127200
  0.935000, -0.127700
  0.937000, -0.128100
  0.939000, -0.128500
  0.941000, -0.128800
  0.943000, -0.128800
  0.945000, -0.128700
  0.947000, -0.128400
  0.949000, -0.127900
  0.951000, -0.127300
  0.953000, -0.126600
  0.955000, -0.125700
  0.957000, -0.124800
  0.959000, -0.123900
  0.961000, -0.122700
  0.963000, -0.121400
  0.965000, -0.120000
  0.967000, -0.118600
  0.969000, -0.117100
  0.971000, -0.115500
  0.973000, -0.113700
  0.975000, -0.111800
  0.977000, -0.109800
  0.979000, -0.107700
  0.981000, -0.105500
  0.983000, -0.103200
  0.985000, -0.100900
  0.987000, -0.098400
  0.989000, -0.095800
  0.991000, -0.093100
  0.993000, -0.090400
  0.995000, -0.087700
  0.997000, -0.085000
  0.999000, -0.082200
  1.001000, -0.079300
  1.003000, -0.076400
  1.005000, -0.073500
  1.007000, -0.070500
  1.009000, -0.067500
  1.011000, -0.064400
  1.013000, -0.061300
  1.015000, -0.058400
  1.017000, -0.055600
  1.019000, -0.052600
  1.021000, -0.049700
  1.023000, -0.046900
  1.025000, -0.044100
  1.027000, -0.041200
  1.029000, -0.038300
  1.031000, -0.035500
  1.033000, -0.032800
  1.035000, -0.030200
  1.037000, -0.027500
  1.039000, -0.025000
  1.041000, -0.022500
  1.043000, -0.020100
  1.045000, -0.017800
  1.047000, -0.015500
  1.049000, -0.013400
  1.051000, -0.011300
  1.053000, -0.009300
  1.055000, -0.007400
  1.057000, -0.005500
  1.059000, -0.003800
  1.061000, -0.002100
  1.063000, -0.000500
  1.065000,  0.001000
  1.067000,  0.002400
  1.069000,  0.003700
  1.071000,  0.004800
  1.073000,  0.005900
  1.075000,  0.007000
  1.077000,  0.008000
  1.079000,  0.008900
  1.081000,  0.009600
  1.083000,  0.010300
  1.085000,  0.010800
  1.087000,  0.011300
  1.089000,  0.011800
  1.091000,  0.012300
  1.093000,  0.012800
  1.095000,  0.013200
  1.097000,  0.013600
  1.099000,  0.013900
  1.101000,  0.014100
  1.103000,  0.014400
  1.105000,  0.014700
  1.107000,  0.015000
  1.109000,  0.015300
  1.111000,  0.015600
  1.113000,  0.016000
  1.115000,  0.016300
  1.117000,  0.016600
  1.119000,  0.017000
  1.121000,  0.017300
  1.123000,  0.017700
  1.125000,  0.018000
  1.127000,  0.018400
  1.129000,  0.018800
  1.131000,  0.019200
  1.133000,  0.019600
  1.135000,  0.020200
  1.137000,  0.020700
  1.139000,  0.021100
  1.141000,  0.021600
  1.143000,  0.022200
  1.145000,  0.022600
  1.147000,  0.023100
  1.149000,  0.023500
  1.151000,  0.024000
  1.153000,  0.024500
  1.155000,  0.025000
  1.157000,  0.025400
  1.159000,  0.025800
  1.161000,  0.026100
  1.163000,  0.026300
  1.165000,  0.026500
  1.167000,  0.026500
  1.169000,  0.026500
  1.171000,  0.026500
  1.173000,  0.026400
  1.175000,  0.026200
  1.177000,  0.026000
  1.179000,  0.025600
  1.181000,  0.025200
  1.183000,  0.024700
  1.185000,  0.024000
  1.187000,  0.023200
  1.189000,  0.022400
  1.191000,  0.021500
  1.193000,  0.020400
  1.195000,  0.019400
  1.197000,  0.018200
  1.199000,  0.016900
  1.201000,  0.015600
  1.203000,  0.014200
  1.205000,  0.012700
  1.207000,  0.011200
  1.209000,  0.009600
  1.211000,  0.007900
  1.213000,  0.006200
  1.215000,  0.004400
  1.217000,  0.002800
  1.219000,  0.001100
  1.221000, -0.000600
  1.223000, -0.002400
  1.225000, -0.004100
  1.227000, -0.005900
  1.229000, -0.007600
  1.231000, -0.009200
  1.233000, -0.010900
  1.235000, -0.012500
  1.237000, -0.014100
  1.239000, -0.015500
  1.241000, -0.016800
  1.243000, -0.018100
  1.245000, -0.019300
  1.247000, -0.020300
  1.249000, -0.021400
  1.251000, -0.022300
  1.253000, -0.023200
  1.255000, -0.023900
  1.257000, -0.024600
  1.259000, -0.025100
  1.261000, -0.025500
  1.263000, -0.025900
  1.265000, -0.026100
  1.267000, -0.026200
  1.269000, -0.026200
  1.271000, -0.026000
  1.273000, -0.025800
  1.275000, -0.025600
  1.277000, -0.025400
  1.279000, -0.025000
  1.281000, -0.024400
  1.283000, -0.023800
  1.285000, -0.023200
  1.287000, -0.022400
  1.289000, -0.021600
  1.291000, -0.020800
  1.293000, -0.019800
  1.295000, -0.018900
  1.297000, -0.018000
  1.299000, -0.017100
  1.301000, -0.016000
  1.303000, -0.015000
  1.305000, -0.014000
  1.307000, -0.012900
  1.309000, -0.011800
  1.311000, -0.010700
  1.313000, -0.009600
  1.315000, -0.008500
  1.317000, -0.007300
  1.319000, -0.006200
  1.321000, -0.005000
  1.323000, -0.003800
  1.325000, -0.002700
  1.327000, -0.001500
  1.329000, -0.000200
  1.331000,  0.001100
  1.333000,  0.002400
  1.335000,  0.003700
  1.337000,  0.005000
  1.339000,  0.006300
  1.341000,  0.007700
  1.343000,  0.009100
  1.345000,  0.010400
  1.347000,  0.011900
  1.349000,  0.013300
  1.351000,  0.014800
  1.353000,  0.016300
  1.355000,  0.017800
  1.357000,  0.019200
  1.359000,  0.020700
  1.361000,  0.022200
  1.363000,  0.023700
  1.365000,  0.025100
  1.367000,  0.026500
  1.369000,  0.028000
  1.371000,  0.029400
  1.373000,  0.030800
  1.375000,  0.032100
  1.377000,  0.033300
  1.379000,  0.034400
  1.381000,  0.035400
  1.383000,  0.036300
  1.385000,  0.037100
  1.387000,  0.037600
  1.389000,  0.038000
  1.391000,  0.038000
  1.393000,  0.037700
  1.395000,  0.037200
  1.397000,  0.036300
  1.399000,  0.034900
