# z (nm)   (kJ/mol)
  0.143000,  2.042200
  0.145000,  1.511400
  0.147000,  1.020300
  0.149000,  0.544300
  0.151000,  0.064600
  0.153000, -0.451200
  0.155000, -0.959900
  0.157000, -1.455400
  0.159000, -1.937800
  0.161000, -2.411900
  0.163000, -2.888100
  0.165000, -3.362800
  0.167000, -3.834000
  0.169000, -4.289000
  0.171000, -4.730500
  0.173000, -5.163700
  0.175000, -5.584800
  0.177000, -5.993400
  0.179000, -6.387400
  0.181000, -6.769700
  0.183000, -7.139500
  0.185000, -7.495300
  0.187000, -7.836700
  0.189000, -8.161000
  0.191000, -8.469800
  0.193000, -8.763100
  0.195000, -9.038300
  0.197000, -9.296500
  0.199000, -9.536700
  0.201000, -9.759300
  0.203000, -9.965200
  0.205000,-10.154700
  0.207000,-10.328100
  0.209000,-10.485400
  0.211000,-10.627100
  0.213000,-10.752400
  0.215000,-10.862500
  0.217000,-10.957000
  0.219000,-11.035600
  0.221000,-11.099800
  0.223000,-11.150000
  0.225000,-11.186700
  0.227000,-11.210300
  0.229000,-11.221300
  0.231000,-11.220200
  0.233000,-11.207000
  0.235000,-11.183600
  0.237000,-11.151400
  0.239000,-11.110000
  0.241000,-11.059400
  0.243000,-11.000600
  0.245000,-10.934100
  0.247000,-10.861500
  0.249000,-10.783200
  0.251000,-10.699600
  0.253000,-10.612000
  0.255000,-10.520900
  0.257000,-10.427800
  0.259000,-10.333500
  0.261000,-10.237000
  0.263000,-10.139000
  0.265000,-10.040600
  0.267000, -9.942000
  0.269000, -9.844600
  0.271000, -9.748600
  0.273000, -9.652800
  0.275000, -9.558100
  0.277000, -9.466300
  0.279000, -9.377100
  0.281000, -9.290200
  0.283000, -9.206200
  0.285000, -9.124700
  0.287000, -9.045800
  0.289000, -8.969800
  0.291000, -8.896800
  0.293000, -8.826700
  0.295000, -8.759200
  0.297000, -8.694300
  0.299000, -8.631900
  0.301000, -8.572000
  0.303000, -8.514200
  0.305000, -8.458700
  0.307000, -8.404800
  0.309000, -8.352100
  0.311000, -8.301000
  0.313000, -8.251500
  0.315000, -8.202500
  0.317000, -8.153700
  0.319000, -8.105500
  0.321000, -8.057900
  0.323000, -8.010400
  0.325000, -7.962500
  0.327000, -7.913500
  0.329000, -7.863600
  0.331000, -7.812800
  0.333000, -7.761300
  0.335000, -7.708400
  0.337000, -7.653600
  0.339000, -7.597300
  0.341000, -7.539500
  0.343000, -7.479800
  0.345000, -7.417900
  0.347000, -7.353800
  0.349000, -7.287400
  0.351000, -7.218900
  0.353000, -7.148000
  0.355000, -7.074800
  0.357000, -6.999100
  0.359000, -6.921100
  0.361000, -6.840600
  0.363000, -6.757700
  0.365000, -6.672500
  0.367000, -6.584800
  0.369000, -6.494800
  0.371000, -6.402600
  0.373000, -6.308200
  0.375000, -6.211800
  0.377000, -6.113400
  0.379000, -6.013000
  0.381000, -5.910800
  0.383000, -5.806600
  0.385000, -5.700800
  0.387000, -5.593700
  0.389000, -5.485000
  0.391000, -5.374900
  0.393000, -5.263500
  0.395000, -5.151100
  0.397000, -5.037600
  0.399000, -4.923000
  0.401000, -4.807400
  0.403000, -4.691000
  0.405000, -4.574000
  0.407000, -4.456500
  0.409000, -4.338400
  0.411000, -4.219700
  0.413000, -4.100200
  0.415000, -3.980600
  0.417000, -3.861200
  0.419000, -3.741700
  0.421000, -3.622200
  0.423000, -3.502600
  0.425000, -3.383200
  0.427000, -3.264600
  0.429000, -3.146500
  0.431000, -3.028500
  0.433000, -2.911100
  0.435000, -2.794500
  0.437000, -2.678700
  0.439000, -2.564000
  0.441000, -2.450200
  0.443000, -2.337200
  0.445000, -2.225700
  0.447000, -2.115000
  0.449000, -2.005600
  0.451000, -1.898200
  0.453000, -1.792400
  0.455000, -1.688000
  0.457000, -1.585200
  0.459000, -1.484400
  0.461000, -1.385500
  0.463000, -1.288200
  0.465000, -1.193300
  0.467000, -1.100800
  0.469000, -1.010400
  0.471000, -0.921900
  0.473000, -0.835500
  0.475000, -0.751700
  0.477000, -0.670000
  0.479000, -0.590800
  0.481000, -0.514000
  0.483000, -0.439500
  0.485000, -0.368000
  0.487000, -0.299300
  0.489000, -0.233100
  0.491000, -0.169700
  0.493000, -0.109000
  0.495000, -0.051000
  0.497000,  0.004200
  0.499000,  0.056600
  0.501000,  0.106100
  0.503000,  0.152800
  0.505000,  0.196800
  0.507000,  0.238200
  0.509000,  0.276700
  0.511000,  0.312500
  0.513000,  0.345700
  0.515000,  0.376200
  0.517000,  0.404000
  0.519000,  0.429200
  0.521000,  0.451800
  0.523000,  0.471900
  0.525000,  0.489400
  0.527000,  0.504500
  0.529000,  0.517300
  0.531000,  0.527700
  0.533000,  0.535800
  0.535000,  0.541800
  0.537000,  0.545500
  0.539000,  0.547200
  0.541000,  0.546900
  0.543000,  0.544700
  0.545000,  0.540300
  0.547000,  0.534000
  0.549000,  0.526200
  0.551000,  0.516900
  0.553000,  0.505900
  0.555000,  0.493200
  0.557000,  0.478900
  0.559000,  0.463300
  0.561000,  0.446700
  0.563000,  0.429100
  0.565000,  0.410400
  0.567000,  0.390600
  0.569000,  0.369700
  0.571000,  0.348000
  0.573000,  0.325300
  0.575000,  0.301900
  0.577000,  0.278100
  0.579000,  0.253700
  0.581000,  0.228400
  0.583000,  0.202600
  0.585000,  0.176400
  0.587000,  0.150000
  0.589000,  0.123300
  0.591000,  0.096800
  0.593000,  0.070200
  0.595000,  0.043300
  0.597000,  0.016300
  0.599000, -0.010600
  0.601000, -0.037400
  0.603000, -0.064000
  0.605000, -0.090100
  0.607000, -0.115900
  0.609000, -0.141300
  0.611000, -0.166200
  0.613000, -0.190800
  0.615000, -0.214800
  0.617000, -0.238300
  0.619000, -0.261400
  0.621000, -0.283800
  0.623000, -0.305500
  0.625000, -0.326600
  0.627000, -0.347000
  0.629000, -0.366400
  0.631000, -0.384900
  0.633000, -0.402700
  0.635000, -0.419700
  0.637000, -0.435700
  0.639000, -0.450700
  0.641000, -0.464800
  0.643000, -0.478200
  0.645000, -0.490700
  0.647000, -0.502100
  0.649000, -0.512600
  0.651000, -0.522100
  0.653000, -0.530400
  0.655000, -0.537700
  0.657000, -0.544100
  0.659000, -0.549500
  0.661000, -0.553800
  0.663000, -0.557300
  0.665000, -0.559900
  0.667000, -0.561500
  0.669000, -0.562000
  0.671000, -0.561700
  0.673000, -0.560300
  0.675000, -0.558000
  0.677000, -0.554800
  0.679000, -0.550700
  0.681000, -0.545800
  0.683000, -0.540100
  0.685000, -0.533500
  0.687000, -0.526000
  0.689000, -0.517800
  0.691000, -0.508900
  0.693000, -0.499200
  0.695000, -0.488700
  0.697000, -0.477500
  0.699000, -0.465800
  0.701000, -0.453400
  0.703000, -0.440200
  0.705000, -0.426600
  0.707000, -0.412600
  0.709000, -0.398100
  0.711000, -0.383100
  0.713000, -0.367500
  0.715000, -0.351600
  0.717000, -0.335300
  0.719000, -0.318800
  0.721000, -0.301800
  0.723000, -0.284600
  0.725000, -0.267100
  0.727000, -0.249500
  0.729000, -0.231800
  0.731000, -0.213900
  0.733000, -0.195900
  0.735000, -0.177700
  0.737000, -0.159500
  0.739000, -0.141200
  0.741000, -0.122900
  0.743000, -0.104800
  0.745000, -0.086900
  0.747000, -0.069000
  0.749000, -0.051000
  0.751000, -0.033200
  0.753000, -0.015600
  0.755000,  0.001900
  0.757000,  0.019100
  0.759000,  0.036100
  0.761000,  0.052800
  0.763000,  0.069500
  0.765000,  0.085800
  0.767000,  0.101700
  0.769000,  0.117400
  0.771000,  0.132800
  0.773000,  0.147800
  0.775000,  0.162600
  0.777000,  0.176800
  0.779000,  0.190600
  0.781000,  0.204200
  0.783000,  0.217400
  0.785000,  0.230000
  0.787000,  0.242200
  0.789000,  0.254100
  0.791000,  0.265500
  0.793000,  0.276400
  0.795000,  0.286700
  0.797000,  0.296700
  0.799000,  0.306200
  0.801000,  0.315300
  0.803000,  0.323800
  0.805000,  0.331900
  0.807000,  0.339600
  0.809000,  0.346600
  0.811000,  0.353200
  0.813000,  0.359300
  0.815000,  0.364900
  0.817000,  0.370100
  0.819000,  0.374800
  0.821000,  0.378900
  0.823000,  0.382400
  0.825000,  0.385400
  0.827000,  0.388000
  0.829000,  0.390100
  0.831000,  0.391800
  0.833000,  0.393000
  0.835000,  0.393700
  0.837000,  0.393900
  0.839000,  0.393700
  0.841000,  0.393100
  0.843000,  0.391800
  0.845000,  0.390200
  0.847000,  0.388200
  0.849000,  0.385800
  0.851000,  0.383100
  0.853000,  0.380000
  0.855000,  0.376400
  0.857000,  0.372400
  0.859000,  0.368200
  0.861000,  0.363600
  0.863000,  0.358800
  0.865000,  0.353600
  0.867000,  0.348100
  0.869000,  0.342300
  0.871000,  0.336400
  0.873000,  0.330200
  0.875000,  0.323900
  0.877000,  0.317200
  0.879000,  0.310300
  0.881000,  0.303200
  0.883000,  0.296000
  0.885000,  0.288500
  0.887000,  0.280800
  0.889000,  0.273100
  0.891000,  0.265300
  0.893000,  0.257500
  0.895000,  0.249500
  0.897000,  0.241600
  0.899000,  0.233700
  0.901000,  0.225600
  0.903000,  0.217400
  0.905000,  0.209200
  0.907000,  0.201100
  0.909000,  0.193000
  0.911000,  0.184800
  0.913000,  0.176800
  0.915000,  0.168800
  0.917000,  0.160800
  0.919000,  0.152800
  0.921000,  0.144800
  0.923000,  0.136900
  0.925000,  0.129100
  0.927000,  0.121400
  0.929000,  0.113900
  0.931000,  0.106400
  0.933000,  0.099000
  0.935000,  0.091800
  0.937000,  0.084700
  0.939000,  0.077700
  0.941000,  0.070800
  0.943000,  0.064100
  0.945000,  0.057500
  0.947000,  0.051100
  0.949000,  0.044800
  0.951000,  0.038800
  0.953000,  0.033000
  0.955000,  0.027300
  0.957000,  0.021700
  0.959000,  0.016400
  0.961000,  0.011300
  0.963000,  0.006300
  0.965000,  0.001700
  0.967000, -0.002700
  0.969000, -0.007000
  0.971000, -0.011200
  0.973000, -0.015100
  0.975000, -0.018700
  0.977000, -0.022000
  0.979000, -0.025100
  0.981000, -0.028100
  0.983000, -0.030800
  0.985000, -0.033300
  0.987000, -0.035600
  0.989000, -0.037700
  0.991000, -0.039600
  0.993000, -0.041200
  0.995000, -0.042600
  0.997000, -0.043700
  0.999000, -0.044700
  1.001000, -0.045400
  1.003000, -0.046000
  1.005000, -0.046300
  1.007000, -0.046400
  1.009000, -0.046300
  1.011000, -0.046000
  1.013000, -0.045500
  1.015000, -0.044700
  1.017000, -0.043900
  1.019000, -0.042800
  1.021000, -0.041700
  1.023000, -0.040400
  1.025000, -0.038900
  1.027000, -0.037300
  1.029000, -0.035600
  1.031000, -0.033600
  1.033000, -0.031500
  1.035000, -0.029300
  1.037000, -0.027000
  1.039000, -0.024600
  1.041000, -0.022100
  1.043000, -0.019500
  1.045000, -0.016800
  1.047000, -0.014100
  1.049000, -0.011400
  1.051000, -0.008500
  1.053000, -0.005500
  1.055000, -0.002500
  1.057000,  0.000500
  1.059000,  0.003500
  1.061000,  0.006600
  1.063000,  0.009700
  1.065000,  0.012800
  1.067000,  0.016000
  1.069000,  0.019200
  1.071000,  0.022300
  1.073000,  0.025400
  1.075000,  0.028500
  1.077000,  0.031700
  1.079000,  0.034800
  1.081000,  0.037900
  1.083000,  0.040800
  1.085000,  0.043700
  1.087000,  0.046600
  1.089000,  0.049300
  1.091000,  0.052000
  1.093000,  0.054600
  1.095000,  0.057100
  1.097000,  0.059700
  1.099000,  0.062200
  1.101000,  0.064600
  1.103000,  0.067000
  1.105000,  0.069100
  1.107000,  0.071100
  1.109000,  0.073000
  1.111000,  0.074900
  1.113000,  0.076700
  1.115000,  0.078300
  1.117000,  0.080000
  1.119000,  0.081600
  1.121000,  0.083100
  1.123000,  0.084500
  1.125000,  0.085800
  1.127000,  0.086900
  1.129000,  0.087900
  1.131000,  0.088800
  1.133000,  0.089700
  1.135000,  0.090600
  1.137000,  0.091400
  1.139000,  0.092000
  1.141000,  0.092600
  1.143000,  0.093200
  1.145000,  0.093700
  1.147000,  0.094200
  1.149000,  0.094700
  1.151000,  0.095200
  1.153000,  0.095500
  1.155000,  0.095700
  1.157000,  0.096000
  1.159000,  0.096300
  1.161000,  0.096600
  1.163000,  0.096900
  1.165000,  0.097200
  1.167000,  0.097300
  1.169000,  0.097500
  1.171000,  0.097700
  1.173000,  0.097800
  1.175000,  0.098000
  1.177000,  0.098200
  1.179000,  0.098200
  1.181000,  0.098300
  1.183000,  0.098300
  1.185000,  0.098300
  1.187000,  0.098300
  1.189000,  0.098400
  1.191000,  0.098400
  1.193000,  0.098400
  1.195000,  0.098200
  1.197000,  0.098100
  1.199000,  0.098000
  1.201000,  0.097800
  1.203000,  0.097600
  1.205000,  0.097200
  1.207000,  0.096700
  1.209000,  0.096100
  1.211000,  0.095400
  1.213000,  0.094700
  1.215000,  0.094000
  1.217000,  0.093200
  1.219000,  0.092200
  1.221000,  0.091000
  1.223000,  0.089800
  1.225000,  0.088500
  1.227000,  0.087100
  1.229000,  0.085600
  1.231000,  0.083900
  1.233000,  0.082200
  1.235000,  0.080400
  1.237000,  0.078400
  1.239000,  0.076200
  1.241000,  0.073900
  1.243000,  0.071600
  1.245000,  0.069100
  1.247000,  0.066500
  1.249000,  0.063900
  1.251000,  0.061100
  1.253000,  0.058100
  1.255000,  0.055100
  1.257000,  0.051900
  1.259000,  0.048700
  1.261000,  0.045300
  1.263000,  0.041900
  1.265000,  0.038400
  1.267000,  0.034900
  1.269000,  0.031400
  1.271000,  0.027800
  1.273000,  0.024200
  1.275000,  0.020600
  1.277000,  0.017000
  1.279000,  0.013400
  1.281000,  0.009900
  1.283000,  0.006400
  1.285000,  0.002900
  1.287000, -0.000600
  1.289000, -0.003900
  1.291000, -0.007200
  1.293000, -0.010500
  1.295000, -0.013700
  1.297000, -0.016800
  1.299000, -0.019800
  1.301000, -0.022700
  1.303000, -0.025500
  1.305000, -0.028300
  1.307000, -0.030800
  1.309000, -0.033300
  1.311000, -0.035600
  1.313000, -0.037800
  1.315000, -0.039800
  1.317000, -0.041800
  1.319000, -0.043700
  1.321000, -0.045400
  1.323000, -0.047000
  1.325000, -0.048500
  1.327000, -0.049800
  1.329000, -0.051000
  1.331000, -0.052000
  1.333000, -0.052900
  1.335000, -0.053700
  1.337000, -0.054400
  1.339000, -0.055000
  1.341000, -0.055500
  1.343000, -0.056100
  1.345000, -0.056600
  1.347000, -0.057000
  1.349000, -0.057300
  1.351000, -0.057600
  1.353000, -0.057800
  1.355000, -0.058100
  1.357000, -0.058300
  1.359000, -0.058500
  1.361000, -0.058800
  1.363000, -0.059000
  1.365000, -0.059300
  1.367000, -0.059700
  1.369000, -0.060200
  1.371000, -0.060600
  1.373000, -0.061200
  1.375000, -0.061800
  1.377000, -0.062400
  1.379000, -0.063300
  1.381000, -0.064300
  1.383000, -0.065600
  1.385000, -0.067000
  1.387000, -0.068500
  1.389000, -0.070200
  1.391000, -0.072200
  1.393000, -0.074400
  1.395000, -0.077000
  1.397000, -0.079900
  1.399000, -0.083100
