# z (nm)   (kJ/mol)
  0.177000, 12.057900
  0.179000, 11.800800
  0.181000, 11.578400
  0.183000, 11.350100
  0.185000, 11.107600
  0.187000, 10.853900
  0.189000, 10.575400
  0.191000, 10.291700
  0.193000,  9.997600
  0.195000,  9.701600
  0.197000,  9.411600
  0.199000,  9.121900
  0.201000,  8.826300
  0.203000,  8.514200
  0.205000,  8.191300
  0.207000,  7.866400
  0.209000,  7.543800
  0.211000,  7.217400
  0.213000,  6.889800
  0.215000,  6.558400
  0.217000,  6.224200
  0.219000,  5.891300
  0.221000,  5.556000
  0.223000,  5.224200
  0.225000,  4.897000
  0.227000,  4.567500
  0.229000,  4.238100
  0.231000,  3.909900
  0.233000,  3.581700
  0.235000,  3.264600
  0.237000,  2.956300
  0.239000,  2.649500
  0.241000,  2.349000
  0.243000,  2.054800
  0.245000,  1.767900
  0.247000,  1.485000
  0.249000,  1.205900
  0.251000,  0.936100
  0.253000,  0.675700
  0.255000,  0.419700
  0.257000,  0.169200
  0.259000, -0.075700
  0.261000, -0.314600
  0.263000, -0.544200
  0.265000, -0.765800
  0.267000, -0.980100
  0.269000, -1.186500
  0.271000, -1.385700
  0.273000, -1.579400
  0.275000, -1.766400
  0.277000, -1.943700
  0.279000, -2.113400
  0.281000, -2.277200
  0.283000, -2.434500
  0.285000, -2.584400
  0.287000, -2.726800
  0.289000, -2.862400
  0.291000, -2.990800
  0.293000, -3.112000
  0.295000, -3.226500
  0.297000, -3.334900
  0.299000, -3.436800
  0.301000, -3.532200
  0.303000, -3.621300
  0.305000, -3.704200
  0.307000, -3.781500
  0.309000, -3.853500
  0.311000, -3.919900
  0.313000, -3.980500
  0.315000, -4.036200
  0.317000, -4.086800
  0.319000, -4.132400
  0.321000, -4.174100
  0.323000, -4.211600
  0.325000, -4.245000
  0.327000, -4.274200
  0.329000, -4.299600
  0.331000, -4.321700
  0.333000, -4.340300
  0.335000, -4.355500
  0.337000, -4.367800
  0.339000, -4.377400
  0.341000, -4.384200
  0.343000, -4.388200
  0.345000, -4.390200
  0.347000, -4.389700
  0.349000, -4.387400
  0.351000, -4.383500
  0.353000, -4.377400
  0.355000, -4.369200
  0.357000, -4.359000
  0.359000, -4.347300
  0.361000, -4.334200
  0.363000, -4.319600
  0.365000, -4.303400
  0.367000, -4.285700
  0.369000, -4.266300
  0.371000, -4.245500
  0.373000, -4.223200
  0.375000, -4.199200
  0.377000, -4.173800
  0.379000, -4.147100
  0.381000, -4.118600
  0.383000, -4.088000
  0.385000, -4.055900
  0.387000, -4.022300
  0.389000, -3.986700
  0.391000, -3.949200
  0.393000, -3.909800
  0.395000, -3.868700
  0.397000, -3.825900
  0.399000, -3.781400
  0.401000, -3.735100
  0.403000, -3.686500
  0.405000, -3.636000
  0.407000, -3.583600
  0.409000, -3.529100
  0.411000, -3.473000
  0.413000, -3.415000
  0.415000, -3.354900
  0.417000, -3.292900
  0.419000, -3.228900
  0.421000, -3.163200
  0.423000, -3.095700
  0.425000, -3.026100
  0.427000, -2.954800
  0.429000, -2.882100
  0.431000, -2.808000
  0.433000, -2.732200
  0.435000, -2.655200
  0.437000, -2.577300
  0.439000, -2.498200
  0.441000, -2.417800
  0.443000, -2.336300
  0.445000, -2.254100
  0.447000, -2.171400
  0.449000, -2.087900
  0.451000, -2.003800
  0.453000, -1.919500
  0.455000, -1.835700
  0.457000, -1.751600
  0.459000, -1.667900
  0.461000, -1.584400
  0.463000, -1.501100
  0.465000, -1.418800
  0.467000, -1.337300
  0.469000, -1.256200
  0.471000, -1.176100
  0.473000, -1.097200
  0.475000, -1.019900
  0.477000, -0.944000
  0.479000, -0.869700
  0.481000, -0.796800
  0.483000, -0.725800
  0.485000, -0.657100
  0.487000, -0.590100
  0.489000, -0.525400
  0.491000, -0.462800
  0.493000, -0.402400
  0.495000, -0.344100
  0.497000, -0.287900
  0.499000, -0.233900
  0.501000, -0.182400
  0.503000, -0.133400
  0.505000, -0.086800
  0.507000, -0.042500
  0.509000, -0.001000
  0.511000,  0.038100
  0.513000,  0.074900
  0.515000,  0.109100
  0.517000,  0.141200
  0.519000,  0.171000
  0.521000,  0.198500
  0.523000,  0.223600
  0.525000,  0.246500
  0.527000,  0.267300
  0.529000,  0.286100
  0.531000,  0.302800
  0.533000,  0.317400
  0.535000,  0.330200
  0.537000,  0.341100
  0.539000,  0.350300
  0.541000,  0.357900
  0.543000,  0.363900
  0.545000,  0.368400
  0.547000,  0.371400
  0.549000,  0.373000
  0.551000,  0.373200
  0.553000,  0.372300
  0.555000,  0.370200
  0.557000,  0.367200
  0.559000,  0.363300
  0.561000,  0.358400
  0.563000,  0.352800
  0.565000,  0.346500
  0.567000,  0.339600
  0.569000,  0.332000
  0.571000,  0.323800
  0.573000,  0.315100
  0.575000,  0.305800
  0.577000,  0.296300
  0.579000,  0.286700
  0.581000,  0.276900
  0.583000,  0.266800
  0.585000,  0.256600
  0.587000,  0.246300
  0.589000,  0.235900
  0.591000,  0.225500
  0.593000,  0.215000
  0.595000,  0.204600
  0.597000,  0.194400
  0.599000,  0.183900
  0.601000,  0.173500
  0.603000,  0.163400
  0.605000,  0.153400
  0.607000,  0.143600
  0.609000,  0.134000
  0.611000,  0.124800
  0.613000,  0.115500
  0.615000,  0.106200
  0.617000,  0.097200
  0.619000,  0.088400
  0.621000,  0.079700
  0.623000,  0.071200
  0.625000,  0.063000
  0.627000,  0.055200
  0.629000,  0.047700
  0.631000,  0.040100
  0.633000,  0.032700
  0.635000,  0.025500
  0.637000,  0.018600
  0.639000,  0.012000
  0.641000,  0.005400
  0.643000, -0.000900
  0.645000, -0.007100
  0.647000, -0.013100
  0.649000, -0.018900
  0.651000, -0.024600
  0.653000, -0.030200
  0.655000, -0.035600
  0.657000, -0.040800
  0.659000, -0.045900
  0.661000, -0.050900
  0.663000, -0.055700
  0.665000, -0.060400
  0.667000, -0.065000
  0.669000, -0.069600
  0.671000, -0.074000
  0.673000, -0.078400
  0.675000, -0.082500
  0.677000, -0.086500
  0.679000, -0.090500
  0.681000, -0.094500
  0.683000, -0.098200
  0.685000, -0.101700
  0.687000, -0.105200
  0.689000, -0.108500
  0.691000, -0.111700
  0.693000, -0.114800
  0.695000, -0.117800
  0.697000, -0.120700
  0.699000, -0.123300
  0.701000, -0.125800
  0.703000, -0.128100
  0.705000, -0.130300
  0.707000, -0.132200
  0.709000, -0.134000
  0.711000, -0.135600
  0.713000, -0.137000
  0.715000, -0.138200
  0.717000, -0.139200
  0.719000, -0.139900
  0.721000, -0.140400
  0.723000, -0.140800
  0.725000, -0.140900
  0.727000, -0.140700
  0.729000, -0.140400
  0.731000, -0.139800
  0.733000, -0.139000
  0.735000, -0.137900
  0.737000, -0.136600
  0.739000, -0.134900
  0.741000, -0.133000
  0.743000, -0.131100
  0.745000, -0.129000
  0.747000, -0.126600
  0.749000, -0.123700
  0.751000, -0.120800
  0.753000, -0.117700
  0.755000, -0.114100
  0.757000, -0.110600
  0.759000, -0.107100
  0.761000, -0.103400
  0.763000, -0.099400
  0.765000, -0.095200
  0.767000, -0.090900
  0.769000, -0.086500
  0.771000, -0.082000
  0.773000, -0.077400
  0.775000, -0.072600
  0.777000, -0.067700
  0.779000, -0.062900
  0.781000, -0.058200
  0.783000, -0.053500
  0.785000, -0.048700
  0.787000, -0.043800
  0.789000, -0.038800
  0.791000, -0.034000
  0.793000, -0.029200
  0.795000, -0.024500
  0.797000, -0.020000
  0.799000, -0.015600
  0.801000, -0.011000
  0.803000, -0.006500
  0.805000, -0.002400
  0.807000,  0.001500
  0.809000,  0.005100
  0.811000,  0.008400
  0.813000,  0.011500
  0.815000,  0.014600
  0.817000,  0.017400
  0.819000,  0.020100
  0.821000,  0.022500
  0.823000,  0.024600
  0.825000,  0.026400
  0.827000,  0.028000
  0.829000,  0.029300
  0.831000,  0.030400
  0.833000,  0.031300
  0.835000,  0.031900
  0.837000,  0.032300
  0.839000,  0.032500
  0.841000,  0.032500
  0.843000,  0.032300
  0.845000,  0.031900
  0.847000,  0.031200
  0.849000,  0.030300
  0.851000,  0.029200
  0.853000,  0.028000
  0.855000,  0.026600
  0.857000,  0.025000
  0.859000,  0.023300
  0.861000,  0.021700
  0.863000,  0.020000
  0.865000,  0.018100
  0.867000,  0.016200
  0.869000,  0.014200
  0.871000,  0.012200
  0.873000,  0.010100
  0.875000,  0.008000
  0.877000,  0.006000
  0.879000,  0.004000
  0.881000,  0.002100
  0.883000,  0.000100
  0.885000, -0.001800
  0.887000, -0.003500
  0.889000, -0.005200
  0.891000, -0.006700
  0.893000, -0.008200
  0.895000, -0.009600
  0.897000, -0.011000
  0.899000, -0.012100
  0.901000, -0.013200
  0.903000, -0.014100
  0.905000, -0.014900
  0.907000, -0.015600
  0.909000, -0.016200
  0.911000, -0.016800
  0.913000, -0.017300
  0.915000, -0.017700
  0.917000, -0.018000
  0.919000, -0.018200
  0.921000, -0.018300
  0.923000, -0.018300
  0.925000, -0.018200
  0.927000, -0.018100
  0.929000, -0.017800
  0.931000, -0.017400
  0.933000, -0.017300
  0.935000, -0.017200
  0.937000, -0.016800
  0.939000, -0.016500
  0.941000, -0.016400
  0.943000, -0.016500
  0.945000, -0.016400
  0.947000, -0.016300
  0.949000, -0.016300
  0.951000, -0.016300
  0.953000, -0.016300
  0.955000, -0.016500
  0.957000, -0.016700
  0.959000, -0.016900
  0.961000, -0.017200
  0.963000, -0.017700
  0.965000, -0.018400
  0.967000, -0.019100
  0.969000, -0.019700
  0.971000, -0.020500
  0.973000, -0.021400
  0.975000, -0.022300
  0.977000, -0.023200
  0.979000, -0.024100
  0.981000, -0.025100
  0.983000, -0.026300
  0.985000, -0.027500
  0.987000, -0.028700
  0.989000, -0.030100
  0.991000, -0.031400
  0.993000, -0.032800
  0.995000, -0.034100
  0.997000, -0.035300
  0.999000, -0.036600
  1.001000, -0.038000
  1.003000, -0.039400
  1.005000, -0.040700
  1.007000, -0.042000
  1.009000, -0.043400
  1.011000, -0.044700
  1.013000, -0.046000
  1.015000, -0.047000
  1.017000, -0.047900
  1.019000, -0.049000
  1.021000, -0.049800
  1.023000, -0.050700
  1.025000, -0.051600
  1.027000, -0.052200
  1.029000, -0.052700
  1.031000, -0.053300
  1.033000, -0.053800
  1.035000, -0.054100
  1.037000, -0.054200
  1.039000, -0.054300
  1.041000, -0.054200
  1.043000, -0.054100
  1.045000, -0.054000
  1.047000, -0.053600
  1.049000, -0.052900
  1.051000, -0.052300
  1.053000, -0.051700
  1.055000, -0.051100
  1.057000, -0.050300
  1.059000, -0.049500
  1.061000, -0.048600
  1.063000, -0.047300
  1.065000, -0.046000
  1.067000, -0.044700
  1.069000, -0.043400
  1.071000, -0.041900
  1.073000, -0.040400
  1.075000, -0.038700
  1.077000, -0.037000
  1.079000, -0.035300
  1.081000, -0.033500
  1.083000, -0.031800
  1.085000, -0.030000
  1.087000, -0.028200
  1.089000, -0.026400
  1.091000, -0.024600
  1.093000, -0.022700
  1.095000, -0.020800
  1.097000, -0.019000
  1.099000, -0.017100
  1.101000, -0.015300
  1.103000, -0.013400
  1.105000, -0.011500
  1.107000, -0.009600
  1.109000, -0.007800
  1.111000, -0.005900
  1.113000, -0.004200
  1.115000, -0.002400
  1.117000, -0.000700
  1.119000,  0.000900
  1.121000,  0.002400
  1.123000,  0.003900
  1.125000,  0.005300
  1.127000,  0.006700
  1.129000,  0.008000
  1.131000,  0.009400
  1.133000,  0.010600
  1.135000,  0.011800
  1.137000,  0.012900
  1.139000,  0.013900
  1.141000,  0.014800
  1.143000,  0.015700
  1.145000,  0.016500
  1.147000,  0.017200
  1.149000,  0.017900
  1.151000,  0.018500
  1.153000,  0.019000
  1.155000,  0.019300
  1.157000,  0.019600
  1.159000,  0.019900
  1.161000,  0.020000
  1.163000,  0.020000
  1.165000,  0.019900
  1.167000,  0.019800
  1.169000,  0.019700
  1.171000,  0.019400
  1.173000,  0.019000
  1.175000,  0.018600
  1.177000,  0.018300
  1.179000,  0.017800
  1.181000,  0.017200
  1.183000,  0.016500
  1.185000,  0.015700
  1.187000,  0.014800
  1.189000,  0.014000
  1.191000,  0.013100
  1.193000,  0.012000
  1.195000,  0.010800
  1.197000,  0.009700
  1.199000,  0.008700
  1.201000,  0.007600
  1.203000,  0.006500
  1.205000,  0.005300
  1.207000,  0.004100
  1.209000,  0.002800
  1.211000,  0.001600
  1.213000,  0.000500
  1.215000, -0.000600
  1.217000, -0.001600
  1.219000, -0.002700
  1.221000, -0.003800
  1.223000, -0.004800
  1.225000, -0.005900
  1.227000, -0.007000
  1.229000, -0.008000
  1.231000, -0.009200
  1.233000, -0.010200
  1.235000, -0.011100
  1.237000, -0.012000
  1.239000, -0.012700
  1.241000, -0.013400
  1.243000, -0.014100
  1.245000, -0.014600
  1.247000, -0.015100
  1.249000, -0.015500
  1.251000, -0.015800
  1.253000, -0.016100
  1.255000, -0.016400
  1.257000, -0.016700
  1.259000, -0.017000
  1.261000, -0.017200
  1.263000, -0.017300
  1.265000, -0.017200
  1.267000, -0.017100
  1.269000, -0.017100
  1.271000, -0.016900
  1.273000, -0.016700
  1.275000, -0.016400
  1.277000, -0.016000
  1.279000, -0.015600
  1.281000, -0.015300
  1.283000, -0.014900
  1.285000, -0.014600
  1.287000, -0.014300
  1.289000, -0.013900
  1.291000, -0.013600
  1.293000, -0.013200
  1.295000, -0.012700
  1.297000, -0.012300
  1.299000, -0.011800
  1.301000, -0.011400
  1.303000, -0.011000
  1.305000, -0.010500
  1.307000, -0.010000
  1.309000, -0.009600
  1.311000, -0.009200
  1.313000, -0.008800
  1.315000, -0.008300
  1.317000, -0.007700
  1.319000, -0.007200
  1.321000, -0.006700
  1.323000, -0.006300
  1.325000, -0.005900
  1.327000, -0.005400
  1.329000, -0.004900
  1.331000, -0.004300
  1.333000, -0.003600
  1.335000, -0.002900
  1.337000, -0.002100
  1.339000, -0.001300
  1.341000, -0.000500
  1.343000,  0.000400
  1.345000,  0.001500
  1.347000,  0.002600
  1.349000,  0.003800
  1.351000,  0.005100
  1.353000,  0.006500
  1.355000,  0.008000
  1.357000,  0.009600
  1.359000,  0.011200
  1.361000,  0.013000
  1.363000,  0.014700
  1.365000,  0.016500
  1.367000,  0.018400
  1.369000,  0.020300
  1.371000,  0.022400
  1.373000,  0.024500
  1.375000,  0.026500
  1.377000,  0.028500
  1.379000,  0.030600
  1.381000,  0.032700
  1.383000,  0.034800
  1.385000,  0.037000
  1.387000,  0.039000
  1.389000,  0.041100
  1.391000,  0.043000
  1.393000,  0.044600
  1.395000,  0.046000
  1.397000,  0.047200
  1.399000,  0.047800
