# z (nm)   (kJ/mol)
  0.145000,  5.525200
  0.147000,  5.085300
  0.149000,  4.652900
  0.151000,  4.260200
  0.153000,  3.852200
  0.155000,  3.428000
  0.157000,  3.016900
  0.159000,  2.596100
  0.161000,  2.179400
  0.163000,  1.746200
  0.165000,  1.290600
  0.167000,  0.833900
  0.169000,  0.380000
  0.171000, -0.074200
  0.173000, -0.527300
  0.175000, -0.979900
  0.177000, -1.428300
  0.179000, -1.875600
  0.181000, -2.318600
  0.183000, -2.750900
  0.185000, -3.179900
  0.187000, -3.608000
  0.189000, -4.026700
  0.191000, -4.433100
  0.193000, -4.833000
  0.195000, -5.228000
  0.197000, -5.615800
  0.199000, -5.993300
  0.201000, -6.361100
  0.203000, -6.721500
  0.205000, -7.070400
  0.207000, -7.408000
  0.209000, -7.735000
  0.211000, -8.050200
  0.213000, -8.354400
  0.215000, -8.646800
  0.217000, -8.925700
  0.219000, -9.191900
  0.221000, -9.445400
  0.223000, -9.685600
  0.225000, -9.912600
  0.227000,-10.125600
  0.229000,-10.325400
  0.231000,-10.511600
  0.233000,-10.684100
  0.235000,-10.842600
  0.237000,-10.987000
  0.239000,-11.117800
  0.241000,-11.235000
  0.243000,-11.339000
  0.245000,-11.429000
  0.247000,-11.505600
  0.249000,-11.569200
  0.251000,-11.620000
  0.253000,-11.658200
  0.255000,-11.683400
  0.257000,-11.696700
  0.259000,-11.698000
  0.261000,-11.689000
  0.263000,-11.670500
  0.265000,-11.640000
  0.267000,-11.598600
  0.269000,-11.547700
  0.271000,-11.487400
  0.273000,-11.418600
  0.275000,-11.342400
  0.277000,-11.259000
  0.279000,-11.167900
  0.281000,-11.072000
  0.283000,-10.971200
  0.285000,-10.863900
  0.287000,-10.751600
  0.289000,-10.635100
  0.291000,-10.514900
  0.293000,-10.392200
  0.295000,-10.267200
  0.297000,-10.140600
  0.299000,-10.012500
  0.301000, -9.883100
  0.303000, -9.753900
  0.305000, -9.624600
  0.307000, -9.495300
  0.309000, -9.366400
  0.311000, -9.238400
  0.313000, -9.112000
  0.315000, -8.986900
  0.317000, -8.863200
  0.319000, -8.741400
  0.321000, -8.621900
  0.323000, -8.504800
  0.325000, -8.390100
  0.327000, -8.278300
  0.329000, -8.169000
  0.331000, -8.062000
  0.333000, -7.957600
  0.335000, -7.855700
  0.337000, -7.756500
  0.339000, -7.660500
  0.341000, -7.566900
  0.343000, -7.475600
  0.345000, -7.386900
  0.347000, -7.300400
  0.349000, -7.215800
  0.351000, -7.133400
  0.353000, -7.052800
  0.355000, -6.973700
  0.357000, -6.896300
  0.359000, -6.820200
  0.361000, -6.745200
  0.363000, -6.671400
  0.365000, -6.598100
  0.367000, -6.525700
  0.369000, -6.454100
  0.371000, -6.382700
  0.373000, -6.311100
  0.375000, -6.239100
  0.377000, -6.167200
  0.379000, -6.095000
  0.381000, -6.022100
  0.383000, -5.948300
  0.385000, -5.873600
  0.387000, -5.798000
  0.389000, -5.721300
  0.391000, -5.643100
  0.393000, -5.563500
  0.395000, -5.482500
  0.397000, -5.399800
  0.399000, -5.315200
  0.401000, -5.228700
  0.403000, -5.140800
  0.405000, -5.051300
  0.407000, -4.959600
  0.409000, -4.865900
  0.411000, -4.770500
  0.413000, -4.673300
  0.415000, -4.574200
  0.417000, -4.473700
  0.419000, -4.370800
  0.421000, -4.266300
  0.423000, -4.161100
  0.425000, -4.054500
  0.427000, -3.946500
  0.429000, -3.837200
  0.431000, -3.727100
  0.433000, -3.616100
  0.435000, -3.504200
  0.437000, -3.392000
  0.439000, -3.280100
  0.441000, -3.167800
  0.443000, -3.054900
  0.445000, -2.941900
  0.447000, -2.829800
  0.449000, -2.718400
  0.451000, -2.607400
  0.453000, -2.498200
  0.455000, -2.390300
  0.457000, -2.284100
  0.459000, -2.180300
  0.461000, -2.077800
  0.463000, -1.977200
  0.465000, -1.878800
  0.467000, -1.783000
  0.469000, -1.690000
  0.471000, -1.599800
  0.473000, -1.512700
  0.475000, -1.428600
  0.477000, -1.347800
  0.479000, -1.270600
  0.481000, -1.196800
  0.483000, -1.126700
  0.485000, -1.060400
  0.487000, -0.997700
  0.489000, -0.938400
  0.491000, -0.883000
  0.493000, -0.831400
  0.495000, -0.783700
  0.497000, -0.740000
  0.499000, -0.700400
  0.501000, -0.664500
  0.503000, -0.632100
  0.505000, -0.603600
  0.507000, -0.579000
  0.509000, -0.557700
  0.511000, -0.539800
  0.513000, -0.525700
  0.515000, -0.514400
  0.517000, -0.505400
  0.519000, -0.498900
  0.521000, -0.495200
  0.523000, -0.494600
  0.525000, -0.497100
  0.527000, -0.501300
  0.529000, -0.507700
  0.531000, -0.516900
  0.533000, -0.528400
  0.535000, -0.541600
  0.537000, -0.556000
  0.539000, -0.571700
  0.541000, -0.588800
  0.543000, -0.606600
  0.545000, -0.625300
  0.547000, -0.645300
  0.549000, -0.665600
  0.551000, -0.686400
  0.553000, -0.708100
  0.555000, -0.730200
  0.557000, -0.752600
  0.559000, -0.774600
  0.561000, -0.796400
  0.563000, -0.818400
  0.565000, -0.840500
  0.567000, -0.862300
  0.569000, -0.883600
  0.571000, -0.904500
  0.573000, -0.925100
  0.575000, -0.945000
  0.577000, -0.964100
  0.579000, -0.982700
  0.581000, -1.000600
  0.583000, -1.017700
  0.585000, -1.034000
  0.587000, -1.049400
  0.589000, -1.063900
  0.591000, -1.077500
  0.593000, -1.090100
  0.595000, -1.101900
  0.597000, -1.112700
  0.599000, -1.122700
  0.601000, -1.131800
  0.603000, -1.140000
  0.605000, -1.147500
  0.607000, -1.154000
  0.609000, -1.159600
  0.611000, -1.164500
  0.613000, -1.168700
  0.615000, -1.171900
  0.617000, -1.174200
  0.619000, -1.175800
  0.621000, -1.176700
  0.623000, -1.176700
  0.625000, -1.176000
  0.627000, -1.174700
  0.629000, -1.172800
  0.631000, -1.170400
  0.633000, -1.167300
  0.635000, -1.163500
  0.637000, -1.159200
  0.639000, -1.154200
  0.641000, -1.148600
  0.643000, -1.142700
  0.645000, -1.136300
  0.647000, -1.129500
  0.649000, -1.122000
  0.651000, -1.114000
  0.653000, -1.105900
  0.655000, -1.097300
  0.657000, -1.088200
  0.659000, -1.078700
  0.661000, -1.068700
  0.663000, -1.058500
  0.665000, -1.048000
  0.667000, -1.037000
  0.669000, -1.025400
  0.671000, -1.013700
  0.673000, -1.001800
  0.675000, -0.989700
  0.677000, -0.977400
  0.679000, -0.964600
  0.681000, -0.951500
  0.683000, -0.938000
  0.685000, -0.924200
  0.687000, -0.909800
  0.689000, -0.895300
  0.691000, -0.880600
  0.693000, -0.865600
  0.695000, -0.850400
  0.697000, -0.835100
  0.699000, -0.819700
  0.701000, -0.804000
  0.703000, -0.788200
  0.705000, -0.772300
  0.707000, -0.756400
  0.709000, -0.740200
  0.711000, -0.723800
  0.713000, -0.707200
  0.715000, -0.690600
  0.717000, -0.674000
  0.719000, -0.657500
  0.721000, -0.640700
  0.723000, -0.623900
  0.725000, -0.607200
  0.727000, -0.590300
  0.729000, -0.573400
  0.731000, -0.556500
  0.733000, -0.539800
  0.735000, -0.523200
  0.737000, -0.506800
  0.739000, -0.490400
  0.741000, -0.474100
  0.743000, -0.457600
  0.745000, -0.441400
  0.747000, -0.425600
  0.749000, -0.410000
  0.751000, -0.394500
  0.753000, -0.379200
  0.755000, -0.364100
  0.757000, -0.349300
  0.759000, -0.334900
  0.761000, -0.320700
  0.763000, -0.307000
  0.765000, -0.293400
  0.767000, -0.280300
  0.769000, -0.267600
  0.771000, -0.255100
  0.773000, -0.243100
  0.775000, -0.231500
  0.777000, -0.220300
  0.779000, -0.209400
  0.781000, -0.198900
  0.783000, -0.189100
  0.785000, -0.179700
  0.787000, -0.170800
  0.789000, -0.162300
  0.791000, -0.154300
  0.793000, -0.146700
  0.795000, -0.139700
  0.797000, -0.133200
  0.799000, -0.127300
  0.801000, -0.122000
  0.803000, -0.117000
  0.805000, -0.112500
  0.807000, -0.108600
  0.809000, -0.105100
  0.811000, -0.102200
  0.813000, -0.099800
  0.815000, -0.098000
  0.817000, -0.096500
  0.819000, -0.095500
  0.821000, -0.095000
  0.823000, -0.095000
  0.825000, -0.095500
  0.827000, -0.096400
  0.829000, -0.097600
  0.831000, -0.099500
  0.833000, -0.101800
  0.835000, -0.104500
  0.837000, -0.107400
  0.839000, -0.110600
  0.841000, -0.114200
  0.843000, -0.118000
  0.845000, -0.122200
  0.847000, -0.126800
  0.849000, -0.131600
  0.851000, -0.136500
  0.853000, -0.141600
  0.855000, -0.147000
  0.857000, -0.152500
  0.859000, -0.158200
  0.861000, -0.163900
  0.863000, -0.169700
  0.865000, -0.175600
  0.867000, -0.181600
  0.869000, -0.187600
  0.871000, -0.193900
  0.873000, -0.200200
  0.875000, -0.206300
  0.877000, -0.212400
  0.879000, -0.218600
  0.881000, -0.224700
  0.883000, -0.230800
  0.885000, -0.236800
  0.887000, -0.242700
  0.889000, -0.248600
  0.891000, -0.254500
  0.893000, -0.260200
  0.895000, -0.265800
  0.897000, -0.271200
  0.899000, -0.276400
  0.901000, -0.281500
  0.903000, -0.286300
  0.905000, -0.291000
  0.907000, -0.295600
  0.909000, -0.300000
  0.911000, -0.304100
  0.913000, -0.308000
  0.915000, -0.311800
  0.917000, -0.315400
  0.919000, -0.318900
  0.921000, -0.322100
  0.923000, -0.325000
  0.925000, -0.327900
  0.927000, -0.330400
  0.929000, -0.332700
  0.931000, -0.334800
  0.933000, -0.336700
  0.935000, -0.338300
  0.937000, -0.339600
  0.939000, -0.340800
  0.941000, -0.341800
  0.943000, -0.342600
  0.945000, -0.343200
  0.947000, -0.343600
  0.949000, -0.344100
  0.951000, -0.344300
  0.953000, -0.344300
  0.955000, -0.344100
  0.957000, -0.343700
  0.959000, -0.343200
  0.961000, -0.342400
  0.963000, -0.341400
  0.965000, -0.340300
  0.967000, -0.339100
  0.969000, -0.337700
  0.971000, -0.336400
  0.973000, -0.334900
  0.975000, -0.333300
  0.977000, -0.331600
  0.979000, -0.329900
  0.981000, -0.328200
  0.983000, -0.326300
  0.985000, -0.324500
  0.987000, -0.322500
  0.989000, -0.320400
  0.991000, -0.318300
  0.993000, -0.316000
  0.995000, -0.313700
  0.997000, -0.311600
  0.999000, -0.309400
  1.001000, -0.307300
  1.003000, -0.305200
  1.005000, -0.303000
  1.007000, -0.300800
  1.009000, -0.298400
  1.011000, -0.296200
  1.013000, -0.294100
  1.015000, -0.292000
  1.017000, -0.290100
  1.019000, -0.288100
  1.021000, -0.285900
  1.023000, -0.283700
  1.025000, -0.281500
  1.027000, -0.279300
  1.029000, -0.277100
  1.031000, -0.274800
  1.033000, -0.272600
  1.035000, -0.270400
  1.037000, -0.268000
  1.039000, -0.265700
  1.041000, -0.263400
  1.043000, -0.260900
  1.045000, -0.258400
  1.047000, -0.255800
  1.049000, -0.253100
  1.051000, -0.250400
  1.053000, -0.247500
  1.055000, -0.244600
  1.057000, -0.241400
  1.059000, -0.238100
  1.061000, -0.234800
  1.063000, -0.231400
  1.065000, -0.227800
  1.067000, -0.224100
  1.069000, -0.220400
  1.071000, -0.216600
  1.073000, -0.212600
  1.075000, -0.208500
  1.077000, -0.204200
  1.079000, -0.199700
  1.081000, -0.195100
  1.083000, -0.190400
  1.085000, -0.185600
  1.087000, -0.180900
  1.089000, -0.176100
  1.091000, -0.171200
  1.093000, -0.166300
  1.095000, -0.161400
  1.097000, -0.156500
  1.099000, -0.151400
  1.101000, -0.146400
  1.103000, -0.141500
  1.105000, -0.136500
  1.107000, -0.131500
  1.109000, -0.126600
  1.111000, -0.121800
  1.113000, -0.116900
  1.115000, -0.112200
  1.117000, -0.107600
  1.119000, -0.103000
  1.121000, -0.098600
  1.123000, -0.094400
  1.125000, -0.090200
  1.127000, -0.086100
  1.129000, -0.082100
  1.131000, -0.078400
  1.133000, -0.074800
  1.135000, -0.071200
  1.137000, -0.067900
  1.139000, -0.064700
  1.141000, -0.061800
  1.143000, -0.059100
  1.145000, -0.056400
  1.147000, -0.054000
  1.149000, -0.051700
  1.151000, -0.049700
  1.153000, -0.047700
  1.155000, -0.045900
  1.157000, -0.044200
  1.159000, -0.042700
  1.161000, -0.041300
  1.163000, -0.040000
  1.165000, -0.038900
  1.167000, -0.037900
  1.169000, -0.037100
  1.171000, -0.036300
  1.173000, -0.035600
  1.175000, -0.035000
  1.177000, -0.034600
  1.179000, -0.034200
  1.181000, -0.033900
  1.183000, -0.033600
  1.185000, -0.033300
  1.187000, -0.033100
  1.189000, -0.032800
  1.191000, -0.032500
  1.193000, -0.032300
  1.195000, -0.032100
  1.197000, -0.032000
  1.199000, -0.031800
  1.201000, -0.031600
  1.203000, -0.031200
  1.205000, -0.030700
  1.207000, -0.030400
  1.209000, -0.030000
  1.211000, -0.029500
  1.213000, -0.028900
  1.215000, -0.028400
  1.217000, -0.027900
  1.219000, -0.027300
  1.221000, -0.026700
  1.223000, -0.026200
  1.225000, -0.025400
  1.227000, -0.024600
  1.229000, -0.023900
  1.231000, -0.023000
  1.233000, -0.022000
  1.235000, -0.021000
  1.237000, -0.020000
  1.239000, -0.018900
  1.241000, -0.017900
  1.243000, -0.016900
  1.245000, -0.015800
  1.247000, -0.014800
  1.249000, -0.013800
  1.251000, -0.012700
  1.253000, -0.011700
  1.255000, -0.010600
  1.257000, -0.009500
  1.259000, -0.008500
  1.261000, -0.007500
  1.263000, -0.006600
  1.265000, -0.005700
  1.267000, -0.004700
  1.269000, -0.003800
  1.271000, -0.002900
  1.273000, -0.002200
  1.275000, -0.001600
  1.277000, -0.000800
  1.279000, -0.000000
  1.281000,  0.000600
  1.283000,  0.001200
  1.285000,  0.001800
  1.287000,  0.002400
  1.289000,  0.003000
  1.291000,  0.003600
  1.293000,  0.003900
  1.295000,  0.004300
  1.297000,  0.004800
  1.299000,  0.005100
  1.301000,  0.005400
  1.303000,  0.005700
  1.305000,  0.005800
  1.307000,  0.006100
  1.309000,  0.006300
  1.311000,  0.006600
  1.313000,  0.006900
  1.315000,  0.007300
  1.317000,  0.007800
  1.319000,  0.008100
  1.321000,  0.008500
  1.323000,  0.009000
  1.325000,  0.009400
  1.327000,  0.009900
  1.329000,  0.010300
  1.331000,  0.010700
  1.333000,  0.011000
  1.335000,  0.011400
  1.337000,  0.011800
  1.339000,  0.012400
  1.341000,  0.013000
  1.343000,  0.013600
  1.345000,  0.014100
  1.347000,  0.014800
  1.349000,  0.015500
  1.351000,  0.016100
  1.353000,  0.016700
  1.355000,  0.017300
  1.357000,  0.017900
  1.359000,  0.018500
  1.361000,  0.019100
  1.363000,  0.019600
  1.365000,  0.020000
  1.367000,  0.020400
  1.369000,  0.020600
  1.371000,  0.020900
  1.373000,  0.020900
  1.375000,  0.020900
  1.377000,  0.020800
  1.379000,  0.020700
  1.381000,  0.020400
  1.383000,  0.019800
  1.385000,  0.019000
  1.387000,  0.018200
  1.389000,  0.017000
  1.391000,  0.015500
  1.393000,  0.013800
  1.395000,  0.011800
  1.397000,  0.009300
  1.399000,  0.006600
