# z (nm)   (kJ/mol)
  0.143000,  0.059700
  0.145000, -0.526100
  0.147000, -1.123300
  0.149000, -1.704500
  0.151000, -2.289800
  0.153000, -2.885600
  0.155000, -3.472500
  0.157000, -4.046100
  0.159000, -4.604100
  0.161000, -5.152600
  0.163000, -5.701900
  0.165000, -6.240300
  0.167000, -6.765400
  0.169000, -7.280800
  0.171000, -7.782500
  0.173000, -8.271600
  0.175000, -8.748500
  0.177000, -9.208500
  0.179000, -9.650000
  0.181000,-10.074400
  0.183000,-10.483100
  0.185000,-10.873100
  0.187000,-11.244300
  0.189000,-11.597900
  0.191000,-11.929700
  0.193000,-12.239400
  0.195000,-12.530900
  0.197000,-12.802100
  0.199000,-13.052000
  0.201000,-13.280400
  0.203000,-13.487800
  0.205000,-13.675400
  0.207000,-13.842200
  0.209000,-13.988300
  0.211000,-14.113500
  0.213000,-14.218400
  0.215000,-14.303700
  0.217000,-14.369100
  0.219000,-14.415700
  0.221000,-14.444100
  0.223000,-14.454700
  0.225000,-14.448100
  0.227000,-14.424900
  0.229000,-14.386100
  0.231000,-14.332300
  0.233000,-14.264700
  0.235000,-14.183600
  0.237000,-14.089100
  0.239000,-13.982600
  0.241000,-13.866000
  0.243000,-13.740300
  0.245000,-13.605700
  0.247000,-13.463000
  0.249000,-13.313200
  0.251000,-13.156800
  0.253000,-12.995200
  0.255000,-12.830300
  0.257000,-12.662800
  0.259000,-12.493600
  0.261000,-12.323300
  0.263000,-12.152000
  0.265000,-11.980000
  0.267000,-11.808100
  0.269000,-11.638900
  0.271000,-11.472000
  0.273000,-11.306700
  0.275000,-11.144300
  0.277000,-10.985800
  0.279000,-10.831000
  0.281000,-10.680000
  0.283000,-10.533400
  0.285000,-10.391400
  0.287000,-10.254300
  0.289000,-10.121800
  0.291000, -9.994200
  0.293000, -9.871400
  0.295000, -9.753400
  0.297000, -9.640300
  0.299000, -9.531300
  0.301000, -9.426500
  0.303000, -9.326300
  0.305000, -9.230200
  0.307000, -9.137800
  0.309000, -9.049200
  0.311000, -8.963800
  0.313000, -8.881300
  0.315000, -8.801500
  0.317000, -8.724300
  0.319000, -8.649900
  0.321000, -8.577900
  0.323000, -8.507300
  0.325000, -8.438100
  0.327000, -8.370200
  0.329000, -8.303400
  0.331000, -8.237400
  0.333000, -8.171900
  0.335000, -8.106500
  0.337000, -8.041100
  0.339000, -7.975700
  0.341000, -7.910500
  0.343000, -7.844800
  0.345000, -7.778600
  0.347000, -7.711800
  0.349000, -7.644500
  0.351000, -7.576300
  0.353000, -7.507000
  0.355000, -7.436700
  0.357000, -7.365400
  0.359000, -7.293100
  0.361000, -7.219500
  0.363000, -7.144900
  0.365000, -7.069500
  0.367000, -6.992900
  0.369000, -6.915300
  0.371000, -6.837000
  0.373000, -6.758100
  0.375000, -6.678200
  0.377000, -6.597400
  0.379000, -6.515800
  0.381000, -6.433400
  0.383000, -6.350800
  0.385000, -6.267600
  0.387000, -6.183900
  0.389000, -6.099800
  0.391000, -6.015100
  0.393000, -5.930400
  0.395000, -5.845500
  0.397000, -5.760600
  0.399000, -5.675700
  0.401000, -5.590400
  0.403000, -5.505100
  0.405000, -5.420200
  0.407000, -5.335400
  0.409000, -5.250500
  0.411000, -5.165700
  0.413000, -5.081200
  0.415000, -4.996800
  0.417000, -4.912700
  0.419000, -4.829000
  0.421000, -4.745600
  0.423000, -4.662400
  0.425000, -4.579500
  0.427000, -4.497200
  0.429000, -4.415400
  0.431000, -4.334100
  0.433000, -4.252900
  0.435000, -4.172100
  0.437000, -4.091600
  0.439000, -4.011400
  0.441000, -3.931500
  0.443000, -3.852000
  0.445000, -3.773100
  0.447000, -3.694400
  0.449000, -3.616300
  0.451000, -3.538500
  0.453000, -3.460800
  0.455000, -3.383500
  0.457000, -3.306800
  0.459000, -3.230500
  0.461000, -3.154500
  0.463000, -3.078800
  0.465000, -3.003300
  0.467000, -2.928400
  0.469000, -2.854000
  0.471000, -2.779900
  0.473000, -2.706400
  0.475000, -2.633500
  0.477000, -2.561100
  0.479000, -2.489100
  0.481000, -2.417900
  0.483000, -2.347300
  0.485000, -2.277200
  0.487000, -2.208000
  0.489000, -2.139600
  0.491000, -2.072000
  0.493000, -2.005400
  0.495000, -1.939700
  0.497000, -1.875000
  0.499000, -1.811700
  0.501000, -1.749500
  0.503000, -1.688000
  0.505000, -1.627500
  0.507000, -1.568400
  0.509000, -1.511000
  0.511000, -1.454700
  0.513000, -1.399900
  0.515000, -1.346700
  0.517000, -1.294900
  0.519000, -1.244200
  0.521000, -1.195400
  0.523000, -1.148200
  0.525000, -1.102700
  0.527000, -1.058900
  0.529000, -1.016800
  0.531000, -0.976500
  0.533000, -0.937800
  0.535000, -0.900900
  0.537000, -0.865900
  0.539000, -0.832600
  0.541000, -0.801100
  0.543000, -0.771500
  0.545000, -0.743400
  0.547000, -0.717000
  0.549000, -0.692400
  0.551000, -0.669500
  0.553000, -0.648200
  0.555000, -0.628700
  0.557000, -0.610800
  0.559000, -0.594500
  0.561000, -0.579900
  0.563000, -0.566700
  0.565000, -0.555100
  0.567000, -0.544900
  0.569000, -0.536100
  0.571000, -0.528600
  0.573000, -0.522400
  0.575000, -0.517200
  0.577000, -0.513400
  0.579000, -0.510700
  0.581000, -0.509000
  0.583000, -0.508200
  0.585000, -0.508400
  0.587000, -0.509300
  0.589000, -0.511100
  0.591000, -0.513700
  0.593000, -0.517000
  0.595000, -0.520600
  0.597000, -0.524800
  0.599000, -0.529500
  0.601000, -0.534500
  0.603000, -0.540100
  0.605000, -0.546100
  0.607000, -0.552100
  0.609000, -0.558000
  0.611000, -0.564200
  0.613000, -0.570400
  0.615000, -0.576700
  0.617000, -0.582700
  0.619000, -0.588600
  0.621000, -0.594500
  0.623000, -0.600200
  0.625000, -0.605600
  0.627000, -0.610600
  0.629000, -0.615400
  0.631000, -0.620000
  0.633000, -0.624100
  0.635000, -0.627600
  0.637000, -0.630800
  0.639000, -0.633500
  0.641000, -0.635800
  0.643000, -0.637700
  0.645000, -0.639000
  0.647000, -0.639900
  0.649000, -0.640300
  0.651000, -0.640100
  0.653000, -0.639500
  0.655000, -0.638300
  0.657000, -0.636600
  0.659000, -0.634400
  0.661000, -0.631600
  0.663000, -0.628400
  0.665000, -0.624600
  0.667000, -0.620300
  0.669000, -0.615500
  0.671000, -0.610200
  0.673000, -0.604500
  0.675000, -0.598200
  0.677000, -0.591600
  0.679000, -0.584500
  0.681000, -0.577100
  0.683000, -0.569100
  0.685000, -0.560600
  0.687000, -0.551800
  0.689000, -0.542700
  0.691000, -0.533200
  0.693000, -0.523300
  0.695000, -0.513200
  0.697000, -0.502700
  0.699000, -0.491800
  0.701000, -0.480800
  0.703000, -0.469400
  0.705000, -0.457800
  0.707000, -0.446000
  0.709000, -0.433800
  0.711000, -0.421400
  0.713000, -0.409100
  0.715000, -0.396500
  0.717000, -0.383800
  0.719000, -0.371000
  0.721000, -0.358000
  0.723000, -0.345100
  0.725000, -0.332000
  0.727000, -0.318900
  0.729000, -0.305800
  0.731000, -0.292700
  0.733000, -0.279500
  0.735000, -0.266400
  0.737000, -0.253400
  0.739000, -0.240400
  0.741000, -0.227500
  0.743000, -0.214700
  0.745000, -0.202000
  0.747000, -0.189400
  0.749000, -0.176800
  0.751000, -0.164500
  0.753000, -0.152400
  0.755000, -0.140400
  0.757000, -0.128600
  0.759000, -0.117000
  0.761000, -0.105700
  0.763000, -0.094600
  0.765000, -0.083700
  0.767000, -0.073000
  0.769000, -0.062700
  0.771000, -0.052600
  0.773000, -0.042800
  0.775000, -0.033300
  0.777000, -0.024100
  0.779000, -0.015200
  0.781000, -0.006600
  0.783000,  0.001700
  0.785000,  0.009600
  0.787000,  0.017100
  0.789000,  0.024300
  0.791000,  0.031200
  0.793000,  0.037800
  0.795000,  0.043900
  0.797000,  0.049600
  0.799000,  0.055100
  0.801000,  0.060200
  0.803000,  0.065000
  0.805000,  0.069400
  0.807000,  0.073300
  0.809000,  0.076900
  0.811000,  0.080300
  0.813000,  0.083300
  0.815000,  0.086000
  0.817000,  0.088500
  0.819000,  0.090500
  0.821000,  0.092200
  0.823000,  0.093600
  0.825000,  0.094800
  0.827000,  0.095700
  0.829000,  0.096400
  0.831000,  0.096700
  0.833000,  0.096900
  0.835000,  0.096800
  0.837000,  0.096300
  0.839000,  0.095600
  0.841000,  0.094800
  0.843000,  0.093800
  0.845000,  0.092600
  0.847000,  0.091300
  0.849000,  0.089800
  0.851000,  0.088100
  0.853000,  0.086200
  0.855000,  0.084300
  0.857000,  0.082400
  0.859000,  0.080300
  0.861000,  0.078100
  0.863000,  0.075800
  0.865000,  0.073400
  0.867000,  0.070800
  0.869000,  0.068200
  0.871000,  0.065600
  0.873000,  0.062900
  0.875000,  0.060300
  0.877000,  0.057700
  0.879000,  0.055000
  0.881000,  0.052200
  0.883000,  0.049500
  0.885000,  0.046800
  0.887000,  0.043900
  0.889000,  0.041200
  0.891000,  0.038500
  0.893000,  0.035800
  0.895000,  0.033100
  0.897000,  0.030400
  0.899000,  0.027700
  0.901000,  0.025000
  0.903000,  0.022400
  0.905000,  0.019800
  0.907000,  0.017200
  0.909000,  0.014600
  0.911000,  0.012100
  0.913000,  0.009600
  0.915000,  0.007100
  0.917000,  0.004700
  0.919000,  0.002300
  0.921000, -0.000100
  0.923000, -0.002400
  0.925000, -0.004700
  0.927000, -0.007100
  0.929000, -0.009300
  0.931000, -0.011600
  0.933000, -0.013800
  0.935000, -0.016100
  0.937000, -0.018300
  0.939000, -0.020400
  0.941000, -0.022500
  0.943000, -0.024600
  0.945000, -0.026600
  0.947000, -0.028600
  0.949000, -0.030500
  0.951000, -0.032500
  0.953000, -0.034400
  0.955000, -0.036100
  0.957000, -0.037800
  0.959000, -0.039600
  0.961000, -0.041200
  0.963000, -0.042800
  0.965000, -0.044300
  0.967000, -0.045700
  0.969000, -0.047100
  0.971000, -0.048400
  0.973000, -0.049600
  0.975000, -0.050800
  0.977000, -0.051800
  0.979000, -0.052700
  0.981000, -0.053500
  0.983000, -0.054200
  0.985000, -0.055000
  0.987000, -0.055500
  0.989000, -0.055900
  0.991000, -0.056200
  0.993000, -0.056300
  0.995000, -0.056300
  0.997000, -0.056100
  0.999000, -0.055800
  1.001000, -0.055600
  1.003000, -0.055100
  1.005000, -0.054500
  1.007000, -0.053600
  1.009000, -0.052800
  1.011000, -0.051800
  1.013000, -0.050800
  1.015000, -0.049700
  1.017000, -0.048400
  1.019000, -0.047100
  1.021000, -0.045700
  1.023000, -0.044100
  1.025000, -0.042400
  1.027000, -0.040500
  1.029000, -0.038600
  1.031000, -0.036700
  1.033000, -0.034900
  1.035000, -0.032900
  1.037000, -0.030900
  1.039000, -0.028800
  1.041000, -0.026700
  1.043000, -0.024700
  1.045000, -0.022600
  1.047000, -0.020400
  1.049000, -0.018200
  1.051000, -0.016000
  1.053000, -0.013900
  1.055000, -0.011800
  1.057000, -0.009700
  1.059000, -0.007700
  1.061000, -0.005700
  1.063000, -0.003700
  1.065000, -0.001800
  1.067000,  0.000200
  1.069000,  0.002100
  1.071000,  0.003900
  1.073000,  0.005600
  1.075000,  0.007400
  1.077000,  0.009100
  1.079000,  0.010800
  1.081000,  0.012500
  1.083000,  0.014100
  1.085000,  0.015800
  1.087000,  0.017300
  1.089000,  0.018600
  1.091000,  0.020000
  1.093000,  0.021400
  1.095000,  0.022800
  1.097000,  0.024200
  1.099000,  0.025400
  1.101000,  0.026500
  1.103000,  0.027700
  1.105000,  0.029000
  1.107000,  0.030000
  1.109000,  0.031000
  1.111000,  0.032000
  1.113000,  0.033100
  1.115000,  0.034200
  1.117000,  0.035300
  1.119000,  0.036300
  1.121000,  0.037300
  1.123000,  0.038400
  1.125000,  0.039300
  1.127000,  0.040200
  1.129000,  0.041400
  1.131000,  0.042300
  1.133000,  0.043200
  1.135000,  0.043900
  1.137000,  0.044400
  1.139000,  0.044900
  1.141000,  0.045200
  1.143000,  0.045800
  1.145000,  0.046300
  1.147000,  0.046700
  1.149000,  0.047000
  1.151000,  0.047300
  1.153000,  0.047500
  1.155000,  0.047600
  1.157000,  0.047500
  1.159000,  0.047400
  1.161000,  0.047300
  1.163000,  0.047000
  1.165000,  0.046600
  1.167000,  0.046000
  1.169000,  0.045500
  1.171000,  0.044800
  1.173000,  0.044100
  1.175000,  0.043400
  1.177000,  0.042400
  1.179000,  0.041300
  1.181000,  0.040000
  1.183000,  0.038600
  1.185000,  0.037000
  1.187000,  0.035400
  1.189000,  0.033700
  1.191000,  0.031800
  1.193000,  0.029800
  1.195000,  0.027700
  1.197000,  0.025700
  1.199000,  0.023500
  1.201000,  0.021300
  1.203000,  0.018900
  1.205000,  0.016400
  1.207000,  0.013700
  1.209000,  0.010900
  1.211000,  0.008200
  1.213000,  0.005500
  1.215000,  0.002700
  1.217000, -0.000200
  1.219000, -0.003100
  1.221000, -0.006000
  1.223000, -0.008900
  1.225000, -0.011900
  1.227000, -0.014800
  1.229000, -0.017800
  1.231000, -0.020700
  1.233000, -0.023700
  1.235000, -0.026500
  1.237000, -0.029300
  1.239000, -0.031900
  1.241000, -0.034500
  1.243000, -0.037100
  1.245000, -0.039500
  1.247000, -0.042000
  1.249000, -0.044300
  1.251000, -0.046400
  1.253000, -0.048400
  1.255000, -0.050300
  1.257000, -0.052000
  1.259000, -0.053600
  1.261000, -0.055100
  1.263000, -0.056400
  1.265000, -0.057500
  1.267000, -0.058400
  1.269000, -0.059200
  1.271000, -0.059700
  1.273000, -0.060100
  1.275000, -0.060300
  1.277000, -0.060400
  1.279000, -0.060200
  1.281000, -0.059800
  1.283000, -0.059100
  1.285000, -0.058300
  1.287000, -0.057300
  1.289000, -0.056100
  1.291000, -0.054700
  1.293000, -0.053100
  1.295000, -0.051300
  1.297000, -0.049400
  1.299000, -0.047300
  1.301000, -0.045000
  1.303000, -0.042600
  1.305000, -0.040100
  1.307000, -0.037400
  1.309000, -0.034500
  1.311000, -0.031500
  1.313000, -0.028400
  1.315000, -0.025200
  1.317000, -0.021800
  1.319000, -0.018400
  1.321000, -0.014700
  1.323000, -0.011000
  1.325000, -0.007200
  1.327000, -0.003500
  1.329000,  0.000400
  1.331000,  0.004400
  1.333000,  0.008400
  1.335000,  0.012400
  1.337000,  0.016400
  1.339000,  0.020400
  1.341000,  0.024400
  1.343000,  0.028300
  1.345000,  0.032300
  1.347000,  0.036200
  1.349000,  0.040100
  1.351000,  0.043800
  1.353000,  0.047500
  1.355000,  0.051100
  1.357000,  0.054400
  1.359000,  0.057700
  1.361000,  0.061000
  1.363000,  0.064100
  1.365000,  0.067100
  1.367000,  0.069900
  1.369000,  0.072600
  1.371000,  0.075000
  1.373000,  0.077300
  1.375000,  0.079400
  1.377000,  0.081400
  1.379000,  0.083100
  1.381000,  0.084400
  1.383000,  0.085600
  1.385000,  0.086500
  1.387000,  0.087100
  1.389000,  0.087400
  1.391000,  0.087400
  1.393000,  0.087100
  1.395000,  0.086500
  1.397000,  0.085500
  1.399000,  0.084100
