# z (nm)   (kJ/mol)
  0.119000,  8.248300
  0.121000,  7.903400
  0.123000,  7.537800
  0.125000,  7.170300
  0.127000,  6.809700
  0.129000,  6.424900
  0.131000,  6.013500
  0.133000,  5.609200
  0.135000,  5.199700
  0.137000,  4.778800
  0.139000,  4.361200
  0.141000,  3.944700
  0.143000,  3.522900
  0.145000,  3.093100
  0.147000,  2.662200
  0.149000,  2.233900
  0.151000,  1.807300
  0.153000,  1.380800
  0.155000,  0.953300
  0.157000,  0.526800
  0.159000,  0.106200
  0.161000, -0.308900
  0.163000, -0.718800
  0.165000, -1.122600
  0.167000, -1.523600
  0.169000, -1.920100
  0.171000, -2.308800
  0.173000, -2.688400
  0.175000, -3.061700
  0.177000, -3.430100
  0.179000, -3.789100
  0.181000, -4.135900
  0.183000, -4.473900
  0.185000, -4.804600
  0.187000, -5.125900
  0.189000, -5.436600
  0.191000, -5.737200
  0.193000, -6.028800
  0.195000, -6.309400
  0.197000, -6.577400
  0.199000, -6.833000
  0.201000, -7.077400
  0.203000, -7.310300
  0.205000, -7.531900
  0.207000, -7.743000
  0.209000, -7.942600
  0.211000, -8.129400
  0.213000, -8.303800
  0.215000, -8.465800
  0.217000, -8.615000
  0.219000, -8.752100
  0.221000, -8.877200
  0.223000, -8.990200
  0.225000, -9.091000
  0.227000, -9.180000
  0.229000, -9.257100
  0.231000, -9.322600
  0.233000, -9.376300
  0.235000, -9.418700
  0.237000, -9.450300
  0.239000, -9.471600
  0.241000, -9.481700
  0.243000, -9.481200
  0.245000, -9.471800
  0.247000, -9.452900
  0.249000, -9.424700
  0.251000, -9.387200
  0.253000, -9.341400
  0.255000, -9.287800
  0.257000, -9.226900
  0.259000, -9.158700
  0.261000, -9.082400
  0.263000, -8.999200
  0.265000, -8.910700
  0.267000, -8.816900
  0.269000, -8.718000
  0.271000, -8.613900
  0.273000, -8.505100
  0.275000, -8.392100
  0.277000, -8.275300
  0.279000, -8.155400
  0.281000, -8.032200
  0.283000, -7.905900
  0.285000, -7.777200
  0.287000, -7.645900
  0.289000, -7.512500
  0.291000, -7.377300
  0.293000, -7.240300
  0.295000, -7.101800
  0.297000, -6.962300
  0.299000, -6.821900
  0.301000, -6.680700
  0.303000, -6.538800
  0.305000, -6.396300
  0.307000, -6.253400
  0.309000, -6.110100
  0.311000, -5.966700
  0.313000, -5.823000
  0.315000, -5.679100
  0.317000, -5.535400
  0.319000, -5.391800
  0.321000, -5.248200
  0.323000, -5.104800
  0.325000, -4.961700
  0.327000, -4.819000
  0.329000, -4.676800
  0.331000, -4.535100
  0.333000, -4.393800
  0.335000, -4.252600
  0.337000, -4.111900
  0.339000, -3.971800
  0.341000, -3.832200
  0.343000, -3.693400
  0.345000, -3.555200
  0.347000, -3.417400
  0.349000, -3.280200
  0.351000, -3.144000
  0.353000, -3.008700
  0.355000, -2.874000
  0.357000, -2.739900
  0.359000, -2.606800
  0.361000, -2.474000
  0.363000, -2.342000
  0.365000, -2.211300
  0.367000, -2.081700
  0.369000, -1.953500
  0.371000, -1.826300
  0.373000, -1.700300
  0.375000, -1.575600
  0.377000, -1.452100
  0.379000, -1.329900
  0.381000, -1.209300
  0.383000, -1.090400
  0.385000, -0.972800
  0.387000, -0.856800
  0.389000, -0.742400
  0.391000, -0.629500
  0.393000, -0.517900
  0.395000, -0.408500
  0.397000, -0.301600
  0.399000, -0.196700
  0.401000, -0.094300
  0.403000,  0.005800
  0.405000,  0.103700
  0.407000,  0.199700
  0.409000,  0.293400
  0.411000,  0.384500
  0.413000,  0.472500
  0.415000,  0.557400
  0.417000,  0.640100
  0.419000,  0.720700
  0.421000,  0.798200
  0.423000,  0.872000
  0.425000,  0.942800
  0.427000,  1.010900
  0.429000,  1.076000
  0.431000,  1.138000
  0.433000,  1.196800
  0.435000,  1.252400
  0.437000,  1.304700
  0.439000,  1.353700
  0.441000,  1.399200
  0.443000,  1.441000
  0.445000,  1.479500
  0.447000,  1.514300
  0.449000,  1.545700
  0.451000,  1.573900
  0.453000,  1.598800
  0.455000,  1.620200
  0.457000,  1.638200
  0.459000,  1.652800
  0.461000,  1.663900
  0.463000,  1.671600
  0.465000,  1.675900
  0.467000,  1.677100
  0.469000,  1.675000
  0.471000,  1.669800
  0.473000,  1.661300
  0.475000,  1.649800
  0.477000,  1.635000
  0.479000,  1.617400
  0.481000,  1.597200
  0.483000,  1.574300
  0.485000,  1.548700
  0.487000,  1.520700
  0.489000,  1.490300
  0.491000,  1.457600
  0.493000,  1.422700
  0.495000,  1.385800
  0.497000,  1.347100
  0.499000,  1.306600
  0.501000,  1.264700
  0.503000,  1.221000
  0.505000,  1.176100
  0.507000,  1.129800
  0.509000,  1.082200
  0.511000,  1.034100
  0.513000,  0.985100
  0.515000,  0.935300
  0.517000,  0.884600
  0.519000,  0.833100
  0.521000,  0.781600
  0.523000,  0.730000
  0.525000,  0.678100
  0.527000,  0.626400
  0.529000,  0.574900
  0.531000,  0.523600
  0.533000,  0.472500
  0.535000,  0.422000
  0.537000,  0.372800
  0.539000,  0.324200
  0.541000,  0.275900
  0.543000,  0.228100
  0.545000,  0.181300
  0.547000,  0.135800
  0.549000,  0.091700
  0.551000,  0.048900
  0.553000,  0.007500
  0.555000, -0.032300
  0.557000, -0.071100
  0.559000, -0.108800
  0.561000, -0.144600
  0.563000, -0.178600
  0.565000, -0.211000
  0.567000, -0.242200
  0.569000, -0.271700
  0.571000, -0.299400
  0.573000, -0.325300
  0.575000, -0.349700
  0.577000, -0.372300
  0.579000, -0.393200
  0.581000, -0.412200
  0.583000, -0.429600
  0.585000, -0.445500
  0.587000, -0.459600
  0.589000, -0.472100
  0.591000, -0.482900
  0.593000, -0.492000
  0.595000, -0.499600
  0.597000, -0.505600
  0.599000, -0.509900
  0.601000, -0.512500
  0.603000, -0.513900
  0.605000, -0.513900
  0.607000, -0.512500
  0.609000, -0.509800
  0.611000, -0.505900
  0.613000, -0.500600
  0.615000, -0.493900
  0.617000, -0.486100
  0.619000, -0.477200
  0.621000, -0.467100
  0.623000, -0.455900
  0.625000, -0.443600
  0.627000, -0.430400
  0.629000, -0.416300
  0.631000, -0.401200
  0.633000, -0.385300
  0.635000, -0.368600
  0.637000, -0.351000
  0.639000, -0.332800
  0.641000, -0.313900
  0.643000, -0.294300
  0.645000, -0.274100
  0.647000, -0.253600
  0.649000, -0.232700
  0.651000, -0.211300
  0.653000, -0.189600
  0.655000, -0.167500
  0.657000, -0.145000
  0.659000, -0.122300
  0.661000, -0.099500
  0.663000, -0.076300
  0.665000, -0.053000
  0.667000, -0.029600
  0.669000, -0.006100
  0.671000,  0.017300
  0.673000,  0.040600
  0.675000,  0.063800
  0.677000,  0.087100
  0.679000,  0.110100
  0.681000,  0.132900
  0.683000,  0.155600
  0.685000,  0.177800
  0.687000,  0.199900
  0.689000,  0.221700
  0.691000,  0.242900
  0.693000,  0.263900
  0.695000,  0.284300
  0.697000,  0.304400
  0.699000,  0.324200
  0.701000,  0.343500
  0.703000,  0.362200
  0.705000,  0.380200
  0.707000,  0.397500
  0.709000,  0.414200
  0.711000,  0.430300
  0.713000,  0.445600
  0.715000,  0.460300
  0.717000,  0.474300
  0.719000,  0.487500
  0.721000,  0.500000
  0.723000,  0.511700
  0.725000,  0.522700
  0.727000,  0.532900
  0.729000,  0.542400
  0.731000,  0.551100
  0.733000,  0.559100
  0.735000,  0.566300
  0.737000,  0.572600
  0.739000,  0.578100
  0.741000,  0.582900
  0.743000,  0.587000
  0.745000,  0.590300
  0.747000,  0.592900
  0.749000,  0.594600
  0.751000,  0.595700
  0.753000,  0.596100
  0.755000,  0.595700
  0.757000,  0.594700
  0.759000,  0.593000
  0.761000,  0.590700
  0.763000,  0.587700
  0.765000,  0.584100
  0.767000,  0.580000
  0.769000,  0.575300
  0.771000,  0.570100
  0.773000,  0.564300
  0.775000,  0.558100
  0.777000,  0.551400
  0.779000,  0.544200
  0.781000,  0.536500
  0.783000,  0.528500
  0.785000,  0.520000
  0.787000,  0.511200
  0.789000,  0.502100
  0.791000,  0.492800
  0.793000,  0.483100
  0.795000,  0.473100
  0.797000,  0.463000
  0.799000,  0.452600
  0.801000,  0.442000
  0.803000,  0.431200
  0.805000,  0.420300
  0.807000,  0.409200
  0.809000,  0.397900
  0.811000,  0.386800
  0.813000,  0.375600
  0.815000,  0.364400
  0.817000,  0.353000
  0.819000,  0.341600
  0.821000,  0.330400
  0.823000,  0.319200
  0.825000,  0.308000
  0.827000,  0.296900
  0.829000,  0.285800
  0.831000,  0.274800
  0.833000,  0.263800
  0.835000,  0.252800
  0.837000,  0.242000
  0.839000,  0.231400
  0.841000,  0.220900
  0.843000,  0.210700
  0.845000,  0.200400
  0.847000,  0.190400
  0.849000,  0.180600
  0.851000,  0.171000
  0.853000,  0.161500
  0.855000,  0.152300
  0.857000,  0.143100
  0.859000,  0.134100
  0.861000,  0.125200
  0.863000,  0.116700
  0.865000,  0.108400
  0.867000,  0.100200
  0.869000,  0.092500
  0.871000,  0.085100
  0.873000,  0.077900
  0.875000,  0.070800
  0.877000,  0.064000
  0.879000,  0.057700
  0.881000,  0.051700
  0.883000,  0.045800
  0.885000,  0.040200
  0.887000,  0.034900
  0.889000,  0.030000
  0.891000,  0.025600
  0.893000,  0.021400
  0.895000,  0.017500
  0.897000,  0.014000
  0.899000,  0.010900
  0.901000,  0.008100
  0.903000,  0.005800
  0.905000,  0.003900
  0.907000,  0.002200
  0.909000,  0.001000
  0.911000,  0.000100
  0.913000, -0.000300
  0.915000, -0.000500
  0.917000, -0.000200
  0.919000,  0.000400
  0.921000,  0.001200
  0.923000,  0.002500
  0.925000,  0.004100
  0.927000,  0.006100
  0.929000,  0.008300
  0.931000,  0.010900
  0.933000,  0.013800
  0.935000,  0.017000
  0.937000,  0.020400
  0.939000,  0.024300
  0.941000,  0.028400
  0.943000,  0.032800
  0.945000,  0.037500
  0.947000,  0.042300
  0.949000,  0.047200
  0.951000,  0.052400
  0.953000,  0.057900
  0.955000,  0.063500
  0.957000,  0.069100
  0.959000,  0.074800
  0.961000,  0.080500
  0.963000,  0.086400
  0.965000,  0.092400
  0.967000,  0.098500
  0.969000,  0.104600
  0.971000,  0.110600
  0.973000,  0.116600
  0.975000,  0.122500
  0.977000,  0.128400
  0.979000,  0.134300
  0.981000,  0.140200
  0.983000,  0.146000
  0.985000,  0.151500
  0.987000,  0.157100
  0.989000,  0.162500
  0.991000,  0.167600
  0.993000,  0.172600
  0.995000,  0.177400
  0.997000,  0.182000
  0.999000,  0.186400
  1.001000,  0.190600
  1.003000,  0.194600
  1.005000,  0.198400
  1.007000,  0.202100
  1.009000,  0.205500
  1.011000,  0.208700
  1.013000,  0.211800
  1.015000,  0.214700
  1.017000,  0.217300
  1.019000,  0.219700
  1.021000,  0.221900
  1.023000,  0.223900
  1.025000,  0.225600
  1.027000,  0.227100
  1.029000,  0.228500
  1.031000,  0.229600
  1.033000,  0.230600
  1.035000,  0.231300
  1.037000,  0.231900
  1.039000,  0.232400
  1.041000,  0.232600
  1.043000,  0.232600
  1.045000,  0.232500
  1.047000,  0.232200
  1.049000,  0.231700
  1.051000,  0.231100
  1.053000,  0.230300
  1.055000,  0.229300
  1.057000,  0.228200
  1.059000,  0.227100
  1.061000,  0.225800
  1.063000,  0.224400
  1.065000,  0.223000
  1.067000,  0.221400
  1.069000,  0.219600
  1.071000,  0.217800
  1.073000,  0.215900
  1.075000,  0.213900
  1.077000,  0.211700
  1.079000,  0.209500
  1.081000,  0.207100
  1.083000,  0.204600
  1.085000,  0.202100
  1.087000,  0.199400
  1.089000,  0.196700
  1.091000,  0.193900
  1.093000,  0.191100
  1.095000,  0.188300
  1.097000,  0.185400
  1.099000,  0.182400
  1.101000,  0.179200
  1.103000,  0.175800
  1.105000,  0.172600
  1.107000,  0.169400
  1.109000,  0.166100
  1.111000,  0.162600
  1.113000,  0.159100
  1.115000,  0.155600
  1.117000,  0.152000
  1.119000,  0.148300
  1.121000,  0.144600
  1.123000,  0.140800
  1.125000,  0.137000
  1.127000,  0.133300
  1.129000,  0.129400
  1.131000,  0.125500
  1.133000,  0.121700
  1.135000,  0.117800
  1.137000,  0.114000
  1.139000,  0.110200
  1.141000,  0.106300
  1.143000,  0.102500
  1.145000,  0.098700
  1.147000,  0.095000
  1.149000,  0.091200
  1.151000,  0.087500
  1.153000,  0.083900
  1.155000,  0.080300
  1.157000,  0.076800
  1.159000,  0.073300
  1.161000,  0.069700
  1.163000,  0.066200
  1.165000,  0.062700
  1.167000,  0.059300
  1.169000,  0.056000
  1.171000,  0.052700
  1.173000,  0.049500
  1.175000,  0.046300
  1.177000,  0.043300
  1.179000,  0.040300
  1.181000,  0.037400
  1.183000,  0.034500
  1.185000,  0.031600
  1.187000,  0.029000
  1.189000,  0.026500
  1.191000,  0.023900
  1.193000,  0.021400
  1.195000,  0.019000
  1.197000,  0.016700
  1.199000,  0.014400
  1.201000,  0.012200
  1.203000,  0.010100
  1.205000,  0.008000
  1.207000,  0.006000
  1.209000,  0.004100
  1.211000,  0.002300
  1.213000,  0.000600
  1.215000, -0.001100
  1.217000, -0.002700
  1.219000, -0.004200
  1.221000, -0.005500
  1.223000, -0.006800
  1.225000, -0.008100
  1.227000, -0.009400
  1.229000, -0.010600
  1.231000, -0.011800
  1.233000, -0.012700
  1.235000, -0.013500
  1.237000, -0.014400
  1.239000, -0.015200
  1.241000, -0.015900
  1.243000, -0.016600
  1.245000, -0.017200
  1.247000, -0.017800
  1.249000, -0.018300
  1.251000, -0.018800
  1.253000, -0.019400
  1.255000, -0.019900
  1.257000, -0.020400
  1.259000, -0.020800
  1.261000, -0.021100
  1.263000, -0.021300
  1.265000, -0.021600
  1.267000, -0.021800
  1.269000, -0.021900
  1.271000, -0.022000
  1.273000, -0.022000
  1.275000, -0.022200
  1.277000, -0.022300
  1.279000, -0.022200
  1.281000, -0.022100
  1.283000, -0.022000
  1.285000, -0.021800
  1.287000, -0.021500
  1.289000, -0.021300
  1.291000, -0.020900
  1.293000, -0.020600
  1.295000, -0.020200
  1.297000, -0.019800
  1.299000, -0.019300
  1.301000, -0.018700
  1.303000, -0.018100
  1.305000, -0.017500
  1.307000, -0.016900
  1.309000, -0.016200
  1.311000, -0.015400
  1.313000, -0.014500
  1.315000, -0.013500
  1.317000, -0.012500
  1.319000, -0.011500
  1.321000, -0.010300
  1.323000, -0.009100
  1.325000, -0.007900
  1.327000, -0.006600
  1.329000, -0.005100
  1.331000, -0.003600
  1.333000, -0.002100
  1.335000, -0.000400
  1.337000,  0.001300
  1.339000,  0.003000
  1.341000,  0.004800
  1.343000,  0.006700
  1.345000,  0.008600
  1.347000,  0.010500
  1.349000,  0.012500
  1.351000,  0.014500
  1.353000,  0.016600
  1.355000,  0.018800
  1.357000,  0.020900
  1.359000,  0.023000
  1.361000,  0.025100
  1.363000,  0.027100
  1.365000,  0.028900
  1.367000,  0.030700
  1.369000,  0.032400
  1.371000,  0.034200
  1.373000,  0.036000
  1.375000,  0.037600
  1.377000,  0.039000
  1.379000,  0.040300
  1.381000,  0.041300
  1.383000,  0.042200
  1.385000,  0.042900
  1.387000,  0.043400
  1.389000,  0.043600
  1.391000,  0.043600
  1.393000,  0.043400
  1.395000,  0.042800
  1.397000,  0.042000
  1.399000,  0.040700
