# z (nm)   (kJ/mol)
  0.229000, 10.990000
  0.231000, 10.658600
  0.233000, 10.316900
  0.235000, 10.006300
  0.237000,  9.695100
  0.239000,  9.368700
  0.241000,  9.050600
  0.243000,  8.725100
  0.245000,  8.378100
  0.247000,  8.026800
  0.249000,  7.670800
  0.251000,  7.313700
  0.253000,  6.966900
  0.255000,  6.620100
  0.257000,  6.263100
  0.259000,  5.898000
  0.261000,  5.533200
  0.263000,  5.169700
  0.265000,  4.807200
  0.267000,  4.446100
  0.269000,  4.085400
  0.271000,  3.728200
  0.273000,  3.376000
  0.275000,  3.023900
  0.277000,  2.674300
  0.279000,  2.332500
  0.281000,  1.994900
  0.283000,  1.660600
  0.285000,  1.333200
  0.287000,  1.010500
  0.289000,  0.694900
  0.291000,  0.387000
  0.293000,  0.082900
  0.295000, -0.214900
  0.297000, -0.503000
  0.299000, -0.783500
  0.301000, -1.057300
  0.303000, -1.322500
  0.305000, -1.580800
  0.307000, -1.832000
  0.309000, -2.073000
  0.311000, -2.305000
  0.313000, -2.530300
  0.315000, -2.746800
  0.317000, -2.955000
  0.319000, -3.153100
  0.321000, -3.341300
  0.323000, -3.521000
  0.325000, -3.691700
  0.327000, -3.853400
  0.329000, -4.006400
  0.331000, -4.150900
  0.333000, -4.285800
  0.335000, -4.411500
  0.337000, -4.528400
  0.339000, -4.636100
  0.341000, -4.735200
  0.343000, -4.825600
  0.345000, -4.907100
  0.347000, -4.979900
  0.349000, -5.043900
  0.351000, -5.099100
  0.353000, -5.146500
  0.355000, -5.185600
  0.357000, -5.216600
  0.359000, -5.240100
  0.361000, -5.255500
  0.363000, -5.263200
  0.365000, -5.263200
  0.367000, -5.256300
  0.369000, -5.243100
  0.371000, -5.223300
  0.373000, -5.197100
  0.375000, -5.165200
  0.377000, -5.127800
  0.379000, -5.084500
  0.381000, -5.035800
  0.383000, -4.981900
  0.385000, -4.923200
  0.387000, -4.860300
  0.389000, -4.793400
  0.391000, -4.722300
  0.393000, -4.646800
  0.395000, -4.567800
  0.397000, -4.485800
  0.399000, -4.400600
  0.401000, -4.312400
  0.403000, -4.221300
  0.405000, -4.127600
  0.407000, -4.031900
  0.409000, -3.934400
  0.411000, -3.835000
  0.413000, -3.734200
  0.415000, -3.632100
  0.417000, -3.528800
  0.419000, -3.424200
  0.421000, -3.318300
  0.423000, -3.211400
  0.425000, -3.104000
  0.427000, -2.996300
  0.429000, -2.888200
  0.431000, -2.780000
  0.433000, -2.671500
  0.435000, -2.563000
  0.437000, -2.454400
  0.439000, -2.346000
  0.441000, -2.238200
  0.443000, -2.130800
  0.445000, -2.024000
  0.447000, -1.917700
  0.449000, -1.812200
  0.451000, -1.707300
  0.453000, -1.603300
  0.455000, -1.500500
  0.457000, -1.398600
  0.459000, -1.297700
  0.461000, -1.198000
  0.463000, -1.099400
  0.465000, -1.002100
  0.467000, -0.906400
  0.469000, -0.812100
  0.471000, -0.719300
  0.473000, -0.627800
  0.475000, -0.538000
  0.477000, -0.450000
  0.479000, -0.363700
  0.481000, -0.279300
  0.483000, -0.197000
  0.485000, -0.116600
  0.487000, -0.037900
  0.489000,  0.039100
  0.491000,  0.114100
  0.493000,  0.187200
  0.495000,  0.258200
  0.497000,  0.327000
  0.499000,  0.393800
  0.501000,  0.458500
  0.503000,  0.521000
  0.505000,  0.581100
  0.507000,  0.639100
  0.509000,  0.694900
  0.511000,  0.748700
  0.513000,  0.800200
  0.515000,  0.849100
  0.517000,  0.895900
  0.519000,  0.940500
  0.521000,  0.982700
  0.523000,  1.022700
  0.525000,  1.060400
  0.527000,  1.095800
  0.529000,  1.128900
  0.531000,  1.159600
  0.533000,  1.188000
  0.535000,  1.213900
  0.537000,  1.237400
  0.539000,  1.258400
  0.541000,  1.277100
  0.543000,  1.293600
  0.545000,  1.307600
  0.547000,  1.319300
  0.549000,  1.328900
  0.551000,  1.336100
  0.553000,  1.340900
  0.555000,  1.343400
  0.557000,  1.343700
  0.559000,  1.341600
  0.561000,  1.337300
  0.563000,  1.330800
  0.565000,  1.322200
  0.567000,  1.311400
  0.569000,  1.298500
  0.571000,  1.283700
  0.573000,  1.266900
  0.575000,  1.248100
  0.577000,  1.227400
  0.579000,  1.204600
  0.581000,  1.179900
  0.583000,  1.153400
  0.585000,  1.125000
  0.587000,  1.094900
  0.589000,  1.063300
  0.591000,  1.030400
  0.593000,  0.996100
  0.595000,  0.960400
  0.597000,  0.923400
  0.599000,  0.885300
  0.601000,  0.846000
  0.603000,  0.805400
  0.605000,  0.763800
  0.607000,  0.721200
  0.609000,  0.677600
  0.611000,  0.633400
  0.613000,  0.588900
  0.615000,  0.543700
  0.617000,  0.497800
  0.619000,  0.451500
  0.621000,  0.404900
  0.623000,  0.358200
  0.625000,  0.311100
  0.627000,  0.263900
  0.629000,  0.216700
  0.631000,  0.169600
  0.633000,  0.122800
  0.635000,  0.076300
  0.637000,  0.030400
  0.639000, -0.015200
  0.641000, -0.060100
  0.643000, -0.104400
  0.645000, -0.148200
  0.647000, -0.191200
  0.649000, -0.233200
  0.651000, -0.273900
  0.653000, -0.313700
  0.655000, -0.352600
  0.657000, -0.390600
  0.659000, -0.427300
  0.661000, -0.462700
  0.663000, -0.497000
  0.665000, -0.530000
  0.667000, -0.561400
  0.669000, -0.591300
  0.671000, -0.619900
  0.673000, -0.647200
  0.675000, -0.672800
  0.677000, -0.697000
  0.679000, -0.719600
  0.681000, -0.740700
  0.683000, -0.760000
  0.685000, -0.777900
  0.687000, -0.794200
  0.689000, -0.809000
  0.691000, -0.822200
  0.693000, -0.833800
  0.695000, -0.843600
  0.697000, -0.851900
  0.699000, -0.858800
  0.701000, -0.864200
  0.703000, -0.868000
  0.705000, -0.870400
  0.707000, -0.871200
  0.709000, -0.870700
  0.711000, -0.868800
  0.713000, -0.865500
  0.715000, -0.860900
  0.717000, -0.855100
  0.719000, -0.848000
  0.721000, -0.839700
  0.723000, -0.830300
  0.725000, -0.819700
  0.727000, -0.808000
  0.729000, -0.795500
  0.731000, -0.782000
  0.733000, -0.767600
  0.735000, -0.752200
  0.737000, -0.736000
  0.739000, -0.719100
  0.741000, -0.701500
  0.743000, -0.683200
  0.745000, -0.664300
  0.747000, -0.645000
  0.749000, -0.625400
  0.751000, -0.605200
  0.753000, -0.584700
  0.755000, -0.563600
  0.757000, -0.542200
  0.759000, -0.520700
  0.761000, -0.499000
  0.763000, -0.477200
  0.765000, -0.455300
  0.767000, -0.433200
  0.769000, -0.411300
  0.771000, -0.389400
  0.773000, -0.367400
  0.775000, -0.345600
  0.777000, -0.323900
  0.779000, -0.302200
  0.781000, -0.280900
  0.783000, -0.259900
  0.785000, -0.239200
  0.787000, -0.218700
  0.789000, -0.198600
  0.791000, -0.178800
  0.793000, -0.159300
  0.795000, -0.140200
  0.797000, -0.121500
  0.799000, -0.103200
  0.801000, -0.085300
  0.803000, -0.067800
  0.805000, -0.050800
  0.807000, -0.034200
  0.809000, -0.018300
  0.811000, -0.002700
  0.813000,  0.012400
  0.815000,  0.026800
  0.817000,  0.040600
  0.819000,  0.054000
  0.821000,  0.066800
  0.823000,  0.079100
  0.825000,  0.090900
  0.827000,  0.102100
  0.829000,  0.112800
  0.831000,  0.122900
  0.833000,  0.132600
  0.835000,  0.141700
  0.837000,  0.150300
  0.839000,  0.158400
  0.841000,  0.165900
  0.843000,  0.172800
  0.845000,  0.179300
  0.847000,  0.185300
  0.849000,  0.190800
  0.851000,  0.195900
  0.853000,  0.200400
  0.855000,  0.204400
  0.857000,  0.207800
  0.859000,  0.210600
  0.861000,  0.213100
  0.863000,  0.215000
  0.865000,  0.216400
  0.867000,  0.217300
  0.869000,  0.217900
  0.871000,  0.218000
  0.873000,  0.217500
  0.875000,  0.216600
  0.877000,  0.215300
  0.879000,  0.213600
  0.881000,  0.211400
  0.883000,  0.208900
  0.885000,  0.206100
  0.887000,  0.202800
  0.889000,  0.199100
  0.891000,  0.194900
  0.893000,  0.190400
  0.895000,  0.185600
  0.897000,  0.180500
  0.899000,  0.175000
  0.901000,  0.169200
  0.903000,  0.162900
  0.905000,  0.156300
  0.907000,  0.149400
  0.909000,  0.142300
  0.911000,  0.134900
  0.913000,  0.127300
  0.915000,  0.119400
  0.917000,  0.111200
  0.919000,  0.102900
  0.921000,  0.094300
  0.923000,  0.085400
  0.925000,  0.076400
  0.927000,  0.067400
  0.929000,  0.058100
  0.931000,  0.048700
  0.933000,  0.039200
  0.935000,  0.029500
  0.937000,  0.019900
  0.939000,  0.010100
  0.941000,  0.000200
  0.943000, -0.009700
  0.945000, -0.019500
  0.947000, -0.029300
  0.949000, -0.039100
  0.951000, -0.049000
  0.953000, -0.058900
  0.955000, -0.068700
  0.957000, -0.078300
  0.959000, -0.087900
  0.961000, -0.097300
  0.963000, -0.106600
  0.965000, -0.115700
  0.967000, -0.124800
  0.969000, -0.133700
  0.971000, -0.142400
  0.973000, -0.150900
  0.975000, -0.159200
  0.977000, -0.167200
  0.979000, -0.175100
  0.981000, -0.182700
  0.983000, -0.190200
  0.985000, -0.197300
  0.987000, -0.204100
  0.989000, -0.210600
  0.991000, -0.216800
  0.993000, -0.222700
  0.995000, -0.228200
  0.997000, -0.233400
  0.999000, -0.238300
  1.001000, -0.242800
  1.003000, -0.247000
  1.005000, -0.250900
  1.007000, -0.254400
  1.009000, -0.257500
  1.011000, -0.260300
  1.013000, -0.262800
  1.015000, -0.264900
  1.017000, -0.266500
  1.019000, -0.267800
  1.021000, -0.268700
  1.023000, -0.269300
  1.025000, -0.269500
  1.027000, -0.269300
  1.029000, -0.268800
  1.031000, -0.267900
  1.033000, -0.266700
  1.035000, -0.265200
  1.037000, -0.263200
  1.039000, -0.260900
  1.041000, -0.258300
  1.043000, -0.255400
  1.045000, -0.252100
  1.047000, -0.248600
  1.049000, -0.244700
  1.051000, -0.240500
  1.053000, -0.236000
  1.055000, -0.231300
  1.057000, -0.226500
  1.059000, -0.221400
  1.061000, -0.216000
  1.063000, -0.210500
  1.065000, -0.204700
  1.067000, -0.198800
  1.069000, -0.192600
  1.071000, -0.186200
  1.073000, -0.179700
  1.075000, -0.173300
  1.077000, -0.166700
  1.079000, -0.159900
  1.081000, -0.153100
  1.083000, -0.146300
  1.085000, -0.139400
  1.087000, -0.132600
  1.089000, -0.125700
  1.091000, -0.118700
  1.093000, -0.111800
  1.095000, -0.105000
  1.097000, -0.098200
  1.099000, -0.091400
  1.101000, -0.084800
  1.103000, -0.078200
  1.105000, -0.071700
  1.107000, -0.065400
  1.109000, -0.059100
  1.111000, -0.053000
  1.113000, -0.047100
  1.115000, -0.041300
  1.117000, -0.035700
  1.119000, -0.030300
  1.121000, -0.025000
  1.123000, -0.019800
  1.125000, -0.014900
  1.127000, -0.010200
  1.129000, -0.005700
  1.131000, -0.001400
  1.133000,  0.002700
  1.135000,  0.006600
  1.137000,  0.010200
  1.139000,  0.013600
  1.141000,  0.016800
  1.143000,  0.019700
  1.145000,  0.022400
  1.147000,  0.025000
  1.149000,  0.027300
  1.151000,  0.029400
  1.153000,  0.031200
  1.155000,  0.032900
  1.157000,  0.034300
  1.159000,  0.035600
  1.161000,  0.036600
  1.163000,  0.037600
  1.165000,  0.038300
  1.167000,  0.038800
  1.169000,  0.039300
  1.171000,  0.039500
  1.173000,  0.039600
  1.175000,  0.039500
  1.177000,  0.039300
  1.179000,  0.039000
  1.181000,  0.038500
  1.183000,  0.038000
  1.185000,  0.037400
  1.187000,  0.036800
  1.189000,  0.036000
  1.191000,  0.035200
  1.193000,  0.034200
  1.195000,  0.033200
  1.197000,  0.032300
  1.199000,  0.031300
  1.201000,  0.030200
  1.203000,  0.029000
  1.205000,  0.027900
  1.207000,  0.026800
  1.209000,  0.025700
  1.211000,  0.024500
  1.213000,  0.023300
  1.215000,  0.022100
  1.217000,  0.020900
  1.219000,  0.019800
  1.221000,  0.018600
  1.223000,  0.017500
  1.225000,  0.016300
  1.227000,  0.015200
  1.229000,  0.014000
  1.231000,  0.012800
  1.233000,  0.011600
  1.235000,  0.010400
  1.237000,  0.009200
  1.239000,  0.008100
  1.241000,  0.006900
  1.243000,  0.005700
  1.245000,  0.004600
  1.247000,  0.003500
  1.249000,  0.002300
  1.251000,  0.001200
  1.253000,  0.000100
  1.255000, -0.001100
  1.257000, -0.002300
  1.259000, -0.003500
  1.261000, -0.004700
  1.263000, -0.005900
  1.265000, -0.007000
  1.267000, -0.008200
  1.269000, -0.009400
  1.271000, -0.010500
  1.273000, -0.011600
  1.275000, -0.012700
  1.277000, -0.013600
  1.279000, -0.014700
  1.281000, -0.015800
  1.283000, -0.016800
  1.285000, -0.017700
  1.287000, -0.018700
  1.289000, -0.019500
  1.291000, -0.020200
  1.293000, -0.021000
  1.295000, -0.021800
  1.297000, -0.022500
  1.299000, -0.023000
  1.301000, -0.023400
  1.303000, -0.023600
  1.305000, -0.023800
  1.307000, -0.024000
  1.309000, -0.024100
  1.311000, -0.024100
  1.313000, -0.024000
  1.315000, -0.023900
  1.317000, -0.023700
  1.319000, -0.023200
  1.321000, -0.022700
  1.323000, -0.022200
  1.325000, -0.021600
  1.327000, -0.020900
  1.329000, -0.020100
  1.331000, -0.019100
  1.333000, -0.018000
  1.335000, -0.016800
  1.337000, -0.015500
  1.339000, -0.014100
  1.341000, -0.012700
  1.343000, -0.011100
  1.345000, -0.009500
  1.347000, -0.007900
  1.349000, -0.006100
  1.351000, -0.004300
  1.353000, -0.002400
  1.355000, -0.000400
  1.357000,  0.001500
  1.359000,  0.003400
  1.361000,  0.005300
  1.363000,  0.007200
  1.365000,  0.009200
  1.367000,  0.011100
  1.369000,  0.012900
  1.371000,  0.014900
  1.373000,  0.016600
  1.375000,  0.018100
  1.377000,  0.019500
  1.379000,  0.020800
  1.381000,  0.021900
  1.383000,  0.022900
  1.385000,  0.023800
  1.387000,  0.024400
  1.389000,  0.024700
  1.391000,  0.024500
  1.393000,  0.023800
  1.395000,  0.023000
  1.397000,  0.021800
  1.399000,  0.020100
