# z (nm)   (kJ/mol)
  0.279000,  9.730600
  0.281000,  9.351900
  0.283000,  8.984700
  0.285000,  8.652700
  0.287000,  8.305900
  0.289000,  7.935700
  0.291000,  7.532300
  0.293000,  7.120700
  0.295000,  6.708700
  0.297000,  6.296700
  0.299000,  5.891800
  0.301000,  5.481300
  0.303000,  5.071700
  0.305000,  4.665800
  0.307000,  4.250300
  0.309000,  3.830400
  0.311000,  3.412200
  0.313000,  2.998800
  0.315000,  2.587300
  0.317000,  2.177900
  0.319000,  1.777200
  0.321000,  1.380400
  0.323000,  0.988200
  0.325000,  0.601000
  0.327000,  0.219600
  0.329000, -0.156300
  0.331000, -0.523700
  0.333000, -0.883800
  0.335000, -1.239000
  0.337000, -1.586000
  0.339000, -1.924000
  0.341000, -2.251300
  0.343000, -2.567500
  0.345000, -2.875800
  0.347000, -3.175600
  0.349000, -3.464100
  0.351000, -3.740800
  0.353000, -4.006400
  0.355000, -4.260900
  0.357000, -4.502700
  0.359000, -4.733400
  0.361000, -4.955300
  0.363000, -5.166200
  0.365000, -5.364300
  0.367000, -5.550300
  0.369000, -5.726300
  0.371000, -5.890900
  0.373000, -6.043400
  0.375000, -6.185100
  0.377000, -6.316000
  0.379000, -6.435500
  0.381000, -6.543600
  0.383000, -6.640700
  0.385000, -6.727100
  0.387000, -6.802500
  0.389000, -6.867400
  0.391000, -6.922000
  0.393000, -6.966100
  0.395000, -6.999700
  0.397000, -7.023200
  0.399000, -7.037800
  0.401000, -7.044000
  0.403000, -7.042500
  0.405000, -7.032300
  0.407000, -7.013500
  0.409000, -6.987900
  0.411000, -6.954700
  0.413000, -6.914500
  0.415000, -6.868200
  0.417000, -6.815500
  0.419000, -6.757500
  0.421000, -6.694000
  0.423000, -6.624900
  0.425000, -6.551500
  0.427000, -6.474500
  0.429000, -6.394200
  0.431000, -6.309800
  0.433000, -6.222500
  0.435000, -6.133600
  0.437000, -6.041900
  0.439000, -5.948100
  0.441000, -5.852800
  0.443000, -5.755600
  0.445000, -5.657700
  0.447000, -5.559200
  0.449000, -5.459900
  0.451000, -5.360500
  0.453000, -5.260800
  0.455000, -5.160700
  0.457000, -5.060500
  0.459000, -4.960700
  0.461000, -4.861100
  0.463000, -4.761800
  0.465000, -4.663100
  0.467000, -4.565100
  0.469000, -4.467900
  0.471000, -4.371400
  0.473000, -4.275500
  0.475000, -4.180300
  0.477000, -4.085700
  0.479000, -3.991800
  0.481000, -3.898900
  0.483000, -3.806900
  0.485000, -3.715400
  0.487000, -3.624800
  0.489000, -3.534800
  0.491000, -3.445500
  0.493000, -3.356900
  0.495000, -3.269100
  0.497000, -3.182000
  0.499000, -3.095500
  0.501000, -3.009800
  0.503000, -2.924800
  0.505000, -2.840200
  0.507000, -2.756100
  0.509000, -2.672800
  0.511000, -2.590100
  0.513000, -2.508000
  0.515000, -2.426600
  0.517000, -2.345800
  0.519000, -2.265700
  0.521000, -2.186100
  0.523000, -2.107100
  0.525000, -2.029200
  0.527000, -1.952000
  0.529000, -1.875800
  0.531000, -1.800400
  0.533000, -1.725700
  0.535000, -1.652000
  0.537000, -1.579200
  0.539000, -1.507600
  0.541000, -1.437100
  0.543000, -1.367600
  0.545000, -1.299300
  0.547000, -1.232200
  0.549000, -1.166600
  0.551000, -1.102600
  0.553000, -1.040100
  0.555000, -0.979100
  0.557000, -0.919600
  0.559000, -0.861700
  0.561000, -0.805700
  0.563000, -0.751500
  0.565000, -0.699100
  0.567000, -0.648600
  0.569000, -0.600100
  0.571000, -0.553500
  0.573000, -0.509000
  0.575000, -0.466700
  0.577000, -0.426600
  0.579000, -0.388600
  0.581000, -0.352800
  0.583000, -0.319200
  0.585000, -0.287800
  0.587000, -0.258600
  0.589000, -0.231700
  0.591000, -0.207100
  0.593000, -0.184700
  0.595000, -0.164800
  0.597000, -0.147100
  0.599000, -0.131600
  0.601000, -0.118300
  0.603000, -0.107200
  0.605000, -0.098500
  0.607000, -0.092000
  0.609000, -0.087500
  0.611000, -0.085200
  0.613000, -0.085000
  0.615000, -0.086700
  0.617000, -0.090300
  0.619000, -0.095700
  0.621000, -0.103200
  0.623000, -0.112600
  0.625000, -0.123600
  0.627000, -0.136200
  0.629000, -0.150300
  0.631000, -0.165800
  0.633000, -0.182800
  0.635000, -0.200800
  0.637000, -0.220000
  0.639000, -0.240600
  0.641000, -0.262600
  0.643000, -0.285400
  0.645000, -0.309100
  0.647000, -0.333600
  0.649000, -0.359000
  0.651000, -0.385000
  0.653000, -0.411500
  0.655000, -0.438400
  0.657000, -0.465600
  0.659000, -0.493100
  0.661000, -0.521000
  0.663000, -0.549000
  0.665000, -0.577200
  0.667000, -0.605200
  0.669000, -0.633200
  0.671000, -0.661200
  0.673000, -0.688900
  0.675000, -0.716400
  0.677000, -0.743600
  0.679000, -0.770400
  0.681000, -0.796900
  0.683000, -0.823000
  0.685000, -0.848400
  0.687000, -0.873200
  0.689000, -0.897300
  0.691000, -0.920700
  0.693000, -0.943500
  0.695000, -0.965600
  0.697000, -0.986800
  0.699000, -1.007100
  0.701000, -1.026700
  0.703000, -1.045500
  0.705000, -1.063500
  0.707000, -1.080500
  0.709000, -1.096500
  0.711000, -1.111500
  0.713000, -1.125600
  0.715000, -1.138800
  0.717000, -1.151000
  0.719000, -1.162300
  0.721000, -1.172500
  0.723000, -1.181600
  0.725000, -1.189800
  0.727000, -1.197200
  0.729000, -1.203400
  0.731000, -1.208800
  0.733000, -1.213400
  0.735000, -1.217000
  0.737000, -1.219600
  0.739000, -1.221200
  0.741000, -1.222000
  0.743000, -1.221800
  0.745000, -1.220500
  0.747000, -1.218400
  0.749000, -1.215400
  0.751000, -1.211600
  0.753000, -1.207000
  0.755000, -1.201900
  0.757000, -1.195800
  0.759000, -1.188800
  0.761000, -1.181100
  0.763000, -1.172600
  0.765000, -1.163400
  0.767000, -1.153700
  0.769000, -1.143100
  0.771000, -1.131800
  0.773000, -1.119900
  0.775000, -1.107200
  0.777000, -1.093900
  0.779000, -1.080200
  0.781000, -1.066100
  0.783000, -1.051500
  0.785000, -1.036300
  0.787000, -1.020600
  0.789000, -1.004200
  0.791000, -0.987300
  0.793000, -0.970100
  0.795000, -0.952600
  0.797000, -0.934700
  0.799000, -0.916300
  0.801000, -0.897500
  0.803000, -0.878300
  0.805000, -0.858800
  0.807000, -0.839000
  0.809000, -0.819100
  0.811000, -0.798900
  0.813000, -0.778400
  0.815000, -0.757800
  0.817000, -0.737000
  0.819000, -0.715900
  0.821000, -0.694700
  0.823000, -0.673500
  0.825000, -0.652300
  0.827000, -0.631100
  0.829000, -0.609900
  0.831000, -0.588600
  0.833000, -0.567300
  0.835000, -0.546000
  0.837000, -0.524800
  0.839000, -0.503800
  0.841000, -0.482800
  0.843000, -0.462000
  0.845000, -0.441500
  0.847000, -0.421000
  0.849000, -0.400800
  0.851000, -0.380900
  0.853000, -0.361100
  0.855000, -0.341600
  0.857000, -0.322500
  0.859000, -0.303800
  0.861000, -0.285500
  0.863000, -0.267500
  0.865000, -0.249900
  0.867000, -0.232700
  0.869000, -0.216000
  0.871000, -0.199800
  0.873000, -0.184000
  0.875000, -0.168800
  0.877000, -0.154100
  0.879000, -0.139900
  0.881000, -0.126200
  0.883000, -0.113000
  0.885000, -0.100400
  0.887000, -0.088400
  0.889000, -0.076900
  0.891000, -0.066000
  0.893000, -0.055700
  0.895000, -0.046000
  0.897000, -0.036900
  0.899000, -0.028300
  0.901000, -0.020300
  0.903000, -0.013000
  0.905000, -0.006200
  0.907000,  0.000100
  0.909000,  0.005800
  0.911000,  0.010800
  0.913000,  0.015300
  0.915000,  0.019300
  0.917000,  0.022700
  0.919000,  0.025700
  0.921000,  0.028200
  0.923000,  0.030100
  0.925000,  0.031500
  0.927000,  0.032400
  0.929000,  0.032900
  0.931000,  0.033000
  0.933000,  0.032500
  0.935000,  0.031800
  0.937000,  0.030600
  0.939000,  0.029000
  0.941000,  0.027100
  0.943000,  0.024800
  0.945000,  0.022200
  0.947000,  0.019400
  0.949000,  0.016200
  0.951000,  0.012700
  0.953000,  0.009000
  0.955000,  0.005000
  0.957000,  0.000600
  0.959000, -0.003800
  0.961000, -0.008400
  0.963000, -0.013200
  0.965000, -0.018200
  0.967000, -0.023200
  0.969000, -0.028400
  0.971000, -0.033700
  0.973000, -0.039100
  0.975000, -0.044700
  0.977000, -0.050300
  0.979000, -0.056000
  0.981000, -0.061700
  0.983000, -0.067400
  0.985000, -0.073100
  0.987000, -0.078900
  0.989000, -0.084700
  0.991000, -0.090400
  0.993000, -0.096100
  0.995000, -0.101700
  0.997000, -0.107300
  0.999000, -0.112800
  1.001000, -0.118100
  1.003000, -0.123500
  1.005000, -0.128700
  1.007000, -0.133900
  1.009000, -0.138900
  1.011000, -0.143800
  1.013000, -0.148700
  1.015000, -0.153600
  1.017000, -0.158300
  1.019000, -0.162700
  1.021000, -0.167100
  1.023000, -0.171400
  1.025000, -0.175700
  1.027000, -0.179600
  1.029000, -0.183300
  1.031000, -0.187000
  1.033000, -0.190500
  1.035000, -0.193900
  1.037000, -0.197100
  1.039000, -0.200200
  1.041000, -0.203000
  1.043000, -0.205500
  1.045000, -0.207900
  1.047000, -0.210200
  1.049000, -0.212400
  1.051000, -0.214400
  1.053000, -0.216500
  1.055000, -0.218300
  1.057000, -0.219700
  1.059000, -0.221000
  1.061000, -0.222200
  1.063000, -0.223200
  1.065000, -0.223800
  1.067000, -0.224500
  1.069000, -0.225000
  1.071000, -0.225300
  1.073000, -0.225500
  1.075000, -0.225400
  1.077000, -0.225200
  1.079000, -0.224700
  1.081000, -0.224100
  1.083000, -0.223500
  1.085000, -0.222800
  1.087000, -0.221900
  1.089000, -0.221100
  1.091000, -0.220100
  1.093000, -0.219000
  1.095000, -0.217700
  1.097000, -0.216300
  1.099000, -0.214900
  1.101000, -0.213300
  1.103000, -0.211400
  1.105000, -0.209500
  1.107000, -0.207400
  1.109000, -0.205300
  1.111000, -0.203000
  1.113000, -0.200700
  1.115000, -0.198400
  1.117000, -0.196000
  1.119000, -0.193500
  1.121000, -0.191000
  1.123000, -0.188400
  1.125000, -0.185700
  1.127000, -0.182900
  1.129000, -0.180100
  1.131000, -0.177200
  1.133000, -0.174300
  1.135000, -0.171300
  1.137000, -0.168200
  1.139000, -0.165100
  1.141000, -0.161900
  1.143000, -0.158600
  1.145000, -0.155400
  1.147000, -0.152100
  1.149000, -0.148900
  1.151000, -0.145500
  1.153000, -0.142100
  1.155000, -0.138600
  1.157000, -0.135100
  1.159000, -0.131600
  1.161000, -0.128200
  1.163000, -0.124900
  1.165000, -0.121500
  1.167000, -0.118000
  1.169000, -0.114600
  1.171000, -0.111100
  1.173000, -0.107800
  1.175000, -0.104400
  1.177000, -0.101100
  1.179000, -0.097800
  1.181000, -0.094500
  1.183000, -0.091300
  1.185000, -0.088000
  1.187000, -0.084800
  1.189000, -0.081500
  1.191000, -0.078400
  1.193000, -0.075300
  1.195000, -0.072200
  1.197000, -0.069200
  1.199000, -0.066300
  1.201000, -0.063400
  1.203000, -0.060500
  1.205000, -0.057600
  1.207000, -0.054800
  1.209000, -0.052000
  1.211000, -0.049300
  1.213000, -0.046600
  1.215000, -0.044000
  1.217000, -0.041400
  1.219000, -0.038800
  1.221000, -0.036300
  1.223000, -0.033900
  1.225000, -0.031400
  1.227000, -0.029000
  1.229000, -0.026600
  1.231000, -0.024300
  1.233000, -0.022000
  1.235000, -0.019700
  1.237000, -0.017500
  1.239000, -0.015400
  1.241000, -0.013400
  1.243000, -0.011300
  1.245000, -0.009200
  1.247000, -0.007200
  1.249000, -0.005300
  1.251000, -0.003500
  1.253000, -0.001600
  1.255000,  0.000200
  1.257000,  0.001900
  1.259000,  0.003400
  1.261000,  0.004800
  1.263000,  0.006200
  1.265000,  0.007600
  1.267000,  0.008800
  1.269000,  0.010000
  1.271000,  0.011000
  1.273000,  0.011900
  1.275000,  0.012800
  1.277000,  0.013700
  1.279000,  0.014500
  1.281000,  0.015100
  1.283000,  0.015700
  1.285000,  0.016100
  1.287000,  0.016400
  1.289000,  0.016500
  1.291000,  0.016500
  1.293000,  0.016500
  1.295000,  0.016400
  1.297000,  0.016200
  1.299000,  0.015800
  1.301000,  0.015400
  1.303000,  0.014900
  1.305000,  0.014400
  1.307000,  0.013800
  1.309000,  0.013000
  1.311000,  0.012300
  1.313000,  0.011600
  1.315000,  0.010700
  1.317000,  0.009900
  1.319000,  0.009100
  1.321000,  0.008200
  1.323000,  0.007300
  1.325000,  0.006500
  1.327000,  0.005800
  1.329000,  0.005000
  1.331000,  0.004300
  1.333000,  0.003800
  1.335000,  0.003300
  1.337000,  0.002800
  1.339000,  0.002500
  1.341000,  0.002300
  1.343000,  0.002200
  1.345000,  0.002200
  1.347000,  0.002300
  1.349000,  0.002500
  1.351000,  0.002900
  1.353000,  0.003300
  1.355000,  0.003700
  1.357000,  0.004300
  1.359000,  0.005000
  1.361000,  0.005900
  1.363000,  0.007000
  1.365000,  0.008100
  1.367000,  0.009400
  1.369000,  0.010800
  1.371000,  0.012400
  1.373000,  0.013900
  1.375000,  0.015500
  1.377000,  0.017200
  1.379000,  0.018900
  1.381000,  0.020600
  1.383000,  0.022300
  1.385000,  0.024000
  1.387000,  0.025700
  1.389000,  0.027200
  1.391000,  0.028600
  1.393000,  0.029700
  1.395000,  0.030700
  1.397000,  0.031300
  1.399000,  0.031700
