# z (nm)   (kJ/mol)
  0.343000,  9.252900
  0.347000,  8.670700
  0.349000,  8.250600
  0.351000,  7.823100
  0.353000,  7.385200
  0.355000,  6.954700
  0.357000,  6.524100
  0.359000,  6.085200
  0.361000,  5.650200
  0.363000,  5.211500
  0.365000,  4.776500
  0.367000,  4.345400
  0.369000,  3.915700
  0.371000,  3.485200
  0.373000,  3.057200
  0.375000,  2.637400
  0.377000,  2.220500
  0.379000,  1.804500
  0.381000,  1.396500
  0.383000,  0.998500
  0.385000,  0.603200
  0.387000,  0.215700
  0.389000, -0.160100
  0.391000, -0.527100
  0.393000, -0.883400
  0.395000, -1.230600
  0.397000, -1.566300
  0.399000, -1.888000
  0.401000, -2.197900
  0.403000, -2.496400
  0.405000, -2.783500
  0.407000, -3.058900
  0.409000, -3.320100
  0.411000, -3.567500
  0.413000, -3.802700
  0.415000, -4.024900
  0.417000, -4.233700
  0.419000, -4.429200
  0.421000, -4.610200
  0.423000, -4.777400
  0.425000, -4.931100
  0.427000, -5.070800
  0.429000, -5.196700
  0.431000, -5.309100
  0.433000, -5.408600
  0.435000, -5.494600
  0.437000, -5.568200
  0.439000, -5.629100
  0.441000, -5.676900
  0.443000, -5.712200
  0.445000, -5.735900
  0.447000, -5.747500
  0.449000, -5.747000
  0.451000, -5.735400
  0.453000, -5.713700
  0.455000, -5.681600
  0.457000, -5.640000
  0.459000, -5.588400
  0.461000, -5.526300
  0.463000, -5.456600
  0.465000, -5.379900
  0.467000, -5.296500
  0.469000, -5.206500
  0.471000, -5.109200
  0.473000, -5.005400
  0.475000, -4.896000
  0.477000, -4.782300
  0.479000, -4.664400
  0.481000, -4.542300
  0.483000, -4.417100
  0.485000, -4.288900
  0.487000, -4.158800
  0.489000, -4.027600
  0.491000, -3.894900
  0.493000, -3.760700
  0.495000, -3.626000
  0.497000, -3.491200
  0.499000, -3.356300
  0.501000, -3.221900
  0.503000, -3.088400
  0.505000, -2.955900
  0.507000, -2.824200
  0.509000, -2.693800
  0.511000, -2.565600
  0.513000, -2.440000
  0.515000, -2.316500
  0.517000, -2.195000
  0.519000, -2.076200
  0.521000, -1.960000
  0.523000, -1.846400
  0.525000, -1.735400
  0.527000, -1.627300
  0.529000, -1.522100
  0.531000, -1.419800
  0.533000, -1.320300
  0.535000, -1.223500
  0.537000, -1.129400
  0.539000, -1.038300
  0.541000, -0.950200
  0.543000, -0.864700
  0.545000, -0.782200
  0.547000, -0.702500
  0.549000, -0.625500
  0.551000, -0.551100
  0.553000, -0.479500
  0.555000, -0.410600
  0.557000, -0.344200
  0.559000, -0.280200
  0.561000, -0.218500
  0.563000, -0.159200
  0.565000, -0.102400
  0.567000, -0.048000
  0.569000,  0.004100
  0.571000,  0.054000
  0.573000,  0.101500
  0.575000,  0.146700
  0.577000,  0.189700
  0.579000,  0.230500
  0.581000,  0.269000
  0.583000,  0.305200
  0.585000,  0.339300
  0.587000,  0.371300
  0.589000,  0.400800
  0.591000,  0.428200
  0.593000,  0.453500
  0.595000,  0.476300
  0.597000,  0.496800
  0.599000,  0.515000
  0.601000,  0.530900
  0.603000,  0.544500
  0.605000,  0.555700
  0.607000,  0.564500
  0.609000,  0.570800
  0.611000,  0.574800
  0.613000,  0.576400
  0.615000,  0.575700
  0.617000,  0.572400
  0.619000,  0.566700
  0.621000,  0.558400
  0.623000,  0.547800
  0.625000,  0.534900
  0.627000,  0.519600
  0.629000,  0.501500
  0.631000,  0.481000
  0.633000,  0.458300
  0.635000,  0.433500
  0.637000,  0.406100
  0.639000,  0.376200
  0.641000,  0.344400
  0.643000,  0.310400
  0.645000,  0.274500
  0.647000,  0.236500
  0.649000,  0.196400
  0.651000,  0.154400
  0.653000,  0.110800
  0.655000,  0.065400
  0.657000,  0.018500
  0.659000, -0.030200
  0.661000, -0.080400
  0.663000, -0.132000
  0.665000, -0.184500
  0.667000, -0.238400
  0.669000, -0.293400
  0.671000, -0.348900
  0.673000, -0.404900
  0.675000, -0.461800
  0.677000, -0.518800
  0.679000, -0.575900
  0.681000, -0.633400
  0.683000, -0.691100
  0.685000, -0.748800
  0.687000, -0.806300
  0.689000, -0.863600
  0.691000, -0.920500
  0.693000, -0.976700
  0.695000, -1.031800
  0.697000, -1.086200
  0.699000, -1.140000
  0.701000, -1.192700
  0.703000, -1.244200
  0.705000, -1.294400
  0.707000, -1.343100
  0.709000, -1.390300
  0.711000, -1.436300
  0.713000, -1.480600
  0.715000, -1.522900
  0.717000, -1.563500
  0.719000, -1.602100
  0.721000, -1.638800
  0.723000, -1.673600
  0.725000, -1.706200
  0.727000, -1.736800
  0.729000, -1.765100
  0.731000, -1.791300
  0.733000, -1.815200
  0.735000, -1.836800
  0.737000, -1.856300
  0.739000, -1.873600
  0.741000, -1.888500
  0.743000, -1.901200
  0.745000, -1.911700
  0.747000, -1.919900
  0.749000, -1.925900
  0.751000, -1.929700
  0.753000, -1.931100
  0.755000, -1.930400
  0.757000, -1.927900
  0.759000, -1.923100
  0.761000, -1.916300
  0.763000, -1.907400
  0.765000, -1.896500
  0.767000, -1.883800
  0.769000, -1.869300
  0.771000, -1.853300
  0.773000, -1.835500
  0.775000, -1.815900
  0.777000, -1.794800
  0.779000, -1.771900
  0.781000, -1.747400
  0.783000, -1.721700
  0.785000, -1.694800
  0.787000, -1.666700
  0.789000, -1.637600
  0.791000, -1.607300
  0.793000, -1.575900
  0.795000, -1.543600
  0.797000, -1.510200
  0.799000, -1.476100
  0.801000, -1.441000
  0.803000, -1.405400
  0.805000, -1.369300
  0.807000, -1.332800
  0.809000, -1.295600
  0.811000, -1.257800
  0.813000, -1.219700
  0.815000, -1.181200
  0.817000, -1.142500
  0.819000, -1.103800
  0.821000, -1.065000
  0.823000, -1.026300
  0.825000, -0.987300
  0.827000, -0.948200
  0.829000, -0.909700
  0.831000, -0.871400
  0.833000, -0.833300
  0.835000, -0.795400
  0.837000, -0.757800
  0.839000, -0.720500
  0.841000, -0.683600
  0.843000, -0.647100
  0.845000, -0.611100
  0.847000, -0.575900
  0.849000, -0.541000
  0.851000, -0.506600
  0.853000, -0.472500
  0.855000, -0.439200
  0.857000, -0.406700
  0.859000, -0.374900
  0.861000, -0.343500
  0.863000, -0.313100
  0.865000, -0.283800
  0.867000, -0.255200
  0.869000, -0.227400
  0.871000, -0.200400
  0.873000, -0.174200
  0.875000, -0.148700
  0.877000, -0.124100
  0.879000, -0.100300
  0.881000, -0.077500
  0.883000, -0.055600
  0.885000, -0.034700
  0.887000, -0.014700
  0.889000,  0.004300
  0.891000,  0.022500
  0.893000,  0.039900
  0.895000,  0.056200
  0.897000,  0.071600
  0.899000,  0.085900
  0.901000,  0.099500
  0.903000,  0.112000
  0.905000,  0.123700
  0.907000,  0.134500
  0.909000,  0.144500
  0.911000,  0.153400
  0.913000,  0.161400
  0.915000,  0.168600
  0.917000,  0.174700
  0.919000,  0.179900
  0.921000,  0.184300
  0.923000,  0.187800
  0.925000,  0.190500
  0.927000,  0.192300
  0.929000,  0.193300
  0.931000,  0.193500
  0.933000,  0.192900
  0.935000,  0.191400
  0.937000,  0.189300
  0.939000,  0.186400
  0.941000,  0.182700
  0.943000,  0.178400
  0.945000,  0.173300
  0.947000,  0.167500
  0.949000,  0.161100
  0.951000,  0.154200
  0.953000,  0.146700
  0.955000,  0.138400
  0.957000,  0.129700
  0.959000,  0.120500
  0.961000,  0.110900
  0.963000,  0.100900
  0.965000,  0.090500
  0.967000,  0.079700
  0.969000,  0.068500
  0.971000,  0.057000
  0.973000,  0.045300
  0.975000,  0.033200
  0.977000,  0.020900
  0.979000,  0.008500
  0.981000, -0.004000
  0.983000, -0.016600
  0.985000, -0.029400
  0.987000, -0.042200
  0.989000, -0.055000
  0.991000, -0.067700
  0.993000, -0.080400
  0.995000, -0.093100
  0.997000, -0.105700
  0.999000, -0.118200
  1.001000, -0.130400
  1.003000, -0.142600
  1.005000, -0.154700
  1.007000, -0.166500
  1.009000, -0.177900
  1.011000, -0.189100
  1.013000, -0.200000
  1.015000, -0.210600
  1.017000, -0.220800
  1.019000, -0.230800
  1.021000, -0.240400
  1.023000, -0.249700
  1.025000, -0.258500
  1.027000, -0.267000
  1.029000, -0.275100
  1.031000, -0.282900
  1.033000, -0.290200
  1.035000, -0.297200
  1.037000, -0.303600
  1.039000, -0.309500
  1.041000, -0.315100
  1.043000, -0.320200
  1.045000, -0.325000
  1.047000, -0.329400
  1.049000, -0.333400
  1.051000, -0.336900
  1.053000, -0.340000
  1.055000, -0.342700
  1.057000, -0.345000
  1.059000, -0.346900
  1.061000, -0.348400
  1.063000, -0.349600
  1.065000, -0.350300
  1.067000, -0.350600
  1.069000, -0.350600
  1.071000, -0.350300
  1.073000, -0.349600
  1.075000, -0.348500
  1.077000, -0.347100
  1.079000, -0.345300
  1.081000, -0.343200
  1.083000, -0.340800
  1.085000, -0.338100
  1.087000, -0.335000
  1.089000, -0.331600
  1.091000, -0.328000
  1.093000, -0.324200
  1.095000, -0.320000
  1.097000, -0.315500
  1.099000, -0.310800
  1.101000, -0.305900
  1.103000, -0.300800
  1.105000, -0.295300
  1.107000, -0.289600
  1.109000, -0.283700
  1.111000, -0.277700
  1.113000, -0.271500
  1.115000, -0.265000
  1.117000, -0.258500
  1.119000, -0.251900
  1.121000, -0.245100
  1.123000, -0.238200
  1.125000, -0.231000
  1.127000, -0.223700
  1.129000, -0.216200
  1.131000, -0.208700
  1.133000, -0.201200
  1.135000, -0.193600
  1.137000, -0.185800
  1.139000, -0.178000
  1.141000, -0.170200
  1.143000, -0.162300
  1.145000, -0.154400
  1.147000, -0.146400
  1.149000, -0.138300
  1.151000, -0.130300
  1.153000, -0.122400
  1.155000, -0.114500
  1.157000, -0.106600
  1.159000, -0.098700
  1.161000, -0.090900
  1.163000, -0.083100
  1.165000, -0.075400
  1.167000, -0.067600
  1.169000, -0.060100
  1.171000, -0.052600
  1.173000, -0.045200
  1.175000, -0.037800
  1.177000, -0.030600
  1.179000, -0.023500
  1.181000, -0.016600
  1.183000, -0.009800
  1.185000, -0.003200
  1.187000,  0.003400
  1.189000,  0.009700
  1.191000,  0.015800
  1.193000,  0.021700
  1.195000,  0.027500
  1.197000,  0.032900
  1.199000,  0.038200
  1.201000,  0.043200
  1.203000,  0.048000
  1.205000,  0.052600
  1.207000,  0.056900
  1.209000,  0.060900
  1.211000,  0.064700
  1.213000,  0.068200
  1.215000,  0.071400
  1.217000,  0.074300
  1.219000,  0.077000
  1.221000,  0.079400
  1.223000,  0.081500
  1.225000,  0.083400
  1.227000,  0.084900
  1.229000,  0.086000
  1.231000,  0.086900
  1.233000,  0.087400
  1.235000,  0.087700
  1.237000,  0.087700
  1.239000,  0.087400
  1.241000,  0.086900
  1.243000,  0.086100
  1.245000,  0.084900
  1.247000,  0.083500
  1.249000,  0.081800
  1.251000,  0.079800
  1.253000,  0.077700
  1.255000,  0.075300
  1.257000,  0.072600
  1.259000,  0.069700
  1.261000,  0.066600
  1.263000,  0.063200
  1.265000,  0.059800
  1.267000,  0.056100
  1.269000,  0.052300
  1.271000,  0.048400
  1.273000,  0.044500
  1.275000,  0.040500
  1.277000,  0.036400
  1.279000,  0.032200
  1.281000,  0.027900
  1.283000,  0.023500
  1.285000,  0.019000
  1.287000,  0.014600
  1.289000,  0.010200
  1.291000,  0.005900
  1.293000,  0.001500
  1.295000, -0.002900
  1.297000, -0.007300
  1.299000, -0.011500
  1.301000, -0.015700
  1.303000, -0.019800
  1.305000, -0.023900
  1.307000, -0.027800
  1.309000, -0.031500
  1.311000, -0.035200
  1.313000, -0.038800
  1.315000, -0.042200
  1.317000, -0.045400
  1.319000, -0.048500
  1.321000, -0.051500
  1.323000, -0.054200
  1.325000, -0.056700
  1.327000, -0.059100
  1.329000, -0.061300
  1.331000, -0.063300
  1.333000, -0.065100
  1.335000, -0.066600
  1.337000, -0.068100
  1.339000, -0.069300
  1.341000, -0.070300
  1.343000, -0.071200
  1.345000, -0.071900
  1.347000, -0.072400
  1.349000, -0.072800
  1.351000, -0.072900
  1.353000, -0.073000
  1.355000, -0.072900
  1.357000, -0.072500
  1.359000, -0.072100
  1.361000, -0.071500
  1.363000, -0.070800
  1.365000, -0.069900
  1.367000, -0.069000
  1.369000, -0.067900
  1.371000, -0.066800
  1.373000, -0.065600
  1.375000, -0.064300
  1.377000, -0.063000
  1.379000, -0.061600
  1.381000, -0.060300
  1.383000, -0.059000
  1.385000, -0.057800
  1.387000, -0.056700
  1.389000, -0.055700
  1.391000, -0.054800
  1.393000, -0.054200
  1.395000, -0.053800
  1.397000, -0.053600
  1.399000, -0.053700
