# z (nm)   (kJ/mol)
  0.3430    9.25290
  0.3470    8.67070
  0.3490    8.25060
  0.3510    7.82310
  0.3530    7.38520
  0.3550    6.95470
  0.3570    6.52410
  0.3590    6.08520
  0.3610    5.65020
  0.3630    5.21150
  0.3650    4.77650
  0.3670    4.34540
  0.3690    3.91570
  0.3710    3.48520
  0.3730    3.05720
  0.3750    2.63740
  0.3770    2.22050
  0.3790    1.80450
  0.3810    1.39650
  0.3830    0.99850
  0.3850    0.60320
  0.3870    0.21570
  0.3890   -0.16010
  0.3910   -0.52710
  0.3930   -0.88340
  0.3950   -1.23060
  0.3970   -1.56630
  0.3990   -1.88800
  0.4010   -2.19790
  0.4030   -2.49640
  0.4050   -2.78350
  0.4070   -3.05890
  0.4090   -3.32010
  0.4110   -3.56750
  0.4130   -3.80270
  0.4150   -4.02490
  0.4170   -4.23370
  0.4190   -4.42920
  0.4210   -4.61020
  0.4230   -4.77740
  0.4250   -4.93110
  0.4270   -5.07080
  0.4290   -5.19670
  0.4310   -5.30910
  0.4330   -5.40860
  0.4350   -5.49460
  0.4370   -5.56820
  0.4390   -5.62910
  0.4410   -5.67690
  0.4430   -5.71220
  0.4450   -5.73590
  0.4470   -5.74750
  0.4490   -5.74700
  0.4510   -5.73540
  0.4530   -5.71370
  0.4550   -5.68160
  0.4570   -5.64000
  0.4590   -5.58840
  0.4610   -5.52630
  0.4630   -5.45660
  0.4650   -5.37990
  0.4670   -5.29650
  0.4690   -5.20650
  0.4710   -5.10920
  0.4730   -5.00540
  0.4750   -4.89600
  0.4770   -4.78230
  0.4790   -4.66440
  0.4810   -4.54230
  0.4830   -4.41710
  0.4850   -4.28890
  0.4870   -4.15880
  0.4890   -4.02760
  0.4910   -3.89490
  0.4930   -3.76070
  0.4950   -3.62600
  0.4970   -3.49120
  0.4990   -3.35630
  0.5010   -3.22190
  0.5030   -3.08840
  0.5050   -2.95590
  0.5070   -2.82420
  0.5090   -2.69380
  0.5110   -2.56560
  0.5130   -2.44000
  0.5150   -2.31650
  0.5170   -2.19500
  0.5190   -2.07620
  0.5210   -1.96000
  0.5230   -1.84640
  0.5250   -1.73540
  0.5270   -1.62730
  0.5290   -1.52210
  0.5310   -1.41980
  0.5330   -1.32030
  0.5350   -1.22350
  0.5370   -1.12940
  0.5390   -1.03830
  0.5410   -0.95020
  0.5430   -0.86470
  0.5450   -0.78220
  0.5470   -0.70250
  0.5490   -0.62550
  0.5510   -0.55110
  0.5530   -0.47950
  0.5550   -0.41060
  0.5570   -0.34420
  0.5590   -0.28020
  0.5610   -0.21850
  0.5630   -0.15920
  0.5650   -0.10240
  0.5670   -0.04800
  0.5690    0.00410
  0.5710    0.05400
  0.5730    0.10150
  0.5750    0.14670
  0.5770    0.18970
  0.5790    0.23050
  0.5810    0.26900
  0.5830    0.30520
  0.5850    0.33930
  0.5870    0.37130
  0.5890    0.40080
  0.5910    0.42820
  0.5930    0.45350
  0.5950    0.47630
  0.5970    0.49680
  0.5990    0.51500
  0.6010    0.53090
  0.6030    0.54450
  0.6050    0.55570
  0.6070    0.56450
  0.6090    0.57080
  0.6110    0.57480
  0.6130    0.57640
  0.6150    0.57570
  0.6170    0.57240
  0.6190    0.56670
  0.6210    0.55840
  0.6230    0.54780
  0.6250    0.53490
  0.6270    0.51960
  0.6290    0.50150
  0.6310    0.48100
  0.6330    0.45830
  0.6350    0.43350
  0.6370    0.40610
  0.6390    0.37620
  0.6410    0.34440
  0.6430    0.31040
  0.6450    0.27450
  0.6470    0.23650
  0.6490    0.19640
  0.6510    0.15440
  0.6530    0.11080
  0.6550    0.06540
  0.6570    0.01850
  0.6590   -0.03020
  0.6610   -0.08040
  0.6630   -0.13200
  0.6650   -0.18450
  0.6670   -0.23840
  0.6690   -0.29340
  0.6710   -0.34890
  0.6730   -0.40490
  0.6750   -0.46180
  0.6770   -0.51880
  0.6790   -0.57590
  0.6810   -0.63340
  0.6830   -0.69110
  0.6850   -0.74880
  0.6870   -0.80630
  0.6890   -0.86360
  0.6910   -0.92050
  0.6930   -0.97670
  0.6950   -1.03180
  0.6970   -1.08620
  0.6990   -1.14000
  0.7010   -1.19270
  0.7030   -1.24420
  0.7050   -1.29440
  0.7070   -1.34310
  0.7090   -1.39030
  0.7110   -1.43630
  0.7130   -1.48060
  0.7150   -1.52290
  0.7170   -1.56350
  0.7190   -1.60210
  0.7210   -1.63880
  0.7230   -1.67360
  0.7250   -1.70620
  0.7270   -1.73680
  0.7290   -1.76510
  0.7310   -1.79130
  0.7330   -1.81520
  0.7350   -1.83680
  0.7370   -1.85630
  0.7390   -1.87360
  0.7410   -1.88850
  0.7430   -1.90120
  0.7450   -1.91170
  0.7470   -1.91990
  0.7490   -1.92590
  0.7510   -1.92970
  0.7530   -1.93110
  0.7550   -1.93040
  0.7570   -1.92790
  0.7590   -1.92310
  0.7610   -1.91630
  0.7630   -1.90740
  0.7650   -1.89650
  0.7670   -1.88380
  0.7690   -1.86930
  0.7710   -1.85330
  0.7730   -1.83550
  0.7750   -1.81590
  0.7770   -1.79480
  0.7790   -1.77190
  0.7810   -1.74740
  0.7830   -1.72170
  0.7850   -1.69480
  0.7870   -1.66670
  0.7890   -1.63760
  0.7910   -1.60730
  0.7930   -1.57590
  0.7950   -1.54360
  0.7970   -1.51020
  0.7990   -1.47610
  0.8010   -1.44100
  0.8030   -1.40540
  0.8050   -1.36930
  0.8070   -1.33280
  0.8090   -1.29560
  0.8110   -1.25780
  0.8130   -1.21970
  0.8150   -1.18120
  0.8170   -1.14250
  0.8190   -1.10380
  0.8210   -1.06500
  0.8230   -1.02630
  0.8250   -0.98730
  0.8270   -0.94820
  0.8290   -0.90970
  0.8310   -0.87140
  0.8330   -0.83330
  0.8350   -0.79540
  0.8370   -0.75780
  0.8390   -0.72050
  0.8410   -0.68360
  0.8430   -0.64710
  0.8450   -0.61110
  0.8470   -0.57590
  0.8490   -0.54100
  0.8510   -0.50660
  0.8530   -0.47250
  0.8550   -0.43920
  0.8570   -0.40670
  0.8590   -0.37490
  0.8610   -0.34350
  0.8630   -0.31310
  0.8650   -0.28380
  0.8670   -0.25520
  0.8690   -0.22740
  0.8710   -0.20040
  0.8730   -0.17420
  0.8750   -0.14870
  0.8770   -0.12410
  0.8790   -0.10030
  0.8810   -0.07750
  0.8830   -0.05560
  0.8850   -0.03470
  0.8870   -0.01470
  0.8890    0.00430
  0.8910    0.02250
  0.8930    0.03990
  0.8950    0.05620
  0.8970    0.07160
  0.8990    0.08590
  0.9010    0.09950
  0.9030    0.11200
  0.9050    0.12370
  0.9070    0.13450
  0.9090    0.14450
  0.9110    0.15340
  0.9130    0.16140
  0.9150    0.16860
  0.9170    0.17470
  0.9190    0.17990
  0.9210    0.18430
  0.9230    0.18780
  0.9250    0.19050
  0.9270    0.19230
  0.9290    0.19330
  0.9310    0.19350
  0.9330    0.19290
  0.9350    0.19140
  0.9370    0.18930
  0.9390    0.18640
  0.9410    0.18270
  0.9430    0.17840
  0.9450    0.17330
  0.9470    0.16750
  0.9490    0.16110
  0.9510    0.15420
  0.9530    0.14670
  0.9550    0.13840
  0.9570    0.12970
  0.9590    0.12050
  0.9610    0.11090
  0.9630    0.10090
  0.9650    0.09050
  0.9670    0.07970
  0.9690    0.06850
  0.9710    0.05700
  0.9730    0.04530
  0.9750    0.03320
  0.9770    0.02090
  0.9790    0.00850
  0.9810   -0.00400
  0.9830   -0.01660
  0.9850   -0.02940
  0.9870   -0.04220
  0.9890   -0.05500
  0.9910   -0.06770
  0.9930   -0.08040
  0.9950   -0.09310
  0.9970   -0.10570
  0.9990   -0.11820
  1.0010   -0.13040
  1.0030   -0.14260
  1.0050   -0.15470
  1.0070   -0.16650
  1.0090   -0.17790
  1.0110   -0.18910
  1.0130   -0.20000
  1.0150   -0.21060
  1.0170   -0.22080
  1.0190   -0.23080
  1.0210   -0.24040
  1.0230   -0.24970
  1.0250   -0.25850
  1.0270   -0.26700
  1.0290   -0.27510
  1.0310   -0.28290
  1.0330   -0.29020
  1.0350   -0.29720
  1.0370   -0.30360
  1.0390   -0.30950
  1.0410   -0.31510
  1.0430   -0.32020
  1.0450   -0.32500
  1.0470   -0.32940
  1.0490   -0.33340
  1.0510   -0.33690
  1.0530   -0.34000
  1.0550   -0.34270
  1.0570   -0.34500
  1.0590   -0.34690
  1.0610   -0.34840
  1.0630   -0.34960
  1.0650   -0.35030
  1.0670   -0.35060
  1.0690   -0.35060
  1.0710   -0.35030
  1.0730   -0.34960
  1.0750   -0.34850
  1.0770   -0.34710
  1.0790   -0.34530
  1.0810   -0.34320
  1.0830   -0.34080
  1.0850   -0.33810
  1.0870   -0.33500
  1.0890   -0.33160
  1.0910   -0.32800
  1.0930   -0.32420
  1.0950   -0.32000
  1.0970   -0.31550
  1.0990   -0.31080
  1.1010   -0.30590
  1.1030   -0.30080
  1.1050   -0.29530
  1.1070   -0.28960
  1.1090   -0.28370
  1.1110   -0.27770
  1.1130   -0.27150
  1.1150   -0.26500
  1.1170   -0.25850
  1.1190   -0.25190
  1.1210   -0.24510
  1.1230   -0.23820
  1.1250   -0.23100
  1.1270   -0.22370
  1.1290   -0.21620
  1.1310   -0.20870
  1.1330   -0.20120
  1.1350   -0.19360
  1.1370   -0.18580
  1.1390   -0.17800
  1.1410   -0.17020
  1.1430   -0.16230
  1.1450   -0.15440
  1.1470   -0.14640
  1.1490   -0.13830
  1.1510   -0.13030
  1.1530   -0.12240
  1.1550   -0.11450
  1.1570   -0.10660
  1.1590   -0.09870
  1.1610   -0.09090
  1.1630   -0.08310
  1.1650   -0.07540
  1.1670   -0.06760
  1.1690   -0.06010
  1.1710   -0.05260
  1.1730   -0.04520
  1.1750   -0.03780
  1.1770   -0.03060
  1.1790   -0.02350
  1.1810   -0.01660
  1.1830   -0.00980
  1.1850   -0.00320
  1.1870    0.00340
  1.1890    0.00970
  1.1910    0.01580
  1.1930    0.02170
  1.1950    0.02750
  1.1970    0.03290
  1.1990    0.03820
  1.2010    0.04320
  1.2030    0.04800
  1.2050    0.05260
  1.2070    0.05690
  1.2090    0.06090
  1.2110    0.06470
  1.2130    0.06820
  1.2150    0.07140
  1.2170    0.07430
  1.2190    0.07700
  1.2210    0.07940
  1.2230    0.08150
  1.2250    0.08340
  1.2270    0.08490
  1.2290    0.08600
  1.2310    0.08690
  1.2330    0.08740
  1.2350    0.08770
  1.2370    0.08770
  1.2390    0.08740
  1.2410    0.08690
  1.2430    0.08610
  1.2450    0.08490
  1.2470    0.08350
  1.2490    0.08180
  1.2510    0.07980
  1.2530    0.07770
  1.2550    0.07530
  1.2570    0.07260
  1.2590    0.06970
  1.2610    0.06660
  1.2630    0.06320
  1.2650    0.05980
  1.2670    0.05610
  1.2690    0.05230
  1.2710    0.04840
  1.2730    0.04450
  1.2750    0.04050
  1.2770    0.03640
  1.2790    0.03220
  1.2810    0.02790
  1.2830    0.02350
  1.2850    0.01900
  1.2870    0.01460
  1.2890    0.01020
  1.2910    0.00590
  1.2930    0.00150
  1.2950   -0.00290
  1.2970   -0.00730
  1.2990   -0.01150
  1.3010   -0.01570
  1.3030   -0.01980
  1.3050   -0.02390
  1.3070   -0.02780
  1.3090   -0.03150
  1.3110   -0.03520
  1.3130   -0.03880
  1.3150   -0.04220
  1.3170   -0.04540
  1.3190   -0.04850
  1.3210   -0.05150
  1.3230   -0.05420
  1.3250   -0.05670
  1.3270   -0.05910
  1.3290   -0.06130
  1.3310   -0.06330
  1.3330   -0.06510
  1.3350   -0.06660
  1.3370   -0.06810
  1.3390   -0.06930
  1.3410   -0.07030
  1.3430   -0.07120
  1.3450   -0.07190
  1.3470   -0.07240
  1.3490   -0.07280
  1.3510   -0.07290
  1.3530   -0.07300
  1.3550   -0.07290
  1.3570   -0.07250
  1.3590   -0.07210
  1.3610   -0.07150
  1.3630   -0.07080
  1.3650   -0.06990
  1.3670   -0.06900
  1.3690   -0.06790
  1.3710   -0.06680
  1.3730   -0.06560
  1.3750   -0.06430
  1.3770   -0.06300
  1.3790   -0.06160
  1.3810   -0.06030
  1.3830   -0.05900
  1.3850   -0.05780
  1.3870   -0.05670
  1.3890   -0.05570
  1.3910   -0.05480
  1.3930   -0.05420
  1.3950   -0.05380
  1.3970   -0.05360
  1.3990   -0.05370
