# z (nm)   (kJ/mol)
  0.253000, 10.432400
  0.257000,  9.778500
  0.259000,  9.469800
  0.261000,  9.146500
  0.263000,  8.782200
  0.265000,  8.420100
  0.267000,  8.064100
  0.269000,  7.678400
  0.271000,  7.281200
  0.273000,  6.897700
  0.275000,  6.517400
  0.277000,  6.135500
  0.279000,  5.747900
  0.281000,  5.353600
  0.283000,  4.960500
  0.285000,  4.574400
  0.287000,  4.187500
  0.289000,  3.794800
  0.291000,  3.397400
  0.293000,  3.008500
  0.295000,  2.631300
  0.297000,  2.255000
  0.299000,  1.880200
  0.301000,  1.510100
  0.303000,  1.143900
  0.305000,  0.783000
  0.307000,  0.428300
  0.309000,  0.076700
  0.311000, -0.268400
  0.313000, -0.603200
  0.315000, -0.929900
  0.317000, -1.250300
  0.319000, -1.563400
  0.321000, -1.865700
  0.323000, -2.158100
  0.325000, -2.446200
  0.327000, -2.727400
  0.329000, -2.997600
  0.331000, -3.259700
  0.333000, -3.512600
  0.335000, -3.755200
  0.337000, -3.986700
  0.339000, -4.208700
  0.341000, -4.422400
  0.343000, -4.625700
  0.345000, -4.818800
  0.347000, -5.001600
  0.349000, -5.173600
  0.351000, -5.335300
  0.353000, -5.486900
  0.355000, -5.627900
  0.357000, -5.758800
  0.359000, -5.879500
  0.361000, -5.990100
  0.363000, -6.090700
  0.365000, -6.180900
  0.367000, -6.261500
  0.369000, -6.332600
  0.371000, -6.394000
  0.373000, -6.445800
  0.375000, -6.488500
  0.377000, -6.522900
  0.379000, -6.548500
  0.381000, -6.565400
  0.383000, -6.574000
  0.385000, -6.574800
  0.387000, -6.568000
  0.389000, -6.553400
  0.391000, -6.532200
  0.393000, -6.505500
  0.395000, -6.472600
  0.397000, -6.434100
  0.399000, -6.390200
  0.401000, -6.340700
  0.403000, -6.285800
  0.405000, -6.226400
  0.407000, -6.163200
  0.409000, -6.096000
  0.411000, -6.025500
  0.413000, -5.951800
  0.415000, -5.875000
  0.417000, -5.795900
  0.419000, -5.713900
  0.421000, -5.629500
  0.423000, -5.543200
  0.425000, -5.455100
  0.427000, -5.365800
  0.429000, -5.275400
  0.431000, -5.183600
  0.433000, -5.090900
  0.435000, -4.997400
  0.437000, -4.903000
  0.439000, -4.808400
  0.441000, -4.713400
  0.443000, -4.618300
  0.445000, -4.523200
  0.447000, -4.428100
  0.449000, -4.332800
  0.451000, -4.237500
  0.453000, -4.142600
  0.455000, -4.047800
  0.457000, -3.952900
  0.459000, -3.858500
  0.461000, -3.764300
  0.463000, -3.670300
  0.465000, -3.576600
  0.467000, -3.483400
  0.469000, -3.390500
  0.471000, -3.297800
  0.473000, -3.205400
  0.475000, -3.113400
  0.477000, -3.021800
  0.479000, -2.930500
  0.481000, -2.839400
  0.483000, -2.748600
  0.485000, -2.658200
  0.487000, -2.568200
  0.489000, -2.478600
  0.491000, -2.389400
  0.493000, -2.300500
  0.495000, -2.212000
  0.497000, -2.124100
  0.499000, -2.036700
  0.501000, -1.949800
  0.503000, -1.863400
  0.505000, -1.777500
  0.507000, -1.692200
  0.509000, -1.607700
  0.511000, -1.524000
  0.513000, -1.441200
  0.515000, -1.358600
  0.517000, -1.276900
  0.519000, -1.196500
  0.521000, -1.117300
  0.523000, -1.039300
  0.525000, -0.962000
  0.527000, -0.885500
  0.529000, -0.810400
  0.531000, -0.737100
  0.533000, -0.665400
  0.535000, -0.595300
  0.537000, -0.526600
  0.539000, -0.459600
  0.541000, -0.394500
  0.543000, -0.330900
  0.545000, -0.269300
  0.547000, -0.209900
  0.549000, -0.152600
  0.551000, -0.097100
  0.553000, -0.043900
  0.555000,  0.006800
  0.557000,  0.055300
  0.559000,  0.101500
  0.561000,  0.145100
  0.563000,  0.186200
  0.565000,  0.225100
  0.567000,  0.261500
  0.569000,  0.295200
  0.571000,  0.326300
  0.573000,  0.355000
  0.575000,  0.381100
  0.577000,  0.404500
  0.579000,  0.425200
  0.581000,  0.443100
  0.583000,  0.458400
  0.585000,  0.471100
  0.587000,  0.481200
  0.589000,  0.488600
  0.591000,  0.493300
  0.593000,  0.495500
  0.595000,  0.495200
  0.597000,  0.492500
  0.599000,  0.487400
  0.601000,  0.479900
  0.603000,  0.470100
  0.605000,  0.458100
  0.607000,  0.443900
  0.609000,  0.427700
  0.611000,  0.409600
  0.613000,  0.389700
  0.615000,  0.368000
  0.617000,  0.344400
  0.619000,  0.318900
  0.621000,  0.291900
  0.623000,  0.263600
  0.625000,  0.234000
  0.627000,  0.203100
  0.629000,  0.171000
  0.631000,  0.137800
  0.633000,  0.103700
  0.635000,  0.068600
  0.637000,  0.032900
  0.639000, -0.003100
  0.641000, -0.039900
  0.643000, -0.077100
  0.645000, -0.114400
  0.647000, -0.152400
  0.649000, -0.190700
  0.651000, -0.228700
  0.653000, -0.266500
  0.655000, -0.304000
  0.657000, -0.341300
  0.659000, -0.378200
  0.661000, -0.414700
  0.663000, -0.451100
  0.665000, -0.487100
  0.667000, -0.522200
  0.669000, -0.556500
  0.671000, -0.590000
  0.673000, -0.622700
  0.675000, -0.654400
  0.677000, -0.685200
  0.679000, -0.715000
  0.681000, -0.743800
  0.683000, -0.771700
  0.685000, -0.798600
  0.687000, -0.824200
  0.689000, -0.848700
  0.691000, -0.872100
  0.693000, -0.894300
  0.695000, -0.915100
  0.697000, -0.934800
  0.699000, -0.953300
  0.701000, -0.970500
  0.703000, -0.986500
  0.705000, -1.001300
  0.707000, -1.014700
  0.709000, -1.026900
  0.711000, -1.038000
  0.713000, -1.047800
  0.715000, -1.056400
  0.717000, -1.063800
  0.719000, -1.070200
  0.721000, -1.075400
  0.723000, -1.079500
  0.725000, -1.082600
  0.727000, -1.084500
  0.729000, -1.085400
  0.731000, -1.085400
  0.733000, -1.084300
  0.735000, -1.082300
  0.737000, -1.079400
  0.739000, -1.075500
  0.741000, -1.070900
  0.743000, -1.065300
  0.745000, -1.059000
  0.747000, -1.051900
  0.749000, -1.043900
  0.751000, -1.035300
  0.753000, -1.026000
  0.755000, -1.015900
  0.757000, -1.005200
  0.759000, -0.993800
  0.761000, -0.981900
  0.763000, -0.969400
  0.765000, -0.956400
  0.767000, -0.942900
  0.769000, -0.928800
  0.771000, -0.914100
  0.773000, -0.899000
  0.775000, -0.883500
  0.777000, -0.867700
  0.779000, -0.851500
  0.781000, -0.835000
  0.783000, -0.818100
  0.785000, -0.800700
  0.787000, -0.783100
  0.789000, -0.765000
  0.791000, -0.746700
  0.793000, -0.728400
  0.795000, -0.709800
  0.797000, -0.690900
  0.799000, -0.671800
  0.801000, -0.652500
  0.803000, -0.633000
  0.805000, -0.613500
  0.807000, -0.593800
  0.809000, -0.574100
  0.811000, -0.554400
  0.813000, -0.534500
  0.815000, -0.514700
  0.817000, -0.494800
  0.819000, -0.475000
  0.821000, -0.455200
  0.823000, -0.435500
  0.825000, -0.415900
  0.827000, -0.396400
  0.829000, -0.376900
  0.831000, -0.357600
  0.833000, -0.338600
  0.835000, -0.319900
  0.837000, -0.301400
  0.839000, -0.283200
  0.841000, -0.265200
  0.843000, -0.247400
  0.845000, -0.229900
  0.847000, -0.212800
  0.849000, -0.196000
  0.851000, -0.179800
  0.853000, -0.163900
  0.855000, -0.148400
  0.857000, -0.133500
  0.859000, -0.119000
  0.861000, -0.105100
  0.863000, -0.091600
  0.865000, -0.078600
  0.867000, -0.066300
  0.869000, -0.054500
  0.871000, -0.043100
  0.873000, -0.032300
  0.875000, -0.022200
  0.877000, -0.012500
  0.879000, -0.003500
  0.881000,  0.004800
  0.883000,  0.012600
  0.885000,  0.019700
  0.887000,  0.026300
  0.889000,  0.032400
  0.891000,  0.037900
  0.893000,  0.042700
  0.895000,  0.047000
  0.897000,  0.050700
  0.899000,  0.053800
  0.901000,  0.056500
  0.903000,  0.058500
  0.905000,  0.060000
  0.907000,  0.060900
  0.909000,  0.061300
  0.911000,  0.061200
  0.913000,  0.060700
  0.915000,  0.059600
  0.917000,  0.058000
  0.919000,  0.056100
  0.921000,  0.053600
  0.923000,  0.050700
  0.925000,  0.047400
  0.927000,  0.043800
  0.929000,  0.039900
  0.931000,  0.035800
  0.933000,  0.031300
  0.935000,  0.026400
  0.937000,  0.021300
  0.939000,  0.015900
  0.941000,  0.010400
  0.943000,  0.004600
  0.945000, -0.001500
  0.947000, -0.007700
  0.949000, -0.014000
  0.951000, -0.020400
  0.953000, -0.027000
  0.955000, -0.033700
  0.957000, -0.040400
  0.959000, -0.047100
  0.961000, -0.053800
  0.963000, -0.060700
  0.965000, -0.067500
  0.967000, -0.074200
  0.969000, -0.081100
  0.971000, -0.087900
  0.973000, -0.094600
  0.975000, -0.101300
  0.977000, -0.107900
  0.979000, -0.114400
  0.981000, -0.120700
  0.983000, -0.127000
  0.985000, -0.133100
  0.987000, -0.139100
  0.989000, -0.144900
  0.991000, -0.150600
  0.993000, -0.156100
  0.995000, -0.161500
  0.997000, -0.166700
  0.999000, -0.171700
  1.001000, -0.176600
  1.003000, -0.181300
  1.005000, -0.185800
  1.007000, -0.190100
  1.009000, -0.194100
  1.011000, -0.198000
  1.013000, -0.201700
  1.015000, -0.205200
  1.017000, -0.208400
  1.019000, -0.211400
  1.021000, -0.214200
  1.023000, -0.216800
  1.025000, -0.219200
  1.027000, -0.221400
  1.029000, -0.223300
  1.031000, -0.225000
  1.033000, -0.226500
  1.035000, -0.227800
  1.037000, -0.228900
  1.039000, -0.229700
  1.041000, -0.230400
  1.043000, -0.230800
  1.045000, -0.231100
  1.047000, -0.231100
  1.049000, -0.230800
  1.051000, -0.230500
  1.053000, -0.229800
  1.055000, -0.228900
  1.057000, -0.227800
  1.059000, -0.226600
  1.061000, -0.225100
  1.063000, -0.223500
  1.065000, -0.221700
  1.067000, -0.219800
  1.069000, -0.217600
  1.071000, -0.215300
  1.073000, -0.212700
  1.075000, -0.210000
  1.077000, -0.207200
  1.079000, -0.204200
  1.081000, -0.201200
  1.083000, -0.198000
  1.085000, -0.194700
  1.087000, -0.191300
  1.089000, -0.187700
  1.091000, -0.184000
  1.093000, -0.180200
  1.095000, -0.176400
  1.097000, -0.172400
  1.099000, -0.168500
  1.101000, -0.164500
  1.103000, -0.160400
  1.105000, -0.156300
  1.107000, -0.152200
  1.109000, -0.148000
  1.111000, -0.143800
  1.113000, -0.139700
  1.115000, -0.135500
  1.117000, -0.131300
  1.119000, -0.127000
  1.121000, -0.122800
  1.123000, -0.118500
  1.125000, -0.114200
  1.127000, -0.109900
  1.129000, -0.105600
  1.131000, -0.101300
  1.133000, -0.097100
  1.135000, -0.092900
  1.137000, -0.088800
  1.139000, -0.084700
  1.141000, -0.080700
  1.143000, -0.076700
  1.145000, -0.072800
  1.147000, -0.069000
  1.149000, -0.065200
  1.151000, -0.061400
  1.153000, -0.057500
  1.155000, -0.053800
  1.157000, -0.050200
  1.159000, -0.046600
  1.161000, -0.043000
  1.163000, -0.039600
  1.165000, -0.036100
  1.167000, -0.032800
  1.169000, -0.029500
  1.171000, -0.026300
  1.173000, -0.023100
  1.175000, -0.019900
  1.177000, -0.017000
  1.179000, -0.014100
  1.181000, -0.011300
  1.183000, -0.008600
  1.185000, -0.005900
  1.187000, -0.003300
  1.189000, -0.000700
  1.191000,  0.001700
  1.193000,  0.004100
  1.195000,  0.006400
  1.197000,  0.008500
  1.199000,  0.010600
  1.201000,  0.012500
  1.203000,  0.014400
  1.205000,  0.016100
  1.207000,  0.017700
  1.209000,  0.019300
  1.211000,  0.020700
  1.213000,  0.022100
  1.215000,  0.023300
  1.217000,  0.024500
  1.219000,  0.025500
  1.221000,  0.026400
  1.223000,  0.027300
  1.225000,  0.028100
  1.227000,  0.028700
  1.229000,  0.029300
  1.231000,  0.029800
  1.233000,  0.030100
  1.235000,  0.030300
  1.237000,  0.030500
  1.239000,  0.030600
  1.241000,  0.030700
  1.243000,  0.030600
  1.245000,  0.030500
  1.247000,  0.030100
  1.249000,  0.029700
  1.251000,  0.029300
  1.253000,  0.028800
  1.255000,  0.028100
  1.257000,  0.027300
  1.259000,  0.026500
  1.261000,  0.025600
  1.263000,  0.024600
  1.265000,  0.023500
  1.267000,  0.022300
  1.269000,  0.021000
  1.271000,  0.019700
  1.273000,  0.018300
  1.275000,  0.016900
  1.277000,  0.015500
  1.279000,  0.014000
  1.281000,  0.012500
  1.283000,  0.010800
  1.285000,  0.009000
  1.287000,  0.007200
  1.289000,  0.005400
  1.291000,  0.003500
  1.293000,  0.001600
  1.295000, -0.000400
  1.297000, -0.002300
  1.299000, -0.004200
  1.301000, -0.006000
  1.303000, -0.007800
  1.305000, -0.009600
  1.307000, -0.011400
  1.309000, -0.013300
  1.311000, -0.015000
  1.313000, -0.016700
  1.315000, -0.018300
  1.317000, -0.019800
  1.319000, -0.021200
  1.321000, -0.022500
  1.323000, -0.023700
  1.325000, -0.024900
  1.327000, -0.025800
  1.329000, -0.026600
  1.331000, -0.027300
  1.333000, -0.028000
  1.335000, -0.028700
  1.337000, -0.029200
  1.339000, -0.029500
  1.341000, -0.029600
  1.343000, -0.029600
  1.345000, -0.029500
  1.347000, -0.029300
  1.349000, -0.029100
  1.351000, -0.028700
  1.353000, -0.028200
  1.355000, -0.027600
  1.357000, -0.026900
  1.359000, -0.026200
  1.361000, -0.025300
  1.363000, -0.024400
  1.365000, -0.023500
  1.367000, -0.022500
  1.369000, -0.021500
  1.371000, -0.020500
  1.373000, -0.019400
  1.375000, -0.018300
  1.377000, -0.017200
  1.379000, -0.016200
  1.381000, -0.015300
  1.383000, -0.014500
  1.385000, -0.013800
  1.387000, -0.013300
  1.389000, -0.012900
  1.391000, -0.012800
  1.393000, -0.013000
  1.395000, -0.013400
  1.397000, -0.014200
  1.399000, -0.015300
