# z (nm)   (kJ/mol)
  0.369000,  7.516200
  0.371000,  7.066200
  0.373000,  6.613500
  0.375000,  6.136200
  0.377000,  5.654800
  0.379000,  5.159000
  0.381000,  4.646600
  0.383000,  4.136200
  0.385000,  3.634500
  0.387000,  3.129800
  0.389000,  2.630000
  0.391000,  2.125000
  0.393000,  1.623900
  0.395000,  1.132900
  0.397000,  0.653400
  0.399000,  0.177400
  0.401000, -0.298800
  0.403000, -0.766900
  0.405000, -1.230600
  0.407000, -1.689300
  0.409000, -2.142300
  0.411000, -2.588900
  0.413000, -3.024300
  0.415000, -3.452300
  0.417000, -3.872100
  0.419000, -4.282200
  0.421000, -4.682800
  0.423000, -5.074700
  0.425000, -5.454300
  0.427000, -5.820200
  0.429000, -6.174200
  0.431000, -6.517700
  0.433000, -6.848400
  0.435000, -7.165900
  0.437000, -7.471100
  0.439000, -7.762900
  0.441000, -8.043100
  0.443000, -8.310000
  0.445000, -8.563600
  0.447000, -8.804200
  0.449000, -9.031200
  0.451000, -9.244900
  0.453000, -9.445300
  0.455000, -9.632200
  0.457000, -9.806000
  0.459000, -9.967000
  0.461000,-10.115000
  0.463000,-10.249600
  0.465000,-10.371000
  0.467000,-10.479700
  0.469000,-10.576100
  0.471000,-10.660400
  0.473000,-10.732800
  0.475000,-10.793300
  0.477000,-10.841400
  0.479000,-10.878600
  0.481000,-10.905200
  0.483000,-10.920100
  0.485000,-10.923200
  0.487000,-10.916800
  0.489000,-10.900900
  0.491000,-10.874100
  0.493000,-10.838800
  0.495000,-10.795600
  0.497000,-10.745000
  0.499000,-10.686700
  0.501000,-10.620900
  0.503000,-10.549000
  0.505000,-10.470300
  0.507000,-10.386300
  0.509000,-10.298400
  0.511000,-10.204600
  0.513000,-10.105000
  0.515000,-10.001900
  0.517000, -9.894800
  0.519000, -9.784000
  0.521000, -9.670600
  0.523000, -9.554500
  0.525000, -9.435300
  0.527000, -9.313600
  0.529000, -9.189800
  0.531000, -9.065100
  0.533000, -8.939300
  0.535000, -8.811600
  0.537000, -8.682300
  0.539000, -8.552200
  0.541000, -8.421600
  0.543000, -8.290200
  0.545000, -8.158200
  0.547000, -8.025800
  0.549000, -7.892800
  0.551000, -7.759900
  0.553000, -7.627500
  0.555000, -7.494900
  0.557000, -7.362300
  0.559000, -7.230100
  0.561000, -7.098200
  0.563000, -6.967000
  0.565000, -6.836400
  0.567000, -6.706500
  0.569000, -6.577400
  0.571000, -6.449000
  0.573000, -6.321300
  0.575000, -6.194500
  0.577000, -6.069000
  0.579000, -5.944300
  0.581000, -5.820500
  0.583000, -5.697800
  0.585000, -5.576400
  0.587000, -5.456300
  0.589000, -5.337400
  0.591000, -5.219700
  0.593000, -5.103500
  0.595000, -4.988700
  0.597000, -4.875300
  0.599000, -4.763500
  0.601000, -4.653300
  0.603000, -4.544800
  0.605000, -4.437800
  0.607000, -4.332300
  0.609000, -4.228800
  0.611000, -4.127100
  0.613000, -4.027200
  0.615000, -3.929200
  0.617000, -3.832800
  0.619000, -3.738600
  0.621000, -3.646400
  0.623000, -3.556000
  0.625000, -3.467900
  0.627000, -3.382400
  0.629000, -3.298500
  0.631000, -3.216300
  0.633000, -3.136200
  0.635000, -3.058500
  0.637000, -2.983200
  0.639000, -2.910300
  0.641000, -2.839300
  0.643000, -2.770400
  0.645000, -2.703700
  0.647000, -2.639300
  0.649000, -2.577400
  0.651000, -2.517600
  0.653000, -2.460000
  0.655000, -2.404600
  0.657000, -2.351500
  0.659000, -2.300600
  0.661000, -2.251800
  0.663000, -2.205100
  0.665000, -2.160700
  0.667000, -2.118600
  0.669000, -2.078900
  0.671000, -2.041300
  0.673000, -2.005700
  0.675000, -1.972200
  0.677000, -1.940700
  0.679000, -1.911200
  0.681000, -1.883900
  0.683000, -1.858300
  0.685000, -1.834500
  0.687000, -1.812900
  0.689000, -1.792900
  0.691000, -1.774700
  0.693000, -1.758300
  0.695000, -1.743400
  0.697000, -1.730400
  0.699000, -1.719000
  0.701000, -1.708900
  0.703000, -1.700200
  0.705000, -1.693000
  0.707000, -1.686900
  0.709000, -1.682100
  0.711000, -1.678700
  0.713000, -1.676300
  0.715000, -1.675000
  0.717000, -1.674700
  0.719000, -1.675500
  0.721000, -1.677100
  0.723000, -1.679500
  0.725000, -1.682600
  0.727000, -1.686400
  0.729000, -1.690800
  0.731000, -1.695800
  0.733000, -1.701300
  0.735000, -1.707400
  0.737000, -1.713900
  0.739000, -1.720600
  0.741000, -1.727500
  0.743000, -1.734800
  0.745000, -1.742100
  0.747000, -1.749700
  0.749000, -1.757400
  0.751000, -1.765100
  0.753000, -1.773000
  0.755000, -1.780700
  0.757000, -1.788500
  0.759000, -1.796200
  0.761000, -1.803500
  0.763000, -1.810500
  0.765000, -1.817300
  0.767000, -1.823900
  0.769000, -1.830100
  0.771000, -1.836000
  0.773000, -1.841600
  0.775000, -1.846700
  0.777000, -1.851500
  0.779000, -1.855900
  0.781000, -1.859700
  0.783000, -1.863200
  0.785000, -1.866400
  0.787000, -1.869000
  0.789000, -1.870900
  0.791000, -1.872400
  0.793000, -1.873300
  0.795000, -1.873600
  0.797000, -1.873400
  0.799000, -1.872700
  0.801000, -1.871400
  0.803000, -1.869500
  0.805000, -1.866900
  0.807000, -1.863600
  0.809000, -1.859800
  0.811000, -1.855400
  0.813000, -1.850500
  0.815000, -1.844800
  0.817000, -1.838400
  0.819000, -1.831500
  0.821000, -1.824000
  0.823000, -1.815900
  0.825000, -1.807100
  0.827000, -1.797600
  0.829000, -1.787600
  0.831000, -1.777000
  0.833000, -1.765900
  0.835000, -1.754100
  0.837000, -1.741800
  0.839000, -1.728900
  0.841000, -1.715400
  0.843000, -1.701400
  0.845000, -1.686700
  0.847000, -1.671600
  0.849000, -1.656000
  0.851000, -1.639900
  0.853000, -1.623200
  0.855000, -1.606100
  0.857000, -1.588600
  0.859000, -1.570600
  0.861000, -1.552200
  0.863000, -1.533300
  0.865000, -1.514000
  0.867000, -1.494400
  0.869000, -1.474400
  0.871000, -1.454100
  0.873000, -1.433500
  0.875000, -1.412600
  0.877000, -1.391400
  0.879000, -1.370000
  0.881000, -1.348400
  0.883000, -1.326600
  0.885000, -1.304700
  0.887000, -1.282500
  0.889000, -1.260300
  0.891000, -1.237900
  0.893000, -1.215400
  0.895000, -1.192800
  0.897000, -1.170300
  0.899000, -1.147800
  0.901000, -1.125500
  0.903000, -1.103100
  0.905000, -1.081000
  0.907000, -1.059000
  0.909000, -1.037000
  0.911000, -1.015100
  0.913000, -0.993500
  0.915000, -0.972200
  0.917000, -0.951100
  0.919000, -0.930200
  0.921000, -0.909600
  0.923000, -0.889300
  0.925000, -0.869400
  0.927000, -0.849800
  0.929000, -0.830500
  0.931000, -0.811600
  0.933000, -0.793100
  0.935000, -0.774900
  0.937000, -0.757100
  0.939000, -0.739900
  0.941000, -0.723200
  0.943000, -0.706900
  0.945000, -0.690900
  0.947000, -0.675400
  0.949000, -0.660400
  0.951000, -0.645800
  0.953000, -0.631700
  0.955000, -0.618200
  0.957000, -0.605100
  0.959000, -0.592700
  0.961000, -0.580800
  0.963000, -0.569300
  0.965000, -0.558200
  0.967000, -0.547500
  0.969000, -0.537300
  0.971000, -0.527600
  0.973000, -0.518400
  0.975000, -0.509700
  0.977000, -0.501200
  0.979000, -0.493500
  0.981000, -0.486100
  0.983000, -0.479100
  0.985000, -0.472400
  0.987000, -0.466200
  0.989000, -0.460300
  0.991000, -0.454800
  0.993000, -0.449600
  0.995000, -0.444800
  0.997000, -0.440200
  0.999000, -0.435900
  1.001000, -0.432100
  1.003000, -0.428400
  1.005000, -0.425100
  1.007000, -0.422100
  1.009000, -0.419400
  1.011000, -0.416900
  1.013000, -0.414600
  1.015000, -0.412600
  1.017000, -0.410700
  1.019000, -0.409000
  1.021000, -0.407500
  1.023000, -0.406200
  1.025000, -0.405000
  1.027000, -0.404000
  1.029000, -0.403100
  1.031000, -0.402300
  1.033000, -0.401700
  1.035000, -0.401100
  1.037000, -0.400600
  1.039000, -0.400300
  1.041000, -0.400000
  1.043000, -0.399900
  1.045000, -0.399800
  1.047000, -0.399900
  1.049000, -0.399900
  1.051000, -0.400000
  1.053000, -0.400200
  1.055000, -0.400400
  1.057000, -0.400600
  1.059000, -0.400800
  1.061000, -0.400900
  1.063000, -0.401000
  1.065000, -0.401200
  1.067000, -0.401300
  1.069000, -0.401500
  1.071000, -0.401700
  1.073000, -0.401900
  1.075000, -0.401900
  1.077000, -0.401900
  1.079000, -0.401800
  1.081000, -0.401700
  1.083000, -0.401500
  1.085000, -0.401200
  1.087000, -0.400900
  1.089000, -0.400500
  1.091000, -0.400000
  1.093000, -0.399500
  1.095000, -0.398900
  1.097000, -0.398200
  1.099000, -0.397400
  1.101000, -0.396400
  1.103000, -0.395400
  1.105000, -0.394300
  1.107000, -0.393000
  1.109000, -0.391500
  1.111000, -0.390100
  1.113000, -0.388600
  1.115000, -0.386800
  1.117000, -0.384900
  1.119000, -0.382900
  1.121000, -0.380900
  1.123000, -0.378600
  1.125000, -0.376300
  1.127000, -0.374000
  1.129000, -0.371500
  1.131000, -0.369000
  1.133000, -0.366300
  1.135000, -0.363500
  1.137000, -0.360700
  1.139000, -0.357800
  1.141000, -0.354800
  1.143000, -0.351700
  1.145000, -0.348500
  1.147000, -0.345200
  1.149000, -0.341900
  1.151000, -0.338600
  1.153000, -0.335300
  1.155000, -0.331800
  1.157000, -0.328100
  1.159000, -0.324400
  1.161000, -0.320600
  1.163000, -0.316800
  1.165000, -0.312900
  1.167000, -0.309000
  1.169000, -0.305100
  1.171000, -0.301100
  1.173000, -0.297100
  1.175000, -0.293000
  1.177000, -0.288800
  1.179000, -0.284400
  1.181000, -0.280000
  1.183000, -0.275600
  1.185000, -0.271100
  1.187000, -0.266600
  1.189000, -0.261800
  1.191000, -0.257000
  1.193000, -0.252100
  1.195000, -0.247200
  1.197000, -0.242200
  1.199000, -0.237100
  1.201000, -0.231900
  1.203000, -0.226600
  1.205000, -0.221300
  1.207000, -0.215800
  1.209000, -0.210100
  1.211000, -0.204200
  1.213000, -0.198300
  1.215000, -0.192400
  1.217000, -0.186300
  1.219000, -0.180200
  1.221000, -0.174000
  1.223000, -0.167600
  1.225000, -0.161200
  1.227000, -0.154600
  1.229000, -0.148000
  1.231000, -0.141300
  1.233000, -0.134600
  1.235000, -0.127900
  1.237000, -0.121000
  1.239000, -0.114100
  1.241000, -0.107200
  1.243000, -0.100200
  1.245000, -0.093200
  1.247000, -0.086200
  1.249000, -0.079300
  1.251000, -0.072400
  1.253000, -0.065500
  1.255000, -0.058500
  1.257000, -0.051600
  1.259000, -0.044600
  1.261000, -0.037800
  1.263000, -0.031000
  1.265000, -0.024400
  1.267000, -0.017800
  1.269000, -0.011000
  1.271000, -0.004500
  1.273000,  0.001800
  1.275000,  0.007900
  1.277000,  0.013900
  1.279000,  0.019600
  1.281000,  0.025200
  1.283000,  0.030700
  1.285000,  0.035900
  1.287000,  0.040900
  1.289000,  0.045700
  1.291000,  0.050400
  1.293000,  0.054700
  1.295000,  0.058800
  1.297000,  0.062700
  1.299000,  0.066400
  1.301000,  0.069900
  1.303000,  0.073100
  1.305000,  0.076100
  1.307000,  0.079000
  1.309000,  0.081700
  1.311000,  0.084100
  1.313000,  0.086300
  1.315000,  0.088300
  1.317000,  0.089900
  1.319000,  0.091300
  1.321000,  0.092600
  1.323000,  0.093700
  1.325000,  0.094500
  1.327000,  0.095200
  1.329000,  0.095700
  1.331000,  0.096100
  1.333000,  0.096100
  1.335000,  0.096000
  1.337000,  0.095900
  1.339000,  0.095700
  1.341000,  0.095300
  1.343000,  0.094800
  1.345000,  0.094200
  1.347000,  0.093400
  1.349000,  0.092400
  1.351000,  0.091300
  1.353000,  0.090200
  1.355000,  0.089100
  1.357000,  0.087900
  1.359000,  0.086600
  1.361000,  0.085100
  1.363000,  0.083500
  1.365000,  0.082000
  1.367000,  0.080400
  1.369000,  0.078700
  1.371000,  0.077000
  1.373000,  0.075200
  1.375000,  0.073300
  1.377000,  0.071300
  1.379000,  0.069200
  1.381000,  0.067100
  1.383000,  0.064900
  1.385000,  0.062600
  1.387000,  0.060200
  1.389000,  0.057800
  1.391000,  0.055100
  1.393000,  0.052200
  1.395000,  0.049100
  1.397000,  0.045700
  1.399000,  0.042100
