# z (nm)   (kJ/mol)
  0.3690    7.51620
  0.3710    7.06620
  0.3730    6.61350
  0.3750    6.13620
  0.3770    5.65480
  0.3790    5.15900
  0.3810    4.64660
  0.3830    4.13620
  0.3850    3.63450
  0.3870    3.12980
  0.3890    2.63000
  0.3910    2.12500
  0.3930    1.62390
  0.3950    1.13290
  0.3970    0.65340
  0.3990    0.17740
  0.4010   -0.29880
  0.4030   -0.76690
  0.4050   -1.23060
  0.4070   -1.68930
  0.4090   -2.14230
  0.4110   -2.58890
  0.4130   -3.02430
  0.4150   -3.45230
  0.4170   -3.87210
  0.4190   -4.28220
  0.4210   -4.68280
  0.4230   -5.07470
  0.4250   -5.45430
  0.4270   -5.82020
  0.4290   -6.17420
  0.4310   -6.51770
  0.4330   -6.84840
  0.4350   -7.16590
  0.4370   -7.47110
  0.4390   -7.76290
  0.4410   -8.04310
  0.4430   -8.31000
  0.4450   -8.56360
  0.4470   -8.80420
  0.4490   -9.03120
  0.4510   -9.24490
  0.4530   -9.44530
  0.4550   -9.63220
  0.4570   -9.80600
  0.4590   -9.96700
  0.4610  -10.11500
  0.4630  -10.24960
  0.4650  -10.37100
  0.4670  -10.47970
  0.4690  -10.57610
  0.4710  -10.66040
  0.4730  -10.73280
  0.4750  -10.79330
  0.4770  -10.84140
  0.4790  -10.87860
  0.4810  -10.90520
  0.4830  -10.92010
  0.4850  -10.92320
  0.4870  -10.91680
  0.4890  -10.90090
  0.4910  -10.87410
  0.4930  -10.83880
  0.4950  -10.79560
  0.4970  -10.74500
  0.4990  -10.68670
  0.5010  -10.62090
  0.5030  -10.54900
  0.5050  -10.47030
  0.5070  -10.38630
  0.5090  -10.29840
  0.5110  -10.20460
  0.5130  -10.10500
  0.5150  -10.00190
  0.5170   -9.89480
  0.5190   -9.78400
  0.5210   -9.67060
  0.5230   -9.55450
  0.5250   -9.43530
  0.5270   -9.31360
  0.5290   -9.18980
  0.5310   -9.06510
  0.5330   -8.93930
  0.5350   -8.81160
  0.5370   -8.68230
  0.5390   -8.55220
  0.5410   -8.42160
  0.5430   -8.29020
  0.5450   -8.15820
  0.5470   -8.02580
  0.5490   -7.89280
  0.5510   -7.75990
  0.5530   -7.62750
  0.5550   -7.49490
  0.5570   -7.36230
  0.5590   -7.23010
  0.5610   -7.09820
  0.5630   -6.96700
  0.5650   -6.83640
  0.5670   -6.70650
  0.5690   -6.57740
  0.5710   -6.44900
  0.5730   -6.32130
  0.5750   -6.19450
  0.5770   -6.06900
  0.5790   -5.94430
  0.5810   -5.82050
  0.5830   -5.69780
  0.5850   -5.57640
  0.5870   -5.45630
  0.5890   -5.33740
  0.5910   -5.21970
  0.5930   -5.10350
  0.5950   -4.98870
  0.5970   -4.87530
  0.5990   -4.76350
  0.6010   -4.65330
  0.6030   -4.54480
  0.6050   -4.43780
  0.6070   -4.33230
  0.6090   -4.22880
  0.6110   -4.12710
  0.6130   -4.02720
  0.6150   -3.92920
  0.6170   -3.83280
  0.6190   -3.73860
  0.6210   -3.64640
  0.6230   -3.55600
  0.6250   -3.46790
  0.6270   -3.38240
  0.6290   -3.29850
  0.6310   -3.21630
  0.6330   -3.13620
  0.6350   -3.05850
  0.6370   -2.98320
  0.6390   -2.91030
  0.6410   -2.83930
  0.6430   -2.77040
  0.6450   -2.70370
  0.6470   -2.63930
  0.6490   -2.57740
  0.6510   -2.51760
  0.6530   -2.46000
  0.6550   -2.40460
  0.6570   -2.35150
  0.6590   -2.30060
  0.6610   -2.25180
  0.6630   -2.20510
  0.6650   -2.16070
  0.6670   -2.11860
  0.6690   -2.07890
  0.6710   -2.04130
  0.6730   -2.00570
  0.6750   -1.97220
  0.6770   -1.94070
  0.6790   -1.91120
  0.6810   -1.88390
  0.6830   -1.85830
  0.6850   -1.83450
  0.6870   -1.81290
  0.6890   -1.79290
  0.6910   -1.77470
  0.6930   -1.75830
  0.6950   -1.74340
  0.6970   -1.73040
  0.6990   -1.71900
  0.7010   -1.70890
  0.7030   -1.70020
  0.7050   -1.69300
  0.7070   -1.68690
  0.7090   -1.68210
  0.7110   -1.67870
  0.7130   -1.67630
  0.7150   -1.67500
  0.7170   -1.67470
  0.7190   -1.67550
  0.7210   -1.67710
  0.7230   -1.67950
  0.7250   -1.68260
  0.7270   -1.68640
  0.7290   -1.69080
  0.7310   -1.69580
  0.7330   -1.70130
  0.7350   -1.70740
  0.7370   -1.71390
  0.7390   -1.72060
  0.7410   -1.72750
  0.7430   -1.73480
  0.7450   -1.74210
  0.7470   -1.74970
  0.7490   -1.75740
  0.7510   -1.76510
  0.7530   -1.77300
  0.7550   -1.78070
  0.7570   -1.78850
  0.7590   -1.79620
  0.7610   -1.80350
  0.7630   -1.81050
  0.7650   -1.81730
  0.7670   -1.82390
  0.7690   -1.83010
  0.7710   -1.83600
  0.7730   -1.84160
  0.7750   -1.84670
  0.7770   -1.85150
  0.7790   -1.85590
  0.7810   -1.85970
  0.7830   -1.86320
  0.7850   -1.86640
  0.7870   -1.86900
  0.7890   -1.87090
  0.7910   -1.87240
  0.7930   -1.87330
  0.7950   -1.87360
  0.7970   -1.87340
  0.7990   -1.87270
  0.8010   -1.87140
  0.8030   -1.86950
  0.8050   -1.86690
  0.8070   -1.86360
  0.8090   -1.85980
  0.8110   -1.85540
  0.8130   -1.85050
  0.8150   -1.84480
  0.8170   -1.83840
  0.8190   -1.83150
  0.8210   -1.82400
  0.8230   -1.81590
  0.8250   -1.80710
  0.8270   -1.79760
  0.8290   -1.78760
  0.8310   -1.77700
  0.8330   -1.76590
  0.8350   -1.75410
  0.8370   -1.74180
  0.8390   -1.72890
  0.8410   -1.71540
  0.8430   -1.70140
  0.8450   -1.68670
  0.8470   -1.67160
  0.8490   -1.65600
  0.8510   -1.63990
  0.8530   -1.62320
  0.8550   -1.60610
  0.8570   -1.58860
  0.8590   -1.57060
  0.8610   -1.55220
  0.8630   -1.53330
  0.8650   -1.51400
  0.8670   -1.49440
  0.8690   -1.47440
  0.8710   -1.45410
  0.8730   -1.43350
  0.8750   -1.41260
  0.8770   -1.39140
  0.8790   -1.37000
  0.8810   -1.34840
  0.8830   -1.32660
  0.8850   -1.30470
  0.8870   -1.28250
  0.8890   -1.26030
  0.8910   -1.23790
  0.8930   -1.21540
  0.8950   -1.19280
  0.8970   -1.17030
  0.8990   -1.14780
  0.9010   -1.12550
  0.9030   -1.10310
  0.9050   -1.08100
  0.9070   -1.05900
  0.9090   -1.03700
  0.9110   -1.01510
  0.9130   -0.99350
  0.9150   -0.97220
  0.9170   -0.95110
  0.9190   -0.93020
  0.9210   -0.90960
  0.9230   -0.88930
  0.9250   -0.86940
  0.9270   -0.84980
  0.9290   -0.83050
  0.9310   -0.81160
  0.9330   -0.79310
  0.9350   -0.77490
  0.9370   -0.75710
  0.9390   -0.73990
  0.9410   -0.72320
  0.9430   -0.70690
  0.9450   -0.69090
  0.9470   -0.67540
  0.9490   -0.66040
  0.9510   -0.64580
  0.9530   -0.63170
  0.9550   -0.61820
  0.9570   -0.60510
  0.9590   -0.59270
  0.9610   -0.58080
  0.9630   -0.56930
  0.9650   -0.55820
  0.9670   -0.54750
  0.9690   -0.53730
  0.9710   -0.52760
  0.9730   -0.51840
  0.9750   -0.50970
  0.9770   -0.50120
  0.9790   -0.49350
  0.9810   -0.48610
  0.9830   -0.47910
  0.9850   -0.47240
  0.9870   -0.46620
  0.9890   -0.46030
  0.9910   -0.45480
  0.9930   -0.44960
  0.9950   -0.44480
  0.9970   -0.44020
  0.9990   -0.43590
  1.0010   -0.43210
  1.0030   -0.42840
  1.0050   -0.42510
  1.0070   -0.42210
  1.0090   -0.41940
  1.0110   -0.41690
  1.0130   -0.41460
  1.0150   -0.41260
  1.0170   -0.41070
  1.0190   -0.40900
  1.0210   -0.40750
  1.0230   -0.40620
  1.0250   -0.40500
  1.0270   -0.40400
  1.0290   -0.40310
  1.0310   -0.40230
  1.0330   -0.40170
  1.0350   -0.40110
  1.0370   -0.40060
  1.0390   -0.40030
  1.0410   -0.40000
  1.0430   -0.39990
  1.0450   -0.39980
  1.0470   -0.39990
  1.0490   -0.39990
  1.0510   -0.40000
  1.0530   -0.40020
  1.0550   -0.40040
  1.0570   -0.40060
  1.0590   -0.40080
  1.0610   -0.40090
  1.0630   -0.40100
  1.0650   -0.40120
  1.0670   -0.40130
  1.0690   -0.40150
  1.0710   -0.40170
  1.0730   -0.40190
  1.0750   -0.40190
  1.0770   -0.40190
  1.0790   -0.40180
  1.0810   -0.40170
  1.0830   -0.40150
  1.0850   -0.40120
  1.0870   -0.40090
  1.0890   -0.40050
  1.0910   -0.40000
  1.0930   -0.39950
  1.0950   -0.39890
  1.0970   -0.39820
  1.0990   -0.39740
  1.1010   -0.39640
  1.1030   -0.39540
  1.1050   -0.39430
  1.1070   -0.39300
  1.1090   -0.39150
  1.1110   -0.39010
  1.1130   -0.38860
  1.1150   -0.38680
  1.1170   -0.38490
  1.1190   -0.38290
  1.1210   -0.38090
  1.1230   -0.37860
  1.1250   -0.37630
  1.1270   -0.37400
  1.1290   -0.37150
  1.1310   -0.36900
  1.1330   -0.36630
  1.1350   -0.36350
  1.1370   -0.36070
  1.1390   -0.35780
  1.1410   -0.35480
  1.1430   -0.35170
  1.1450   -0.34850
  1.1470   -0.34520
  1.1490   -0.34190
  1.1510   -0.33860
  1.1530   -0.33530
  1.1550   -0.33180
  1.1570   -0.32810
  1.1590   -0.32440
  1.1610   -0.32060
  1.1630   -0.31680
  1.1650   -0.31290
  1.1670   -0.30900
  1.1690   -0.30510
  1.1710   -0.30110
  1.1730   -0.29710
  1.1750   -0.29300
  1.1770   -0.28880
  1.1790   -0.28440
  1.1810   -0.28000
  1.1830   -0.27560
  1.1850   -0.27110
  1.1870   -0.26660
  1.1890   -0.26180
  1.1910   -0.25700
  1.1930   -0.25210
  1.1950   -0.24720
  1.1970   -0.24220
  1.1990   -0.23710
  1.2010   -0.23190
  1.2030   -0.22660
  1.2050   -0.22130
  1.2070   -0.21580
  1.2090   -0.21010
  1.2110   -0.20420
  1.2130   -0.19830
  1.2150   -0.19240
  1.2170   -0.18630
  1.2190   -0.18020
  1.2210   -0.17400
  1.2230   -0.16760
  1.2250   -0.16120
  1.2270   -0.15460
  1.2290   -0.14800
  1.2310   -0.14130
  1.2330   -0.13460
  1.2350   -0.12790
  1.2370   -0.12100
  1.2390   -0.11410
  1.2410   -0.10720
  1.2430   -0.10020
  1.2450   -0.09320
  1.2470   -0.08620
  1.2490   -0.07930
  1.2510   -0.07240
  1.2530   -0.06550
  1.2550   -0.05850
  1.2570   -0.05160
  1.2590   -0.04460
  1.2610   -0.03780
  1.2630   -0.03100
  1.2650   -0.02440
  1.2670   -0.01780
  1.2690   -0.01100
  1.2710   -0.00450
  1.2730    0.00180
  1.2750    0.00790
  1.2770    0.01390
  1.2790    0.01960
  1.2810    0.02520
  1.2830    0.03070
  1.2850    0.03590
  1.2870    0.04090
  1.2890    0.04570
  1.2910    0.05040
  1.2930    0.05470
  1.2950    0.05880
  1.2970    0.06270
  1.2990    0.06640
  1.3010    0.06990
  1.3030    0.07310
  1.3050    0.07610
  1.3070    0.07900
  1.3090    0.08170
  1.3110    0.08410
  1.3130    0.08630
  1.3150    0.08830
  1.3170    0.08990
  1.3190    0.09130
  1.3210    0.09260
  1.3230    0.09370
  1.3250    0.09450
  1.3270    0.09520
  1.3290    0.09570
  1.3310    0.09610
  1.3330    0.09610
  1.3350    0.09600
  1.3370    0.09590
  1.3390    0.09570
  1.3410    0.09530
  1.3430    0.09480
  1.3450    0.09420
  1.3470    0.09340
  1.3490    0.09240
  1.3510    0.09130
  1.3530    0.09020
  1.3550    0.08910
  1.3570    0.08790
  1.3590    0.08660
  1.3610    0.08510
  1.3630    0.08350
  1.3650    0.08200
  1.3670    0.08040
  1.3690    0.07870
  1.3710    0.07700
  1.3730    0.07520
  1.3750    0.07330
  1.3770    0.07130
  1.3790    0.06920
  1.3810    0.06710
  1.3830    0.06490
  1.3850    0.06260
  1.3870    0.06020
  1.3890    0.05780
  1.3910    0.05510
  1.3930    0.05220
  1.3950    0.04910
  1.3970    0.04570
  1.3990    0.04210
