# z (nm)   (kJ/mol)
  0.303000,  7.400400
  0.305000,  6.970600
  0.307000,  6.491500
  0.309000,  6.020500
  0.311000,  5.526900
  0.313000,  5.038300
  0.315000,  4.574900
  0.317000,  4.103200
  0.319000,  3.618900
  0.321000,  3.135100
  0.323000,  2.654200
  0.325000,  2.176300
  0.327000,  1.694900
  0.329000,  1.216400
  0.331000,  0.748200
  0.333000,  0.284700
  0.335000, -0.177800
  0.337000, -0.636500
  0.339000, -1.090200
  0.341000, -1.534900
  0.343000, -1.970900
  0.345000, -2.401200
  0.347000, -2.823500
  0.349000, -3.234400
  0.351000, -3.635600
  0.353000, -4.024700
  0.355000, -4.399700
  0.357000, -4.763400
  0.359000, -5.112600
  0.361000, -5.451100
  0.363000, -5.778900
  0.365000, -6.090800
  0.367000, -6.387700
  0.369000, -6.671000
  0.371000, -6.939800
  0.373000, -7.193700
  0.375000, -7.433700
  0.377000, -7.657900
  0.379000, -7.866400
  0.381000, -8.060500
  0.383000, -8.240300
  0.385000, -8.405500
  0.387000, -8.555900
  0.389000, -8.691600
  0.391000, -8.812500
  0.393000, -8.919200
  0.395000, -9.012000
  0.397000, -9.090200
  0.399000, -9.154200
  0.401000, -9.205300
  0.403000, -9.243000
  0.405000, -9.267500
  0.407000, -9.279600
  0.409000, -9.280200
  0.411000, -9.270000
  0.413000, -9.248600
  0.415000, -9.216800
  0.417000, -9.176000
  0.419000, -9.125400
  0.421000, -9.065300
  0.423000, -8.997100
  0.425000, -8.921600
  0.427000, -8.839000
  0.429000, -8.749600
  0.431000, -8.654700
  0.433000, -8.555300
  0.435000, -8.451200
  0.437000, -8.342800
  0.439000, -8.231200
  0.441000, -8.116500
  0.443000, -7.999700
  0.445000, -7.881300
  0.447000, -7.761500
  0.449000, -7.641400
  0.451000, -7.521600
  0.453000, -7.401700
  0.455000, -7.282200
  0.457000, -7.163900
  0.459000, -7.046900
  0.461000, -6.931300
  0.463000, -6.817200
  0.465000, -6.705300
  0.467000, -6.595700
  0.469000, -6.487800
  0.471000, -6.382300
  0.473000, -6.279200
  0.475000, -6.178600
  0.477000, -6.080600
  0.479000, -5.984900
  0.481000, -5.891600
  0.483000, -5.800700
  0.485000, -5.712100
  0.487000, -5.626000
  0.489000, -5.542100
  0.491000, -5.460300
  0.493000, -5.380200
  0.495000, -5.301500
  0.497000, -5.224700
  0.499000, -5.149200
  0.501000, -5.074800
  0.503000, -5.001800
  0.505000, -4.929800
  0.507000, -4.858600
  0.509000, -4.787900
  0.511000, -4.717600
  0.513000, -4.647700
  0.515000, -4.578100
  0.517000, -4.508700
  0.519000, -4.439100
  0.521000, -4.369100
  0.523000, -4.298800
  0.525000, -4.228100
  0.527000, -4.156900
  0.529000, -4.085000
  0.531000, -4.012300
  0.533000, -3.938800
  0.535000, -3.864600
  0.537000, -3.789400
  0.539000, -3.713400
  0.541000, -3.636500
  0.543000, -3.558600
  0.545000, -3.479700
  0.547000, -3.399900
  0.549000, -3.319000
  0.551000, -3.237300
  0.553000, -3.154800
  0.555000, -3.071500
  0.557000, -2.987300
  0.559000, -2.902400
  0.561000, -2.817000
  0.563000, -2.731000
  0.565000, -2.644500
  0.567000, -2.558100
  0.569000, -2.471900
  0.571000, -2.385200
  0.573000, -2.298700
  0.575000, -2.212900
  0.577000, -2.127000
  0.579000, -2.041000
  0.581000, -1.955300
  0.583000, -1.870200
  0.585000, -1.785800
  0.587000, -1.702800
  0.589000, -1.621300
  0.591000, -1.540500
  0.593000, -1.461100
  0.595000, -1.383600
  0.597000, -1.307700
  0.599000, -1.233500
  0.601000, -1.161300
  0.603000, -1.090800
  0.605000, -1.022100
  0.607000, -0.955600
  0.609000, -0.891600
  0.611000, -0.829900
  0.613000, -0.770800
  0.615000, -0.714400
  0.617000, -0.660900
  0.619000, -0.610100
  0.621000, -0.562000
  0.623000, -0.516400
  0.625000, -0.473500
  0.627000, -0.433600
  0.629000, -0.396500
  0.631000, -0.362100
  0.633000, -0.330300
  0.635000, -0.301500
  0.637000, -0.275500
  0.639000, -0.252100
  0.641000, -0.231400
  0.643000, -0.213200
  0.645000, -0.197500
  0.647000, -0.184300
  0.649000, -0.173600
  0.651000, -0.165300
  0.653000, -0.159300
  0.655000, -0.155500
  0.657000, -0.153600
  0.659000, -0.153700
  0.661000, -0.155800
  0.663000, -0.159900
  0.665000, -0.165600
  0.667000, -0.172700
  0.669000, -0.181000
  0.671000, -0.190600
  0.673000, -0.201700
  0.675000, -0.214100
  0.677000, -0.227500
  0.679000, -0.241700
  0.681000, -0.256900
  0.683000, -0.272800
  0.685000, -0.289200
  0.687000, -0.306100
  0.689000, -0.323300
  0.691000, -0.340900
  0.693000, -0.358800
  0.695000, -0.376800
  0.697000, -0.395100
  0.699000, -0.413300
  0.701000, -0.431300
  0.703000, -0.449200
  0.705000, -0.467000
  0.707000, -0.484700
  0.709000, -0.501800
  0.711000, -0.518600
  0.713000, -0.535000
  0.715000, -0.551100
  0.717000, -0.566700
  0.719000, -0.581800
  0.721000, -0.596400
  0.723000, -0.610300
  0.725000, -0.623600
  0.727000, -0.636300
  0.729000, -0.648300
  0.731000, -0.659900
  0.733000, -0.670800
  0.735000, -0.681000
  0.737000, -0.690900
  0.739000, -0.700100
  0.741000, -0.708600
  0.743000, -0.716500
  0.745000, -0.723800
  0.747000, -0.730400
  0.749000, -0.736500
  0.751000, -0.741900
  0.753000, -0.746900
  0.755000, -0.751300
  0.757000, -0.755200
  0.759000, -0.758500
  0.761000, -0.761400
  0.763000, -0.763900
  0.765000, -0.765800
  0.767000, -0.767300
  0.769000, -0.768400
  0.771000, -0.768900
  0.773000, -0.769000
  0.775000, -0.768800
  0.777000, -0.768200
  0.779000, -0.767200
  0.781000, -0.765900
  0.783000, -0.764100
  0.785000, -0.762000
  0.787000, -0.759500
  0.789000, -0.756700
  0.791000, -0.753700
  0.793000, -0.750200
  0.795000, -0.746300
  0.797000, -0.742100
  0.799000, -0.737600
  0.801000, -0.732800
  0.803000, -0.727500
  0.805000, -0.721900
  0.807000, -0.716000
  0.809000, -0.709800
  0.811000, -0.703200
  0.813000, -0.696300
  0.815000, -0.689000
  0.817000, -0.681200
  0.819000, -0.673200
  0.821000, -0.664800
  0.823000, -0.656100
  0.825000, -0.647000
  0.827000, -0.637500
  0.829000, -0.627700
  0.831000, -0.617600
  0.833000, -0.607200
  0.835000, -0.596500
  0.837000, -0.585300
  0.839000, -0.573700
  0.841000, -0.561900
  0.843000, -0.549700
  0.845000, -0.537200
  0.847000, -0.524400
  0.849000, -0.511100
  0.851000, -0.497500
  0.853000, -0.483500
  0.855000, -0.469300
  0.857000, -0.455000
  0.859000, -0.440500
  0.861000, -0.425700
  0.863000, -0.410700
  0.865000, -0.395500
  0.867000, -0.380200
  0.869000, -0.364800
  0.871000, -0.349000
  0.873000, -0.333000
  0.875000, -0.317100
  0.877000, -0.301100
  0.879000, -0.285100
  0.881000, -0.269100
  0.883000, -0.253000
  0.885000, -0.237100
  0.887000, -0.221200
  0.889000, -0.205300
  0.891000, -0.189600
  0.893000, -0.174300
  0.895000, -0.159100
  0.897000, -0.144100
  0.899000, -0.129100
  0.901000, -0.114500
  0.903000, -0.100300
  0.905000, -0.086100
  0.907000, -0.072300
  0.909000, -0.059100
  0.911000, -0.046300
  0.913000, -0.033700
  0.915000, -0.021500
  0.917000, -0.009700
  0.919000,  0.001600
  0.921000,  0.012500
  0.923000,  0.022900
  0.925000,  0.032700
  0.927000,  0.042100
  0.929000,  0.051000
  0.931000,  0.059400
  0.933000,  0.067400
  0.935000,  0.074900
  0.937000,  0.081700
  0.939000,  0.088100
  0.941000,  0.094000
  0.943000,  0.099400
  0.945000,  0.104400
  0.947000,  0.108900
  0.949000,  0.112900
  0.951000,  0.116400
  0.953000,  0.119400
  0.955000,  0.122100
  0.957000,  0.124400
  0.959000,  0.126200
  0.961000,  0.127600
  0.963000,  0.128700
  0.965000,  0.129500
  0.967000,  0.130000
  0.969000,  0.130100
  0.971000,  0.129900
  0.973000,  0.129400
  0.975000,  0.128500
  0.977000,  0.127400
  0.979000,  0.126000
  0.981000,  0.124300
  0.983000,  0.122400
  0.985000,  0.120300
  0.987000,  0.118000
  0.989000,  0.115500
  0.991000,  0.112800
  0.993000,  0.109900
  0.995000,  0.106800
  0.997000,  0.103600
  0.999000,  0.100300
  1.001000,  0.096800
  1.003000,  0.093300
  1.005000,  0.089600
  1.007000,  0.085800
  1.009000,  0.082000
  1.011000,  0.078000
  1.013000,  0.074000
  1.015000,  0.069800
  1.017000,  0.065600
  1.019000,  0.061300
  1.021000,  0.057000
  1.023000,  0.052500
  1.025000,  0.047900
  1.027000,  0.043400
  1.029000,  0.038800
  1.031000,  0.034300
  1.033000,  0.029800
  1.035000,  0.025100
  1.037000,  0.020400
  1.039000,  0.015800
  1.041000,  0.011100
  1.043000,  0.006400
  1.045000,  0.001800
  1.047000, -0.002800
  1.049000, -0.007400
  1.051000, -0.011900
  1.053000, -0.016300
  1.055000, -0.020600
  1.057000, -0.024900
  1.059000, -0.029100
  1.061000, -0.033200
  1.063000, -0.037300
  1.065000, -0.041200
  1.067000, -0.045000
  1.069000, -0.048600
  1.071000, -0.052000
  1.073000, -0.055100
  1.075000, -0.058000
  1.077000, -0.060800
  1.079000, -0.063400
  1.081000, -0.065900
  1.083000, -0.068300
  1.085000, -0.070400
  1.087000, -0.072400
  1.089000, -0.074100
  1.091000, -0.075600
  1.093000, -0.077000
  1.095000, -0.078100
  1.097000, -0.078900
  1.099000, -0.079500
  1.101000, -0.079900
  1.103000, -0.080200
  1.105000, -0.080300
  1.107000, -0.080300
  1.109000, -0.080000
  1.111000, -0.079500
  1.113000, -0.078800
  1.115000, -0.077800
  1.117000, -0.076800
  1.119000, -0.075700
  1.121000, -0.074300
  1.123000, -0.072800
  1.125000, -0.071400
  1.127000, -0.069800
  1.129000, -0.067900
  1.131000, -0.066000
  1.133000, -0.064000
  1.135000, -0.062000
  1.137000, -0.060000
  1.139000, -0.057800
  1.141000, -0.055500
  1.143000, -0.053200
  1.145000, -0.050900
  1.147000, -0.048600
  1.149000, -0.046400
  1.151000, -0.044000
  1.153000, -0.041600
  1.155000, -0.039300
  1.157000, -0.037000
  1.159000, -0.034600
  1.161000, -0.032300
  1.163000, -0.029900
  1.165000, -0.027500
  1.167000, -0.025100
  1.169000, -0.022800
  1.171000, -0.020600
  1.173000, -0.018300
  1.175000, -0.016000
  1.177000, -0.013800
  1.179000, -0.011400
  1.181000, -0.009200
  1.183000, -0.007100
  1.185000, -0.005000
  1.187000, -0.002900
  1.189000, -0.000700
  1.191000,  0.001300
  1.193000,  0.003300
  1.195000,  0.005300
  1.197000,  0.007200
  1.199000,  0.009100
  1.201000,  0.010900
  1.203000,  0.012700
  1.205000,  0.014500
  1.207000,  0.016200
  1.209000,  0.017800
  1.211000,  0.019400
  1.213000,  0.021000
  1.215000,  0.022500
  1.217000,  0.023900
  1.219000,  0.025200
  1.221000,  0.026500
  1.223000,  0.027600
  1.225000,  0.028700
  1.227000,  0.029700
  1.229000,  0.030500
  1.231000,  0.031300
  1.233000,  0.032000
  1.235000,  0.032600
  1.237000,  0.033100
  1.239000,  0.033500
  1.241000,  0.033700
  1.243000,  0.033700
  1.245000,  0.033600
  1.247000,  0.033400
  1.249000,  0.033100
  1.251000,  0.032600
  1.253000,  0.032000
  1.255000,  0.031400
  1.257000,  0.030600
  1.259000,  0.029700
  1.261000,  0.028600
  1.263000,  0.027400
  1.265000,  0.026100
  1.267000,  0.024800
  1.269000,  0.023400
  1.271000,  0.021800
  1.273000,  0.020000
  1.275000,  0.018200
  1.277000,  0.016300
  1.279000,  0.014200
  1.281000,  0.012100
  1.283000,  0.010000
  1.285000,  0.007800
  1.287000,  0.005600
  1.289000,  0.003500
  1.291000,  0.001400
  1.293000, -0.000700
  1.295000, -0.002900
  1.297000, -0.005100
  1.299000, -0.007200
  1.301000, -0.009400
  1.303000, -0.011500
  1.305000, -0.013500
  1.307000, -0.015400
  1.309000, -0.017200
  1.311000, -0.019000
  1.313000, -0.020700
  1.315000, -0.022200
  1.317000, -0.023600
  1.319000, -0.024900
  1.321000, -0.026100
  1.323000, -0.027200
  1.325000, -0.028000
  1.327000, -0.028800
  1.329000, -0.029400
  1.331000, -0.030000
  1.333000, -0.030400
  1.335000, -0.030700
  1.337000, -0.030900
  1.339000, -0.030900
  1.341000, -0.030800
  1.343000, -0.030400
  1.345000, -0.030000
  1.347000, -0.029600
  1.349000, -0.029100
  1.351000, -0.028500
  1.353000, -0.027600
  1.355000, -0.026700
  1.357000, -0.025800
  1.359000, -0.024700
  1.361000, -0.023600
  1.363000, -0.022600
  1.365000, -0.021400
  1.367000, -0.020300
  1.369000, -0.019300
  1.371000, -0.018200
  1.373000, -0.017100
  1.375000, -0.016000
  1.377000, -0.015000
  1.379000, -0.014100
  1.381000, -0.013300
  1.383000, -0.012700
  1.385000, -0.012200
  1.387000, -0.011800
  1.389000, -0.011900
  1.391000, -0.012200
  1.393000, -0.012700
  1.395000, -0.013500
  1.397000, -0.014500
  1.399000, -0.016000
