# z (nm)   (kJ/mol)
  0.243000, 14.599400
  0.245000, 14.389800
  0.247000, 14.175000
  0.249000, 13.955000
  0.251000, 13.723800
  0.253000, 13.489600
  0.255000, 13.244500
  0.257000, 12.993800
  0.259000, 12.730600
  0.261000, 12.454500
  0.263000, 12.176400
  0.265000, 11.905600
  0.267000, 11.627200
  0.269000, 11.337800
  0.271000, 11.044200
  0.273000, 10.745900
  0.275000, 10.449600
  0.277000, 10.151000
  0.279000,  9.846000
  0.281000,  9.536200
  0.283000,  9.229500
  0.285000,  8.925500
  0.287000,  8.616400
  0.289000,  8.300600
  0.291000,  7.987800
  0.293000,  7.680400
  0.295000,  7.373400
  0.297000,  7.069000
  0.299000,  6.769200
  0.301000,  6.470100
  0.303000,  6.171900
  0.305000,  5.880700
  0.307000,  5.597300
  0.309000,  5.319600
  0.311000,  5.045100
  0.313000,  4.774000
  0.315000,  4.505900
  0.317000,  4.241000
  0.319000,  3.982800
  0.321000,  3.731200
  0.323000,  3.488700
  0.325000,  3.253100
  0.327000,  3.022500
  0.329000,  2.797100
  0.331000,  2.576900
  0.333000,  2.363200
  0.335000,  2.155200
  0.337000,  1.954200
  0.339000,  1.761100
  0.341000,  1.576100
  0.343000,  1.398200
  0.345000,  1.226200
  0.347000,  1.059200
  0.349000,  0.899000
  0.351000,  0.745800
  0.353000,  0.598800
  0.355000,  0.458500
  0.357000,  0.325500
  0.359000,  0.198900
  0.361000,  0.077500
  0.363000, -0.037300
  0.365000, -0.145000
  0.367000, -0.246400
  0.369000, -0.341800
  0.371000, -0.431900
  0.373000, -0.516500
  0.375000, -0.595400
  0.377000, -0.669300
  0.379000, -0.737700
  0.381000, -0.800000
  0.383000, -0.857000
  0.385000, -0.909100
  0.387000, -0.955800
  0.389000, -0.997700
  0.391000, -1.034500
  0.393000, -1.066300
  0.395000, -1.093900
  0.397000, -1.117500
  0.399000, -1.136800
  0.401000, -1.152100
  0.403000, -1.163900
  0.405000, -1.171900
  0.407000, -1.176500
  0.409000, -1.177300
  0.411000, -1.174400
  0.413000, -1.168800
  0.415000, -1.160100
  0.417000, -1.148800
  0.419000, -1.135000
  0.421000, -1.118200
  0.423000, -1.099200
  0.425000, -1.077900
  0.427000, -1.054400
  0.429000, -1.028400
  0.431000, -1.000100
  0.433000, -0.969800
  0.435000, -0.937800
  0.437000, -0.904400
  0.439000, -0.869300
  0.441000, -0.833100
  0.443000, -0.795100
  0.445000, -0.755400
  0.447000, -0.714500
  0.449000, -0.672300
  0.451000, -0.628900
  0.453000, -0.584800
  0.455000, -0.539800
  0.457000, -0.493600
  0.459000, -0.446500
  0.461000, -0.398600
  0.463000, -0.350000
  0.465000, -0.300900
  0.467000, -0.251100
  0.469000, -0.200700
  0.471000, -0.150300
  0.473000, -0.099500
  0.475000, -0.048500
  0.477000,  0.002600
  0.479000,  0.053500
  0.481000,  0.104400
  0.483000,  0.155100
  0.485000,  0.205500
  0.487000,  0.256100
  0.489000,  0.306300
  0.491000,  0.355900
  0.493000,  0.404600
  0.495000,  0.452600
  0.497000,  0.499900
  0.499000,  0.546200
  0.501000,  0.591600
  0.503000,  0.636100
  0.505000,  0.679700
  0.507000,  0.722100
  0.509000,  0.762900
  0.511000,  0.802000
  0.513000,  0.839700
  0.515000,  0.875900
  0.517000,  0.910600
  0.519000,  0.943400
  0.521000,  0.974600
  0.523000,  1.004000
  0.525000,  1.031600
  0.527000,  1.057200
  0.529000,  1.081100
  0.531000,  1.102700
  0.533000,  1.122200
  0.535000,  1.139600
  0.537000,  1.154900
  0.539000,  1.168100
  0.541000,  1.179400
  0.543000,  1.188600
  0.545000,  1.195500
  0.547000,  1.200000
  0.549000,  1.202500
  0.551000,  1.202900
  0.553000,  1.201200
  0.555000,  1.197300
  0.557000,  1.191200
  0.559000,  1.183000
  0.561000,  1.172900
  0.563000,  1.160700
  0.565000,  1.146600
  0.567000,  1.130600
  0.569000,  1.112800
  0.571000,  1.093100
  0.573000,  1.071500
  0.575000,  1.048300
  0.577000,  1.023600
  0.579000,  0.997300
  0.581000,  0.969500
  0.583000,  0.940300
  0.585000,  0.909600
  0.587000,  0.877500
  0.589000,  0.844300
  0.591000,  0.810100
  0.593000,  0.774900
  0.595000,  0.738900
  0.597000,  0.701900
  0.599000,  0.664000
  0.601000,  0.625700
  0.603000,  0.586700
  0.605000,  0.547100
  0.607000,  0.506800
  0.609000,  0.466100
  0.611000,  0.425300
  0.613000,  0.384400
  0.615000,  0.343400
  0.617000,  0.302300
  0.619000,  0.261300
  0.621000,  0.220300
  0.623000,  0.179600
  0.625000,  0.139300
  0.627000,  0.099200
  0.629000,  0.059500
  0.631000,  0.020500
  0.633000, -0.018000
  0.635000, -0.055800
  0.637000, -0.092900
  0.639000, -0.129000
  0.641000, -0.164200
  0.643000, -0.198800
  0.645000, -0.232400
  0.647000, -0.265000
  0.649000, -0.296500
  0.651000, -0.326800
  0.653000, -0.356100
  0.655000, -0.384200
  0.657000, -0.411000
  0.659000, -0.436500
  0.661000, -0.460600
  0.663000, -0.483600
  0.665000, -0.505400
  0.667000, -0.526000
  0.669000, -0.545000
  0.671000, -0.562800
  0.673000, -0.579200
  0.675000, -0.594300
  0.677000, -0.608100
  0.679000, -0.620400
  0.681000, -0.631300
  0.683000, -0.640900
  0.685000, -0.649200
  0.687000, -0.656200
  0.689000, -0.661800
  0.691000, -0.666100
  0.693000, -0.669100
  0.695000, -0.670900
  0.697000, -0.671500
  0.699000, -0.670900
  0.701000, -0.669200
  0.703000, -0.666300
  0.705000, -0.662200
  0.707000, -0.657100
  0.709000, -0.650900
  0.711000, -0.643800
  0.713000, -0.635700
  0.715000, -0.626700
  0.717000, -0.616800
  0.719000, -0.606200
  0.721000, -0.594800
  0.723000, -0.582700
  0.725000, -0.569900
  0.727000, -0.556400
  0.729000, -0.542300
  0.731000, -0.527700
  0.733000, -0.512700
  0.735000, -0.497200
  0.737000, -0.481200
  0.739000, -0.464900
  0.741000, -0.448300
  0.743000, -0.431400
  0.745000, -0.414400
  0.747000, -0.397200
  0.749000, -0.379800
  0.751000, -0.362200
  0.753000, -0.344600
  0.755000, -0.327100
  0.757000, -0.309500
  0.759000, -0.292100
  0.761000, -0.274700
  0.763000, -0.257500
  0.765000, -0.240500
  0.767000, -0.223700
  0.769000, -0.207200
  0.771000, -0.191000
  0.773000, -0.175100
  0.775000, -0.159400
  0.777000, -0.144100
  0.779000, -0.129200
  0.781000, -0.114700
  0.783000, -0.100700
  0.785000, -0.087100
  0.787000, -0.074000
  0.789000, -0.061300
  0.791000, -0.049100
  0.793000, -0.037500
  0.795000, -0.026400
  0.797000, -0.015800
  0.799000, -0.005600
  0.801000,  0.003900
  0.803000,  0.012900
  0.805000,  0.021400
  0.807000,  0.029300
  0.809000,  0.036700
  0.811000,  0.043400
  0.813000,  0.049600
  0.815000,  0.055300
  0.817000,  0.060600
  0.819000,  0.065300
  0.821000,  0.069500
  0.823000,  0.073300
  0.825000,  0.076600
  0.827000,  0.079400
  0.829000,  0.081700
  0.831000,  0.083500
  0.833000,  0.084800
  0.835000,  0.085700
  0.837000,  0.086300
  0.839000,  0.086600
  0.841000,  0.086400
  0.843000,  0.085800
  0.845000,  0.084900
  0.847000,  0.083700
  0.849000,  0.082100
  0.851000,  0.080100
  0.853000,  0.078000
  0.855000,  0.075700
  0.857000,  0.073100
  0.859000,  0.070400
  0.861000,  0.067500
  0.863000,  0.064400
  0.865000,  0.061200
  0.867000,  0.057800
  0.869000,  0.054300
  0.871000,  0.050600
  0.873000,  0.046900
  0.875000,  0.043000
  0.877000,  0.039100
  0.879000,  0.035200
  0.881000,  0.031300
  0.883000,  0.027300
  0.885000,  0.023300
  0.887000,  0.019300
  0.889000,  0.015300
  0.891000,  0.011400
  0.893000,  0.007500
  0.895000,  0.003500
  0.897000, -0.000400
  0.899000, -0.004200
  0.901000, -0.007900
  0.903000, -0.011600
  0.905000, -0.015300
  0.907000, -0.018800
  0.909000, -0.022200
  0.911000, -0.025600
  0.913000, -0.028900
  0.915000, -0.032100
  0.917000, -0.035300
  0.919000, -0.038400
  0.921000, -0.041400
  0.923000, -0.044300
  0.925000, -0.047000
  0.927000, -0.049600
  0.929000, -0.052100
  0.931000, -0.054500
  0.933000, -0.056800
  0.935000, -0.059100
  0.937000, -0.061200
  0.939000, -0.063200
  0.941000, -0.065100
  0.943000, -0.066900
  0.945000, -0.068600
  0.947000, -0.070200
  0.949000, -0.071600
  0.951000, -0.072800
  0.953000, -0.074000
  0.955000, -0.075100
  0.957000, -0.076000
  0.959000, -0.076800
  0.961000, -0.077500
  0.963000, -0.078100
  0.965000, -0.078500
  0.967000, -0.078900
  0.969000, -0.079200
  0.971000, -0.079300
  0.973000, -0.079300
  0.975000, -0.079200
  0.977000, -0.079000
  0.979000, -0.078700
  0.981000, -0.078200
  0.983000, -0.077700
  0.985000, -0.077000
  0.987000, -0.076200
  0.989000, -0.075300
  0.991000, -0.074200
  0.993000, -0.073100
  0.995000, -0.072000
  0.997000, -0.070700
  0.999000, -0.069300
  1.001000, -0.067800
  1.003000, -0.066300
  1.005000, -0.064700
  1.007000, -0.063200
  1.009000, -0.061500
  1.011000, -0.059800
  1.013000, -0.058000
  1.015000, -0.056200
  1.017000, -0.054300
  1.019000, -0.052400
  1.021000, -0.050500
  1.023000, -0.048600
  1.025000, -0.046600
  1.027000, -0.044600
  1.029000, -0.042700
  1.031000, -0.040700
  1.033000, -0.038700
  1.035000, -0.036700
  1.037000, -0.034800
  1.039000, -0.032800
  1.041000, -0.030900
  1.043000, -0.029000
  1.045000, -0.027100
  1.047000, -0.025300
  1.049000, -0.023500
  1.051000, -0.021600
  1.053000, -0.019800
  1.055000, -0.018100
  1.057000, -0.016400
  1.059000, -0.014700
  1.061000, -0.013100
  1.063000, -0.011600
  1.065000, -0.010100
  1.067000, -0.008600
  1.069000, -0.007300
  1.071000, -0.006000
  1.073000, -0.004600
  1.075000, -0.003400
  1.077000, -0.002100
  1.079000, -0.001000
  1.081000,  0.000100
  1.083000,  0.001000
  1.085000,  0.001900
  1.087000,  0.002800
  1.089000,  0.003600
  1.091000,  0.004300
  1.093000,  0.005000
  1.095000,  0.005700
  1.097000,  0.006300
  1.099000,  0.006700
  1.101000,  0.007200
  1.103000,  0.007500
  1.105000,  0.007800
  1.107000,  0.008000
  1.109000,  0.008100
  1.111000,  0.008200
  1.113000,  0.008300
  1.115000,  0.008200
  1.117000,  0.008100
  1.119000,  0.007900
  1.121000,  0.007600
  1.123000,  0.007200
  1.125000,  0.006800
  1.127000,  0.006300
  1.129000,  0.005700
  1.131000,  0.005100
  1.133000,  0.004400
  1.135000,  0.003600
  1.137000,  0.002800
  1.139000,  0.002000
  1.141000,  0.001200
  1.143000,  0.000300
  1.145000, -0.000700
  1.147000, -0.001600
  1.149000, -0.002600
  1.151000, -0.003600
  1.153000, -0.004500
  1.155000, -0.005500
  1.157000, -0.006500
  1.159000, -0.007400
  1.161000, -0.008400
  1.163000, -0.009300
  1.165000, -0.010100
  1.167000, -0.010800
  1.169000, -0.011600
  1.171000, -0.012300
  1.173000, -0.012900
  1.175000, -0.013500
  1.177000, -0.014000
  1.179000, -0.014500
  1.181000, -0.014900
  1.183000, -0.015200
  1.185000, -0.015400
  1.187000, -0.015400
  1.189000, -0.015400
  1.191000, -0.015400
  1.193000, -0.015200
  1.195000, -0.014900
  1.197000, -0.014500
  1.199000, -0.014100
  1.201000, -0.013500
  1.203000, -0.012900
  1.205000, -0.012200
  1.207000, -0.011300
  1.209000, -0.010300
  1.211000, -0.009300
  1.213000, -0.008200
  1.215000, -0.007000
  1.217000, -0.005700
  1.219000, -0.004400
  1.221000, -0.002900
  1.223000, -0.001400
  1.225000,  0.000200
  1.227000,  0.001700
  1.229000,  0.003300
  1.231000,  0.004900
  1.233000,  0.006500
  1.235000,  0.008200
  1.237000,  0.009900
  1.239000,  0.011500
  1.241000,  0.013200
  1.243000,  0.014900
  1.245000,  0.016500
  1.247000,  0.018000
  1.249000,  0.019500
  1.251000,  0.021000
  1.253000,  0.022400
  1.255000,  0.023700
  1.257000,  0.024900
  1.259000,  0.026100
  1.261000,  0.027100
  1.263000,  0.028100
  1.265000,  0.029000
  1.267000,  0.029700
  1.269000,  0.030400
  1.271000,  0.031000
  1.273000,  0.031400
  1.275000,  0.031800
  1.277000,  0.031900
  1.279000,  0.031800
  1.281000,  0.031700
  1.283000,  0.031600
  1.285000,  0.031200
  1.287000,  0.030700
  1.289000,  0.030000
  1.291000,  0.029200
  1.293000,  0.028200
  1.295000,  0.027100
  1.297000,  0.026000
  1.299000,  0.024700
  1.301000,  0.023300
  1.303000,  0.021900
  1.305000,  0.020300
  1.307000,  0.018600
  1.309000,  0.016900
  1.311000,  0.015200
  1.313000,  0.013400
  1.315000,  0.011400
  1.317000,  0.009200
  1.319000,  0.007000
  1.321000,  0.004700
  1.323000,  0.002500
  1.325000,  0.000400
  1.327000, -0.001800
  1.329000, -0.003900
  1.331000, -0.006100
  1.333000, -0.008300
  1.335000, -0.010300
  1.337000, -0.012200
  1.339000, -0.014000
  1.341000, -0.015800
  1.343000, -0.017800
  1.345000, -0.019500
  1.347000, -0.021000
  1.349000, -0.022500
  1.351000, -0.023900
  1.353000, -0.025300
  1.355000, -0.026500
  1.357000, -0.027500
  1.359000, -0.028500
  1.361000, -0.029200
  1.363000, -0.029900
  1.365000, -0.030400
  1.367000, -0.030900
  1.369000, -0.031200
  1.371000, -0.031400
  1.373000, -0.031600
  1.375000, -0.031600
  1.377000, -0.031700
  1.379000, -0.031800
  1.381000, -0.031800
  1.383000, -0.031600
  1.385000, -0.031500
  1.387000, -0.031400
  1.389000, -0.031400
  1.391000, -0.031600
  1.393000, -0.031900
  1.395000, -0.032400
  1.397000, -0.033200
  1.399000, -0.034200
