# z (nm)   (kJ/mol)
  0.293000, 10.318400
  0.297000,  9.475500
  0.299000,  9.083400
  0.301000,  8.672400
  0.303000,  8.250600
  0.305000,  7.819800
  0.307000,  7.384600
  0.309000,  6.952800
  0.311000,  6.517200
  0.313000,  6.081700
  0.315000,  5.641900
  0.317000,  5.190000
  0.319000,  4.730400
  0.321000,  4.273800
  0.323000,  3.823100
  0.325000,  3.374000
  0.327000,  2.924600
  0.329000,  2.478400
  0.331000,  2.036500
  0.333000,  1.597100
  0.335000,  1.161100
  0.337000,  0.730000
  0.339000,  0.304200
  0.341000, -0.114200
  0.343000, -0.524000
  0.345000, -0.927000
  0.347000, -1.323800
  0.349000, -1.712300
  0.351000, -2.092700
  0.353000, -2.464500
  0.355000, -2.824700
  0.357000, -3.173600
  0.359000, -3.513200
  0.361000, -3.843100
  0.363000, -4.160100
  0.365000, -4.465000
  0.367000, -4.760300
  0.369000, -5.042000
  0.371000, -5.311800
  0.373000, -5.571300
  0.375000, -5.818000
  0.377000, -6.052300
  0.379000, -6.274900
  0.381000, -6.484700
  0.383000, -6.680900
  0.385000, -6.864400
  0.387000, -7.035100
  0.389000, -7.192900
  0.391000, -7.338100
  0.393000, -7.470300
  0.395000, -7.589900
  0.397000, -7.697100
  0.399000, -7.791800
  0.401000, -7.874100
  0.403000, -7.944000
  0.405000, -8.001900
  0.407000, -8.049000
  0.409000, -8.084200
  0.411000, -8.108400
  0.413000, -8.122500
  0.415000, -8.126000
  0.417000, -8.119700
  0.419000, -8.104100
  0.421000, -8.080500
  0.423000, -8.048600
  0.425000, -8.007300
  0.427000, -7.957900
  0.429000, -7.901300
  0.431000, -7.837700
  0.433000, -7.769400
  0.435000, -7.696300
  0.437000, -7.618000
  0.439000, -7.536000
  0.441000, -7.450300
  0.443000, -7.361400
  0.445000, -7.269900
  0.447000, -7.175800
  0.449000, -7.079200
  0.451000, -6.981300
  0.453000, -6.882600
  0.455000, -6.783000
  0.457000, -6.682700
  0.459000, -6.582300
  0.461000, -6.482000
  0.463000, -6.382000
  0.465000, -6.282800
  0.467000, -6.184400
  0.469000, -6.087000
  0.471000, -5.990600
  0.473000, -5.895400
  0.475000, -5.801700
  0.477000, -5.709700
  0.479000, -5.619300
  0.481000, -5.530000
  0.483000, -5.442000
  0.485000, -5.355500
  0.487000, -5.270900
  0.489000, -5.188000
  0.491000, -5.106100
  0.493000, -5.026000
  0.495000, -4.947000
  0.497000, -4.868700
  0.499000, -4.791600
  0.501000, -4.715700
  0.503000, -4.640700
  0.505000, -4.566300
  0.507000, -4.492100
  0.509000, -4.418500
  0.511000, -4.345200
  0.513000, -4.272300
  0.515000, -4.199400
  0.517000, -4.126400
  0.519000, -4.053600
  0.521000, -3.980500
  0.523000, -3.907000
  0.525000, -3.833300
  0.527000, -3.759600
  0.529000, -3.685400
  0.531000, -3.610700
  0.533000, -3.535500
  0.535000, -3.459800
  0.537000, -3.383800
  0.539000, -3.307300
  0.541000, -3.230300
  0.543000, -3.152800
  0.545000, -3.074700
  0.547000, -2.996200
  0.549000, -2.917200
  0.551000, -2.837800
  0.553000, -2.758200
  0.555000, -2.678300
  0.557000, -2.598000
  0.559000, -2.517500
  0.561000, -2.437000
  0.563000, -2.356500
  0.565000, -2.276100
  0.567000, -2.195900
  0.569000, -2.115900
  0.571000, -2.036000
  0.573000, -1.956700
  0.575000, -1.878000
  0.577000, -1.799900
  0.579000, -1.722800
  0.581000, -1.647000
  0.583000, -1.571900
  0.585000, -1.497800
  0.587000, -1.424900
  0.589000, -1.353300
  0.591000, -1.283200
  0.593000, -1.214800
  0.595000, -1.148100
  0.597000, -1.083000
  0.599000, -1.020000
  0.601000, -0.958500
  0.603000, -0.898900
  0.605000, -0.841700
  0.607000, -0.786500
  0.609000, -0.733400
  0.611000, -0.682400
  0.613000, -0.633600
  0.615000, -0.587100
  0.617000, -0.542600
  0.619000, -0.500400
  0.621000, -0.460800
  0.623000, -0.423700
  0.625000, -0.389000
  0.627000, -0.356800
  0.629000, -0.327000
  0.631000, -0.299400
  0.633000, -0.274300
  0.635000, -0.251600
  0.637000, -0.231400
  0.639000, -0.213400
  0.641000, -0.197700
  0.643000, -0.184300
  0.645000, -0.172900
  0.647000, -0.163700
  0.649000, -0.156500
  0.651000, -0.151300
  0.653000, -0.148000
  0.655000, -0.146400
  0.657000, -0.146600
  0.659000, -0.148500
  0.661000, -0.151800
  0.663000, -0.156700
  0.665000, -0.162900
  0.667000, -0.170400
  0.669000, -0.179300
  0.671000, -0.189300
  0.673000, -0.200200
  0.675000, -0.212100
  0.677000, -0.225000
  0.679000, -0.238600
  0.681000, -0.252900
  0.683000, -0.267600
  0.685000, -0.282800
  0.687000, -0.298600
  0.689000, -0.314600
  0.691000, -0.330900
  0.693000, -0.347400
  0.695000, -0.364000
  0.697000, -0.380700
  0.699000, -0.397300
  0.701000, -0.413700
  0.703000, -0.430000
  0.705000, -0.446100
  0.707000, -0.461900
  0.709000, -0.477400
  0.711000, -0.492600
  0.713000, -0.507400
  0.715000, -0.521700
  0.717000, -0.535700
  0.719000, -0.549000
  0.721000, -0.561900
  0.723000, -0.574100
  0.725000, -0.585700
  0.727000, -0.596700
  0.729000, -0.607000
  0.731000, -0.616700
  0.733000, -0.625800
  0.735000, -0.634200
  0.737000, -0.642000
  0.739000, -0.649100
  0.741000, -0.655600
  0.743000, -0.661500
  0.745000, -0.666600
  0.747000, -0.671100
  0.749000, -0.675000
  0.751000, -0.678200
  0.753000, -0.680800
  0.755000, -0.682800
  0.757000, -0.684100
  0.759000, -0.684900
  0.761000, -0.685100
  0.763000, -0.684700
  0.765000, -0.683800
  0.767000, -0.682400
  0.769000, -0.680700
  0.771000, -0.678300
  0.773000, -0.675500
  0.775000, -0.672200
  0.777000, -0.668500
  0.779000, -0.664400
  0.781000, -0.659400
  0.783000, -0.654100
  0.785000, -0.648400
  0.787000, -0.642400
  0.789000, -0.635900
  0.791000, -0.628900
  0.793000, -0.621600
  0.795000, -0.614100
  0.797000, -0.606100
  0.799000, -0.597700
  0.801000, -0.589200
  0.803000, -0.580200
  0.805000, -0.571000
  0.807000, -0.561400
  0.809000, -0.551700
  0.811000, -0.541700
  0.813000, -0.531200
  0.815000, -0.520400
  0.817000, -0.509400
  0.819000, -0.498300
  0.821000, -0.486900
  0.823000, -0.475200
  0.825000, -0.463400
  0.827000, -0.451400
  0.829000, -0.439100
  0.831000, -0.426800
  0.833000, -0.414300
  0.835000, -0.401700
  0.837000, -0.389000
  0.839000, -0.376200
  0.841000, -0.363400
  0.843000, -0.350500
  0.845000, -0.337400
  0.847000, -0.324300
  0.849000, -0.311300
  0.851000, -0.298200
  0.853000, -0.285100
  0.855000, -0.272000
  0.857000, -0.258900
  0.859000, -0.245800
  0.861000, -0.232700
  0.863000, -0.219700
  0.865000, -0.206700
  0.867000, -0.193900
  0.869000, -0.181400
  0.871000, -0.168800
  0.873000, -0.156400
  0.875000, -0.144300
  0.877000, -0.132300
  0.879000, -0.120300
  0.881000, -0.108400
  0.883000, -0.096900
  0.885000, -0.085600
  0.887000, -0.074400
  0.889000, -0.063300
  0.891000, -0.052500
  0.893000, -0.041800
  0.895000, -0.031400
  0.897000, -0.021300
  0.899000, -0.011500
  0.901000, -0.001900
  0.903000,  0.007400
  0.905000,  0.016400
  0.907000,  0.025200
  0.909000,  0.033800
  0.911000,  0.042200
  0.913000,  0.050100
  0.915000,  0.057800
  0.917000,  0.065200
  0.919000,  0.072300
  0.921000,  0.078900
  0.923000,  0.085300
  0.925000,  0.091400
  0.927000,  0.097300
  0.929000,  0.102700
  0.931000,  0.107900
  0.933000,  0.112800
  0.935000,  0.117400
  0.937000,  0.121500
  0.939000,  0.125300
  0.941000,  0.128800
  0.943000,  0.131900
  0.945000,  0.134600
  0.947000,  0.137100
  0.949000,  0.139100
  0.951000,  0.140800
  0.953000,  0.142300
  0.955000,  0.143300
  0.957000,  0.143900
  0.959000,  0.144200
  0.961000,  0.144200
  0.963000,  0.143800
  0.965000,  0.143100
  0.967000,  0.142000
  0.969000,  0.140600
  0.971000,  0.138900
  0.973000,  0.136900
  0.975000,  0.134600
  0.977000,  0.131900
  0.979000,  0.128900
  0.981000,  0.125700
  0.983000,  0.122200
  0.985000,  0.118400
  0.987000,  0.114300
  0.989000,  0.110100
  0.991000,  0.105600
  0.993000,  0.100800
  0.995000,  0.095800
  0.997000,  0.090700
  0.999000,  0.085400
  1.001000,  0.080000
  1.003000,  0.074500
  1.005000,  0.068700
  1.007000,  0.062900
  1.009000,  0.057000
  1.011000,  0.050900
  1.013000,  0.044800
  1.015000,  0.038800
  1.017000,  0.032600
  1.019000,  0.026300
  1.021000,  0.020200
  1.023000,  0.014000
  1.025000,  0.007900
  1.027000,  0.001800
  1.029000, -0.004300
  1.031000, -0.010500
  1.033000, -0.016600
  1.035000, -0.022700
  1.037000, -0.028600
  1.039000, -0.034500
  1.041000, -0.040200
  1.043000, -0.045800
  1.045000, -0.051300
  1.047000, -0.056800
  1.049000, -0.062100
  1.051000, -0.067400
  1.053000, -0.072500
  1.055000, -0.077500
  1.057000, -0.082400
  1.059000, -0.087100
  1.061000, -0.091800
  1.063000, -0.096300
  1.065000, -0.100600
  1.067000, -0.104900
  1.069000, -0.109000
  1.071000, -0.112900
  1.073000, -0.116800
  1.075000, -0.120500
  1.077000, -0.124000
  1.079000, -0.127400
  1.081000, -0.130700
  1.083000, -0.133700
  1.085000, -0.136500
  1.087000, -0.139300
  1.089000, -0.142000
  1.091000, -0.144500
  1.093000, -0.146900
  1.095000, -0.149100
  1.097000, -0.151000
  1.099000, -0.152900
  1.101000, -0.154500
  1.103000, -0.156000
  1.105000, -0.157400
  1.107000, -0.158500
  1.109000, -0.159400
  1.111000, -0.160300
  1.113000, -0.160900
  1.115000, -0.161500
  1.117000, -0.161900
  1.119000, -0.162100
  1.121000, -0.162200
  1.123000, -0.162000
  1.125000, -0.161800
  1.127000, -0.161400
  1.129000, -0.160800
  1.131000, -0.160100
  1.133000, -0.159400
  1.135000, -0.158400
  1.137000, -0.157200
  1.139000, -0.155900
  1.141000, -0.154500
  1.143000, -0.152900
  1.145000, -0.151000
  1.147000, -0.149100
  1.149000, -0.147100
  1.151000, -0.145000
  1.153000, -0.142700
  1.155000, -0.140300
  1.157000, -0.137900
  1.159000, -0.135200
  1.161000, -0.132500
  1.163000, -0.129700
  1.165000, -0.126900
  1.167000, -0.123900
  1.169000, -0.120800
  1.171000, -0.117600
  1.173000, -0.114300
  1.175000, -0.110800
  1.177000, -0.107400
  1.179000, -0.103700
  1.181000, -0.099900
  1.183000, -0.096100
  1.185000, -0.092400
  1.187000, -0.088600
  1.189000, -0.084600
  1.191000, -0.080700
  1.193000, -0.076700
  1.195000, -0.072600
  1.197000, -0.068600
  1.199000, -0.064600
  1.201000, -0.060600
  1.203000, -0.056600
  1.205000, -0.052700
  1.207000, -0.048700
  1.209000, -0.044700
  1.211000, -0.040800
  1.213000, -0.037000
  1.215000, -0.033200
  1.217000, -0.029500
  1.219000, -0.025700
  1.221000, -0.022100
  1.223000, -0.018600
  1.225000, -0.015300
  1.227000, -0.012000
  1.229000, -0.008900
  1.231000, -0.006000
  1.233000, -0.003200
  1.235000, -0.000500
  1.237000,  0.002100
  1.239000,  0.004500
  1.241000,  0.006800
  1.243000,  0.009000
  1.245000,  0.011000
  1.247000,  0.012900
  1.249000,  0.014500
  1.251000,  0.016100
  1.253000,  0.017500
  1.255000,  0.018700
  1.257000,  0.019700
  1.259000,  0.020500
  1.261000,  0.021100
  1.263000,  0.021500
  1.265000,  0.021700
  1.267000,  0.021800
  1.269000,  0.021800
  1.271000,  0.021600
  1.273000,  0.021300
  1.275000,  0.020800
  1.277000,  0.020300
  1.279000,  0.019600
  1.281000,  0.018700
  1.283000,  0.017600
  1.285000,  0.016600
  1.287000,  0.015400
  1.289000,  0.014100
  1.291000,  0.012700
  1.293000,  0.011200
  1.295000,  0.009700
  1.297000,  0.008200
  1.299000,  0.006500
  1.301000,  0.004900
  1.303000,  0.003200
  1.305000,  0.001500
  1.307000, -0.000200
  1.309000, -0.002000
  1.311000, -0.003600
  1.313000, -0.005300
  1.315000, -0.006800
  1.317000, -0.008300
  1.319000, -0.009700
  1.321000, -0.011100
  1.323000, -0.012300
  1.325000, -0.013400
  1.327000, -0.014300
  1.329000, -0.015100
  1.331000, -0.015800
  1.333000, -0.016200
  1.335000, -0.016500
  1.337000, -0.016700
  1.339000, -0.016600
  1.341000, -0.016500
  1.343000, -0.016100
  1.345000, -0.015400
  1.347000, -0.014600
  1.349000, -0.013700
  1.351000, -0.012600
  1.353000, -0.011300
  1.355000, -0.009800
  1.357000, -0.008000
  1.359000, -0.006200
  1.361000, -0.004300
  1.363000, -0.002100
  1.365000,  0.000100
  1.367000,  0.002400
  1.369000,  0.004800
  1.371000,  0.007400
  1.373000,  0.010000
  1.375000,  0.012700
  1.377000,  0.015400
  1.379000,  0.018100
  1.381000,  0.020800
  1.383000,  0.023400
  1.385000,  0.025900
  1.387000,  0.028300
  1.389000,  0.030400
  1.391000,  0.032400
  1.393000,  0.034100
  1.395000,  0.035600
  1.397000,  0.036700
  1.399000,  0.037400
