# z (nm)   (kJ/mol)
  0.299000,  9.561500
  0.301000,  9.191900
  0.305000,  8.439700
  0.307000,  8.055400
  0.309000,  7.651300
  0.311000,  7.235800
  0.313000,  6.820100
  0.315000,  6.407200
  0.317000,  5.993600
  0.319000,  5.576000
  0.321000,  5.153400
  0.323000,  4.730200
  0.325000,  4.303800
  0.327000,  3.874300
  0.329000,  3.443100
  0.331000,  3.005100
  0.333000,  2.574600
  0.335000,  2.146300
  0.337000,  1.724000
  0.339000,  1.312300
  0.341000,  0.900500
  0.343000,  0.490100
  0.345000,  0.087500
  0.347000, -0.303500
  0.349000, -0.687900
  0.351000, -1.068200
  0.353000, -1.441200
  0.355000, -1.805800
  0.357000, -2.159300
  0.359000, -2.502200
  0.361000, -2.836500
  0.363000, -3.162000
  0.365000, -3.477000
  0.367000, -3.780700
  0.369000, -4.074800
  0.371000, -4.357900
  0.373000, -4.630000
  0.375000, -4.891200
  0.377000, -5.140300
  0.379000, -5.378600
  0.381000, -5.604500
  0.383000, -5.818300
  0.385000, -6.020700
  0.387000, -6.210000
  0.389000, -6.387700
  0.391000, -6.554800
  0.393000, -6.709400
  0.395000, -6.852100
  0.397000, -6.983200
  0.399000, -7.102400
  0.401000, -7.210600
  0.403000, -7.307900
  0.405000, -7.393500
  0.407000, -7.467800
  0.409000, -7.531700
  0.411000, -7.585800
  0.413000, -7.630100
  0.415000, -7.664300
  0.417000, -7.688700
  0.419000, -7.703600
  0.421000, -7.709400
  0.423000, -7.707900
  0.425000, -7.698900
  0.427000, -7.682300
  0.429000, -7.659800
  0.431000, -7.630300
  0.433000, -7.593600
  0.435000, -7.552000
  0.437000, -7.505100
  0.439000, -7.453200
  0.441000, -7.396200
  0.443000, -7.335400
  0.445000, -7.271700
  0.447000, -7.203500
  0.449000, -7.132500
  0.451000, -7.059100
  0.453000, -6.983300
  0.455000, -6.906400
  0.457000, -6.828500
  0.459000, -6.749400
  0.461000, -6.669500
  0.463000, -6.588700
  0.465000, -6.507500
  0.467000, -6.426100
  0.469000, -6.344800
  0.471000, -6.263400
  0.473000, -6.182100
  0.475000, -6.101300
  0.477000, -6.020800
  0.479000, -5.940600
  0.481000, -5.861200
  0.483000, -5.782200
  0.485000, -5.703900
  0.487000, -5.626100
  0.489000, -5.548700
  0.491000, -5.471900
  0.493000, -5.395600
  0.495000, -5.319700
  0.497000, -5.244200
  0.499000, -5.168800
  0.501000, -5.093700
  0.503000, -5.018900
  0.505000, -4.944200
  0.507000, -4.869100
  0.509000, -4.794100
  0.511000, -4.718800
  0.513000, -4.643100
  0.515000, -4.567000
  0.517000, -4.490600
  0.519000, -4.413800
  0.521000, -4.336600
  0.523000, -4.258800
  0.525000, -4.180300
  0.527000, -4.101200
  0.529000, -4.021600
  0.531000, -3.941200
  0.533000, -3.860200
  0.535000, -3.778500
  0.537000, -3.695900
  0.539000, -3.612500
  0.541000, -3.528600
  0.543000, -3.444200
  0.545000, -3.358800
  0.547000, -3.273000
  0.549000, -3.186800
  0.551000, -3.100200
  0.553000, -3.012900
  0.555000, -2.925200
  0.557000, -2.837600
  0.559000, -2.749900
  0.561000, -2.662400
  0.563000, -2.574800
  0.565000, -2.487300
  0.567000, -2.400000
  0.569000, -2.313000
  0.571000, -2.226500
  0.573000, -2.140400
  0.575000, -2.055100
  0.577000, -1.971200
  0.579000, -1.888300
  0.581000, -1.805900
  0.583000, -1.724600
  0.585000, -1.644800
  0.587000, -1.566400
  0.589000, -1.489400
  0.591000, -1.414100
  0.593000, -1.340800
  0.595000, -1.269400
  0.597000, -1.199800
  0.599000, -1.132200
  0.601000, -1.066500
  0.603000, -1.003300
  0.605000, -0.942700
  0.607000, -0.884400
  0.609000, -0.828400
  0.611000, -0.774900
  0.613000, -0.724000
  0.615000, -0.675500
  0.617000, -0.629600
  0.619000, -0.586300
  0.621000, -0.545700
  0.623000, -0.507900
  0.625000, -0.472700
  0.627000, -0.439900
  0.629000, -0.409800
  0.631000, -0.382600
  0.633000, -0.357900
  0.635000, -0.335900
  0.637000, -0.316600
  0.639000, -0.299700
  0.641000, -0.285300
  0.643000, -0.273300
  0.645000, -0.263800
  0.647000, -0.256700
  0.649000, -0.251900
  0.651000, -0.249200
  0.653000, -0.248700
  0.655000, -0.250200
  0.657000, -0.253400
  0.659000, -0.258500
  0.661000, -0.265500
  0.663000, -0.274200
  0.665000, -0.284300
  0.667000, -0.296000
  0.669000, -0.309100
  0.671000, -0.323700
  0.673000, -0.339700
  0.675000, -0.356800
  0.677000, -0.374900
  0.679000, -0.393600
  0.681000, -0.413300
  0.683000, -0.433700
  0.685000, -0.454800
  0.687000, -0.476800
  0.689000, -0.499100
  0.691000, -0.521700
  0.693000, -0.544700
  0.695000, -0.567900
  0.697000, -0.591100
  0.699000, -0.614600
  0.701000, -0.638000
  0.703000, -0.661000
  0.705000, -0.684000
  0.707000, -0.706800
  0.709000, -0.729100
  0.711000, -0.751100
  0.713000, -0.772700
  0.715000, -0.793900
  0.717000, -0.814600
  0.719000, -0.834900
  0.721000, -0.854400
  0.723000, -0.873400
  0.725000, -0.891500
  0.727000, -0.908700
  0.729000, -0.925300
  0.731000, -0.941100
  0.733000, -0.955900
  0.735000, -0.969800
  0.737000, -0.982500
  0.739000, -0.994600
  0.741000, -1.005900
  0.743000, -1.016200
  0.745000, -1.025600
  0.747000, -1.034000
  0.749000, -1.041600
  0.751000, -1.048200
  0.753000, -1.053900
  0.755000, -1.058500
  0.757000, -1.062300
  0.759000, -1.065100
  0.761000, -1.066900
  0.763000, -1.067600
  0.765000, -1.067600
  0.767000, -1.066800
  0.769000, -1.065200
  0.771000, -1.062600
  0.773000, -1.059200
  0.775000, -1.055100
  0.777000, -1.050100
  0.779000, -1.044300
  0.781000, -1.037800
  0.783000, -1.030600
  0.785000, -1.022600
  0.787000, -1.013800
  0.789000, -1.004500
  0.791000, -0.994400
  0.793000, -0.983800
  0.795000, -0.972600
  0.797000, -0.960800
  0.799000, -0.948600
  0.801000, -0.935700
  0.803000, -0.922400
  0.805000, -0.908700
  0.807000, -0.894500
  0.809000, -0.879900
  0.811000, -0.865000
  0.813000, -0.849700
  0.815000, -0.834100
  0.817000, -0.818200
  0.819000, -0.802100
  0.821000, -0.785700
  0.823000, -0.769100
  0.825000, -0.752200
  0.827000, -0.735200
  0.829000, -0.718000
  0.831000, -0.700700
  0.833000, -0.683600
  0.835000, -0.666400
  0.837000, -0.649100
  0.839000, -0.631800
  0.841000, -0.614400
  0.843000, -0.597000
  0.845000, -0.579500
  0.847000, -0.562100
  0.849000, -0.544800
  0.851000, -0.527600
  0.853000, -0.510500
  0.855000, -0.493600
  0.857000, -0.476900
  0.859000, -0.460400
  0.861000, -0.444100
  0.863000, -0.427800
  0.865000, -0.411700
  0.867000, -0.395700
  0.869000, -0.379800
  0.871000, -0.364200
  0.873000, -0.348800
  0.875000, -0.333600
  0.877000, -0.318600
  0.879000, -0.303900
  0.881000, -0.289400
  0.883000, -0.275100
  0.885000, -0.261100
  0.887000, -0.247400
  0.889000, -0.234000
  0.891000, -0.221000
  0.893000, -0.208100
  0.895000, -0.195600
  0.897000, -0.183400
  0.899000, -0.171500
  0.901000, -0.159900
  0.903000, -0.148500
  0.905000, -0.137500
  0.907000, -0.126800
  0.909000, -0.116500
  0.911000, -0.106500
  0.913000, -0.096800
  0.915000, -0.087600
  0.917000, -0.078800
  0.919000, -0.070300
  0.921000, -0.062200
  0.923000, -0.054600
  0.925000, -0.047400
  0.927000, -0.040600
  0.929000, -0.034100
  0.931000, -0.028000
  0.933000, -0.022500
  0.935000, -0.017400
  0.937000, -0.012800
  0.939000, -0.008500
  0.941000, -0.004600
  0.943000, -0.001200
  0.945000,  0.001800
  0.947000,  0.004400
  0.949000,  0.006500
  0.951000,  0.008100
  0.953000,  0.009400
  0.955000,  0.010300
  0.957000,  0.010700
  0.959000,  0.010700
  0.961000,  0.010300
  0.963000,  0.009600
  0.965000,  0.008500
  0.967000,  0.007100
  0.969000,  0.005400
  0.971000,  0.003300
  0.973000,  0.000900
  0.975000, -0.001700
  0.977000, -0.004700
  0.979000, -0.007900
  0.981000, -0.011400
  0.983000, -0.015200
  0.985000, -0.019100
  0.987000, -0.023200
  0.989000, -0.027500
  0.991000, -0.031900
  0.993000, -0.036300
  0.995000, -0.040800
  0.997000, -0.045400
  0.999000, -0.050200
  1.001000, -0.054900
  1.003000, -0.059700
  1.005000, -0.064600
  1.007000, -0.069400
  1.009000, -0.074200
  1.011000, -0.078900
  1.013000, -0.083700
  1.015000, -0.088400
  1.017000, -0.093000
  1.019000, -0.097500
  1.021000, -0.102000
  1.023000, -0.106300
  1.025000, -0.110600
  1.027000, -0.114700
  1.029000, -0.118600
  1.031000, -0.122400
  1.033000, -0.126100
  1.035000, -0.129800
  1.037000, -0.133300
  1.039000, -0.136700
  1.041000, -0.140000
  1.043000, -0.143000
  1.045000, -0.145800
  1.047000, -0.148500
  1.049000, -0.151000
  1.051000, -0.153400
  1.053000, -0.155700
  1.055000, -0.157900
  1.057000, -0.159900
  1.059000, -0.161700
  1.061000, -0.163500
  1.063000, -0.165000
  1.065000, -0.166500
  1.067000, -0.167800
  1.069000, -0.169000
  1.071000, -0.170100
  1.073000, -0.171100
  1.075000, -0.172000
  1.077000, -0.172900
  1.079000, -0.173600
  1.081000, -0.174100
  1.083000, -0.174400
  1.085000, -0.174700
  1.087000, -0.174900
  1.089000, -0.175100
  1.091000, -0.175200
  1.093000, -0.175300
  1.095000, -0.175300
  1.097000, -0.175200
  1.099000, -0.175000
  1.101000, -0.174700
  1.103000, -0.174300
  1.105000, -0.173900
  1.107000, -0.173500
  1.109000, -0.173000
  1.111000, -0.172400
  1.113000, -0.171700
  1.115000, -0.171000
  1.117000, -0.170400
  1.119000, -0.169500
  1.121000, -0.168500
  1.123000, -0.167400
  1.125000, -0.166300
  1.127000, -0.165100
  1.129000, -0.163700
  1.131000, -0.162200
  1.133000, -0.160700
  1.135000, -0.159100
  1.137000, -0.157300
  1.139000, -0.155500
  1.141000, -0.153700
  1.143000, -0.151600
  1.145000, -0.149500
  1.147000, -0.147200
  1.149000, -0.144800
  1.151000, -0.142300
  1.153000, -0.139700
  1.155000, -0.137100
  1.157000, -0.134300
  1.159000, -0.131500
  1.161000, -0.128500
  1.163000, -0.125300
  1.165000, -0.122100
  1.167000, -0.118800
  1.169000, -0.115400
  1.171000, -0.112000
  1.173000, -0.108500
  1.175000, -0.104900
  1.177000, -0.101200
  1.179000, -0.097400
  1.181000, -0.093700
  1.183000, -0.090000
  1.185000, -0.086100
  1.187000, -0.082200
  1.189000, -0.078400
  1.191000, -0.074500
  1.193000, -0.070500
  1.195000, -0.066700
  1.197000, -0.062900
  1.199000, -0.059100
  1.201000, -0.055300
  1.203000, -0.051600
  1.205000, -0.048100
  1.207000, -0.044500
  1.209000, -0.041100
  1.211000, -0.037900
  1.213000, -0.034800
  1.215000, -0.031700
  1.217000, -0.028900
  1.219000, -0.026200
  1.221000, -0.023600
  1.223000, -0.021200
  1.225000, -0.019000
  1.227000, -0.016900
  1.229000, -0.015000
  1.231000, -0.013200
  1.233000, -0.011600
  1.235000, -0.010300
  1.237000, -0.009000
  1.239000, -0.007900
  1.241000, -0.006900
  1.243000, -0.006200
  1.245000, -0.005600
  1.247000, -0.005100
  1.249000, -0.004800
  1.251000, -0.004600
  1.253000, -0.004600
  1.255000, -0.004800
  1.257000, -0.005000
  1.259000, -0.005400
  1.261000, -0.005900
  1.263000, -0.006500
  1.265000, -0.007200
  1.267000, -0.007900
  1.269000, -0.008800
  1.271000, -0.009800
  1.273000, -0.010800
  1.275000, -0.011800
  1.277000, -0.012800
  1.279000, -0.013900
  1.281000, -0.015000
  1.283000, -0.016000
  1.285000, -0.016900
  1.287000, -0.017800
  1.289000, -0.018700
  1.291000, -0.019500
  1.293000, -0.020300
  1.295000, -0.021100
  1.297000, -0.021700
  1.299000, -0.022300
  1.301000, -0.022700
  1.303000, -0.023100
  1.305000, -0.023400
  1.307000, -0.023500
  1.309000, -0.023500
  1.311000, -0.023400
  1.313000, -0.023100
  1.315000, -0.022600
  1.317000, -0.022000
  1.319000, -0.021200
  1.321000, -0.020300
  1.323000, -0.019200
  1.325000, -0.017900
  1.327000, -0.016500
  1.329000, -0.014900
  1.331000, -0.013100
  1.333000, -0.011100
  1.335000, -0.009000
  1.337000, -0.006700
  1.339000, -0.004300
  1.341000, -0.001600
  1.343000,  0.001200
  1.345000,  0.004000
  1.347000,  0.006900
  1.349000,  0.010000
  1.351000,  0.013100
  1.353000,  0.016300
  1.355000,  0.019700
  1.357000,  0.023200
  1.359000,  0.026800
  1.361000,  0.030300
  1.363000,  0.033900
  1.365000,  0.037800
  1.367000,  0.041500
  1.369000,  0.044900
  1.371000,  0.048400
  1.373000,  0.051900
  1.375000,  0.055300
  1.377000,  0.058500
  1.379000,  0.061500
  1.381000,  0.064400
  1.383000,  0.067100
  1.385000,  0.069600
  1.387000,  0.071900
  1.389000,  0.073700
  1.391000,  0.075200
  1.393000,  0.076300
  1.395000,  0.077300
  1.397000,  0.077700
  1.399000,  0.077500
