# z (nm)   (kJ/mol)
  0.3110   10.86580
  0.3130   10.59920
  0.3150   10.27000
  0.3170    9.91590
  0.3190    9.56970
  0.3210    9.22940
  0.3230    8.88520
  0.3250    8.52420
  0.3270    8.16130
  0.3290    7.80780
  0.3310    7.45710
  0.3330    7.10480
  0.3350    6.75560
  0.3370    6.40200
  0.3390    6.04620
  0.3410    5.69860
  0.3430    5.35280
  0.3450    5.01060
  0.3470    4.67790
  0.3490    4.34710
  0.3510    4.01670
  0.3530    3.69350
  0.3550    3.37540
  0.3570    3.06330
  0.3590    2.75620
  0.3610    2.45260
  0.3630    2.15540
  0.3650    1.86580
  0.3670    1.58350
  0.3690    1.30800
  0.3710    1.04030
  0.3730    0.78090
  0.3750    0.52790
  0.3770    0.28130
  0.3790    0.04260
  0.3810   -0.18880
  0.3830   -0.41330
  0.3850   -0.63130
  0.3870   -0.84290
  0.3890   -1.04720
  0.3910   -1.24510
  0.3930   -1.43550
  0.3950   -1.61820
  0.3970   -1.79460
  0.3990   -1.96330
  0.4010   -2.12550
  0.4030   -2.28180
  0.4050   -2.43200
  0.4070   -2.57510
  0.4090   -2.71200
  0.4110   -2.84370
  0.4130   -2.96940
  0.4150   -3.08930
  0.4170   -3.20410
  0.4190   -3.31360
  0.4210   -3.41790
  0.4230   -3.51680
  0.4250   -3.61060
  0.4270   -3.70000
  0.4290   -3.78510
  0.4310   -3.86540
  0.4330   -3.94120
  0.4350   -4.01290
  0.4370   -4.08050
  0.4390   -4.14370
  0.4410   -4.20330
  0.4430   -4.25970
  0.4450   -4.31300
  0.4470   -4.36270
  0.4490   -4.40920
  0.4510   -4.45290
  0.4530   -4.49310
  0.4550   -4.53010
  0.4570   -4.56400
  0.4590   -4.59560
  0.4610   -4.62480
  0.4630   -4.65070
  0.4650   -4.67370
  0.4670   -4.69370
  0.4690   -4.71040
  0.4710   -4.72410
  0.4730   -4.73530
  0.4750   -4.74370
  0.4770   -4.74920
  0.4790   -4.75200
  0.4810   -4.75170
  0.4830   -4.74800
  0.4850   -4.74110
  0.4870   -4.73120
  0.4890   -4.71840
  0.4910   -4.70240
  0.4930   -4.68300
  0.4950   -4.66080
  0.4970   -4.63530
  0.4990   -4.60660
  0.5010   -4.57490
  0.5030   -4.53990
  0.5050   -4.50140
  0.5070   -4.45970
  0.5090   -4.41490
  0.5110   -4.36710
  0.5130   -4.31630
  0.5150   -4.26260
  0.5170   -4.20600
  0.5190   -4.14670
  0.5210   -4.08470
  0.5230   -4.02000
  0.5250   -3.95290
  0.5270   -3.88360
  0.5290   -3.81200
  0.5310   -3.73820
  0.5330   -3.66270
  0.5350   -3.58520
  0.5370   -3.50600
  0.5390   -3.42550
  0.5410   -3.34370
  0.5430   -3.26090
  0.5450   -3.17720
  0.5470   -3.09290
  0.5490   -3.00800
  0.5510   -2.92280
  0.5530   -2.83770
  0.5550   -2.75270
  0.5570   -2.66800
  0.5590   -2.58350
  0.5610   -2.49910
  0.5630   -2.41570
  0.5650   -2.33350
  0.5670   -2.25200
  0.5690   -2.17160
  0.5710   -2.09290
  0.5730   -2.01560
  0.5750   -1.93980
  0.5770   -1.86580
  0.5790   -1.79370
  0.5810   -1.72330
  0.5830   -1.65500
  0.5850   -1.58900
  0.5870   -1.52490
  0.5890   -1.46310
  0.5910   -1.40360
  0.5930   -1.34650
  0.5950   -1.29170
  0.5970   -1.23920
  0.5990   -1.18910
  0.6010   -1.14130
  0.6030   -1.09620
  0.6050   -1.05340
  0.6070   -1.01310
  0.6090   -0.97520
  0.6110   -0.93920
  0.6130   -0.90540
  0.6150   -0.87400
  0.6170   -0.84450
  0.6190   -0.81720
  0.6210   -0.79210
  0.6230   -0.76910
  0.6250   -0.74780
  0.6270   -0.72840
  0.6290   -0.71070
  0.6310   -0.69450
  0.6330   -0.68020
  0.6350   -0.66750
  0.6370   -0.65620
  0.6390   -0.64610
  0.6410   -0.63720
  0.6430   -0.62950
  0.6450   -0.62300
  0.6470   -0.61770
  0.6490   -0.61350
  0.6510   -0.61000
  0.6530   -0.60740
  0.6550   -0.60580
  0.6570   -0.60460
  0.6590   -0.60410
  0.6610   -0.60420
  0.6630   -0.60470
  0.6650   -0.60550
  0.6670   -0.60670
  0.6690   -0.60850
  0.6710   -0.61080
  0.6730   -0.61320
  0.6750   -0.61580
  0.6770   -0.61870
  0.6790   -0.62150
  0.6810   -0.62460
  0.6830   -0.62780
  0.6850   -0.63120
  0.6870   -0.63470
  0.6890   -0.63810
  0.6910   -0.64170
  0.6930   -0.64530
  0.6950   -0.64880
  0.6970   -0.65240
  0.6990   -0.65580
  0.7010   -0.65910
  0.7030   -0.66240
  0.7050   -0.66570
  0.7070   -0.66890
  0.7090   -0.67200
  0.7110   -0.67480
  0.7130   -0.67770
  0.7150   -0.68050
  0.7170   -0.68310
  0.7190   -0.68560
  0.7210   -0.68800
  0.7230   -0.69020
  0.7250   -0.69230
  0.7270   -0.69440
  0.7290   -0.69620
  0.7310   -0.69790
  0.7330   -0.69950
  0.7350   -0.70090
  0.7370   -0.70210
  0.7390   -0.70310
  0.7410   -0.70390
  0.7430   -0.70450
  0.7450   -0.70490
  0.7470   -0.70520
  0.7490   -0.70530
  0.7510   -0.70520
  0.7530   -0.70490
  0.7550   -0.70420
  0.7570   -0.70350
  0.7590   -0.70240
  0.7610   -0.70130
  0.7630   -0.69980
  0.7650   -0.69820
  0.7670   -0.69640
  0.7690   -0.69420
  0.7710   -0.69170
  0.7730   -0.68910
  0.7750   -0.68630
  0.7770   -0.68340
  0.7790   -0.68010
  0.7810   -0.67670
  0.7830   -0.67300
  0.7850   -0.66910
  0.7870   -0.66490
  0.7890   -0.66050
  0.7910   -0.65580
  0.7930   -0.65090
  0.7950   -0.64580
  0.7970   -0.64040
  0.7990   -0.63480
  0.8010   -0.62900
  0.8030   -0.62290
  0.8050   -0.61660
  0.8070   -0.61000
  0.8090   -0.60330
  0.8110   -0.59650
  0.8130   -0.58950
  0.8150   -0.58240
  0.8170   -0.57500
  0.8190   -0.56750
  0.8210   -0.55970
  0.8230   -0.55180
  0.8250   -0.54390
  0.8270   -0.53580
  0.8290   -0.52750
  0.8310   -0.51910
  0.8330   -0.51060
  0.8350   -0.50190
  0.8370   -0.49310
  0.8390   -0.48420
  0.8410   -0.47520
  0.8430   -0.46620
  0.8450   -0.45720
  0.8470   -0.44820
  0.8490   -0.43890
  0.8510   -0.42950
  0.8530   -0.42030
  0.8550   -0.41090
  0.8570   -0.40160
  0.8590   -0.39230
  0.8610   -0.38290
  0.8630   -0.37340
  0.8650   -0.36410
  0.8670   -0.35480
  0.8690   -0.34550
  0.8710   -0.33630
  0.8730   -0.32710
  0.8750   -0.31790
  0.8770   -0.30870
  0.8790   -0.29960
  0.8810   -0.29050
  0.8830   -0.28160
  0.8850   -0.27260
  0.8870   -0.26360
  0.8890   -0.25480
  0.8910   -0.24620
  0.8930   -0.23770
  0.8950   -0.22940
  0.8970   -0.22120
  0.8990   -0.21320
  0.9010   -0.20530
  0.9030   -0.19750
  0.9050   -0.18990
  0.9070   -0.18250
  0.9090   -0.17530
  0.9110   -0.16830
  0.9130   -0.16160
  0.9150   -0.15510
  0.9170   -0.14890
  0.9190   -0.14290
  0.9210   -0.13710
  0.9230   -0.13150
  0.9250   -0.12630
  0.9270   -0.12140
  0.9290   -0.11690
  0.9310   -0.11250
  0.9330   -0.10840
  0.9350   -0.10450
  0.9370   -0.10100
  0.9390   -0.09790
  0.9410   -0.09510
  0.9430   -0.09250
  0.9450   -0.09020
  0.9470   -0.08820
  0.9490   -0.08650
  0.9510   -0.08510
  0.9530   -0.08390
  0.9550   -0.08300
  0.9570   -0.08240
  0.9590   -0.08200
  0.9610   -0.08200
  0.9630   -0.08200
  0.9650   -0.08220
  0.9670   -0.08260
  0.9690   -0.08310
  0.9710   -0.08380
  0.9730   -0.08460
  0.9750   -0.08540
  0.9770   -0.08630
  0.9790   -0.08720
  0.9810   -0.08830
  0.9830   -0.08950
  0.9850   -0.09070
  0.9870   -0.09200
  0.9890   -0.09300
  0.9910   -0.09390
  0.9930   -0.09510
  0.9950   -0.09630
  0.9970   -0.09710
  0.9990   -0.09780
  1.0010   -0.09850
  1.0030   -0.09900
  1.0050   -0.09930
  1.0070   -0.09940
  1.0090   -0.09950
  1.0110   -0.09950
  1.0130   -0.09920
  1.0150   -0.09860
  1.0170   -0.09790
  1.0190   -0.09710
  1.0210   -0.09600
  1.0230   -0.09480
  1.0250   -0.09350
  1.0270   -0.09190
  1.0290   -0.09030
  1.0310   -0.08850
  1.0330   -0.08670
  1.0350   -0.08480
  1.0370   -0.08270
  1.0390   -0.08050
  1.0410   -0.07820
  1.0430   -0.07600
  1.0450   -0.07370
  1.0470   -0.07130
  1.0490   -0.06910
  1.0510   -0.06690
  1.0530   -0.06470
  1.0550   -0.06240
  1.0570   -0.06020
  1.0590   -0.05810
  1.0610   -0.05610
  1.0630   -0.05420
  1.0650   -0.05240
  1.0670   -0.05070
  1.0690   -0.04920
  1.0710   -0.04790
  1.0730   -0.04670
  1.0750   -0.04570
  1.0770   -0.04490
  1.0790   -0.04410
  1.0810   -0.04370
  1.0830   -0.04340
  1.0850   -0.04320
  1.0870   -0.04330
  1.0890   -0.04360
  1.0910   -0.04390
  1.0930   -0.04440
  1.0950   -0.04510
  1.0970   -0.04600
  1.0990   -0.04690
  1.1010   -0.04800
  1.1030   -0.04920
  1.1050   -0.05040
  1.1070   -0.05180
  1.1090   -0.05330
  1.1110   -0.05480
  1.1130   -0.05630
  1.1150   -0.05790
  1.1170   -0.05960
  1.1190   -0.06120
  1.1210   -0.06270
  1.1230   -0.06430
  1.1250   -0.06580
  1.1270   -0.06720
  1.1290   -0.06850
  1.1310   -0.06980
  1.1330   -0.07090
  1.1350   -0.07190
  1.1370   -0.07270
  1.1390   -0.07350
  1.1410   -0.07410
  1.1430   -0.07470
  1.1450   -0.07500
  1.1470   -0.07510
  1.1490   -0.07500
  1.1510   -0.07480
  1.1530   -0.07450
  1.1550   -0.07400
  1.1570   -0.07340
  1.1590   -0.07260
  1.1610   -0.07150
  1.1630   -0.07040
  1.1650   -0.06900
  1.1670   -0.06760
  1.1690   -0.06600
  1.1710   -0.06430
  1.1730   -0.06260
  1.1750   -0.06060
  1.1770   -0.05840
  1.1790   -0.05620
  1.1810   -0.05400
  1.1830   -0.05160
  1.1850   -0.04920
  1.1870   -0.04670
  1.1890   -0.04420
  1.1910   -0.04170
  1.1930   -0.03920
  1.1950   -0.03660
  1.1970   -0.03390
  1.1990   -0.03130
  1.2010   -0.02880
  1.2030   -0.02630
  1.2050   -0.02380
  1.2070   -0.02130
  1.2090   -0.01880
  1.2110   -0.01630
  1.2130   -0.01390
  1.2150   -0.01160
  1.2170   -0.00940
  1.2190   -0.00720
  1.2210   -0.00500
  1.2230   -0.00300
  1.2250   -0.00100
  1.2270    0.00100
  1.2290    0.00300
  1.2310    0.00470
  1.2330    0.00640
  1.2350    0.00810
  1.2370    0.00950
  1.2390    0.01090
  1.2410    0.01220
  1.2430    0.01350
  1.2450    0.01470
  1.2470    0.01580
  1.2490    0.01680
  1.2510    0.01770
  1.2530    0.01850
  1.2550    0.01930
  1.2570    0.01990
  1.2590    0.02040
  1.2610    0.02080
  1.2630    0.02120
  1.2650    0.02150
  1.2670    0.02160
  1.2690    0.02180
  1.2710    0.02190
  1.2730    0.02170
  1.2750    0.02140
  1.2770    0.02100
  1.2790    0.02060
  1.2810    0.02010
  1.2830    0.01940
  1.2850    0.01860
  1.2870    0.01770
  1.2890    0.01690
  1.2910    0.01600
  1.2930    0.01480
  1.2950    0.01350
  1.2970    0.01220
  1.2990    0.01080
  1.3010    0.00950
  1.3030    0.00820
  1.3050    0.00680
  1.3070    0.00530
  1.3090    0.00370
  1.3110    0.00220
  1.3130    0.00060
  1.3150   -0.00110
  1.3170   -0.00270
  1.3190   -0.00420
  1.3210   -0.00570
  1.3230   -0.00730
  1.3250   -0.00880
  1.3270   -0.01030
  1.3290   -0.01180
  1.3310   -0.01310
  1.3330   -0.01440
  1.3350   -0.01570
  1.3370   -0.01670
  1.3390   -0.01760
  1.3410   -0.01840
  1.3430   -0.01910
  1.3450   -0.01980
  1.3470   -0.02030
  1.3490   -0.02070
  1.3510   -0.02080
  1.3530   -0.02080
  1.3550   -0.02050
  1.3570   -0.02020
  1.3590   -0.01950
  1.3610   -0.01860
  1.3630   -0.01780
  1.3650   -0.01700
  1.3670   -0.01580
  1.3690   -0.01450
  1.3710   -0.01310
  1.3730   -0.01160
  1.3750   -0.00990
  1.3770   -0.00800
  1.3790   -0.00610
  1.3810   -0.00410
  1.3830   -0.00200
  1.3850    0.00010
  1.3870    0.00210
  1.3890    0.00430
  1.3910    0.00620
  1.3930    0.00800
  1.3950    0.00970
  1.3970    0.01120
  1.3990    0.01250
