# z (nm)   (kJ/mol)
  0.2830    9.13080
  0.2870    8.76060
  0.2890    8.38210
  0.2910    7.98280
  0.2930    7.58640
  0.2950    7.18690
  0.2970    6.76920
  0.2990    6.35100
  0.3010    5.93950
  0.3030    5.52890
  0.3050    5.10890
  0.3070    4.68520
  0.3090    4.26780
  0.3110    3.84730
  0.3130    3.42520
  0.3150    3.00830
  0.3170    2.59230
  0.3190    2.17880
  0.3210    1.77000
  0.3230    1.36880
  0.3250    0.97260
  0.3270    0.57860
  0.3290    0.18790
  0.3310   -0.19720
  0.3330   -0.57180
  0.3350   -0.93750
  0.3370   -1.29600
  0.3390   -1.64580
  0.3410   -1.98750
  0.3430   -2.31930
  0.3450   -2.64250
  0.3470   -2.95840
  0.3490   -3.26570
  0.3510   -3.56230
  0.3530   -3.84800
  0.3550   -4.12280
  0.3570   -4.38680
  0.3590   -4.64210
  0.3610   -4.88790
  0.3630   -5.12300
  0.3650   -5.34590
  0.3670   -5.55740
  0.3690   -5.75870
  0.3710   -5.94820
  0.3730   -6.12610
  0.3750   -6.29320
  0.3770   -6.44920
  0.3790   -6.59370
  0.3810   -6.72680
  0.3830   -6.84840
  0.3850   -6.95890
  0.3870   -7.05830
  0.3890   -7.14620
  0.3910   -7.22290
  0.3930   -7.28880
  0.3950   -7.34420
  0.3970   -7.38910
  0.3990   -7.42290
  0.4010   -7.44700
  0.4030   -7.46110
  0.4050   -7.46500
  0.4070   -7.45970
  0.4090   -7.44530
  0.4110   -7.42320
  0.4130   -7.39370
  0.4150   -7.35590
  0.4170   -7.31030
  0.4190   -7.25770
  0.4210   -7.19810
  0.4230   -7.13200
  0.4250   -7.05940
  0.4270   -6.98040
  0.4290   -6.89700
  0.4310   -6.80920
  0.4330   -6.71690
  0.4350   -6.61990
  0.4370   -6.51910
  0.4390   -6.41550
  0.4410   -6.30940
  0.4430   -6.20060
  0.4450   -6.08860
  0.4470   -5.97460
  0.4490   -5.85920
  0.4510   -5.74210
  0.4530   -5.62410
  0.4550   -5.50520
  0.4570   -5.38490
  0.4590   -5.26400
  0.4610   -5.14300
  0.4630   -5.02200
  0.4650   -4.90100
  0.4670   -4.78060
  0.4690   -4.66050
  0.4710   -4.54070
  0.4730   -4.42140
  0.4750   -4.30280
  0.4770   -4.18500
  0.4790   -4.06810
  0.4810   -3.95230
  0.4830   -3.83750
  0.4850   -3.72380
  0.4870   -3.61130
  0.4890   -3.50010
  0.4910   -3.39040
  0.4930   -3.28230
  0.4950   -3.17570
  0.4970   -3.07050
  0.4990   -2.96670
  0.5010   -2.86460
  0.5030   -2.76430
  0.5050   -2.66560
  0.5070   -2.56850
  0.5090   -2.47290
  0.5110   -2.37910
  0.5130   -2.28720
  0.5150   -2.19710
  0.5170   -2.10850
  0.5190   -2.02180
  0.5210   -1.93700
  0.5230   -1.85410
  0.5250   -1.77300
  0.5270   -1.69380
  0.5290   -1.61640
  0.5310   -1.54090
  0.5330   -1.46740
  0.5350   -1.39600
  0.5370   -1.32640
  0.5390   -1.25870
  0.5410   -1.19300
  0.5430   -1.12910
  0.5450   -1.06730
  0.5470   -1.00750
  0.5490   -0.94990
  0.5510   -0.89420
  0.5530   -0.84050
  0.5550   -0.78890
  0.5570   -0.73940
  0.5590   -0.69180
  0.5610   -0.64630
  0.5630   -0.60280
  0.5650   -0.56150
  0.5670   -0.52200
  0.5690   -0.48440
  0.5710   -0.44890
  0.5730   -0.41550
  0.5750   -0.38400
  0.5770   -0.35460
  0.5790   -0.32710
  0.5810   -0.30170
  0.5830   -0.27810
  0.5850   -0.25630
  0.5870   -0.23660
  0.5890   -0.21870
  0.5910   -0.20250
  0.5930   -0.18810
  0.5950   -0.17570
  0.5970   -0.16510
  0.5990   -0.15620
  0.6010   -0.14910
  0.6030   -0.14370
  0.6050   -0.13990
  0.6070   -0.13770
  0.6090   -0.13720
  0.6110   -0.13830
  0.6130   -0.14110
  0.6150   -0.14520
  0.6170   -0.15070
  0.6190   -0.15770
  0.6210   -0.16600
  0.6230   -0.17560
  0.6250   -0.18660
  0.6270   -0.19900
  0.6290   -0.21230
  0.6310   -0.22680
  0.6330   -0.24260
  0.6350   -0.25920
  0.6370   -0.27690
  0.6390   -0.29550
  0.6410   -0.31470
  0.6430   -0.33490
  0.6450   -0.35570
  0.6470   -0.37720
  0.6490   -0.39950
  0.6510   -0.42230
  0.6530   -0.44540
  0.6550   -0.46900
  0.6570   -0.49310
  0.6590   -0.51760
  0.6610   -0.54250
  0.6630   -0.56730
  0.6650   -0.59200
  0.6670   -0.61700
  0.6690   -0.64210
  0.6710   -0.66710
  0.6730   -0.69190
  0.6750   -0.71680
  0.6770   -0.74120
  0.6790   -0.76510
  0.6810   -0.78890
  0.6830   -0.81250
  0.6850   -0.83550
  0.6870   -0.85800
  0.6890   -0.88020
  0.6910   -0.90170
  0.6930   -0.92250
  0.6950   -0.94270
  0.6970   -0.96190
  0.6990   -0.98040
  0.7010   -0.99810
  0.7030   -1.01490
  0.7050   -1.03100
  0.7070   -1.04630
  0.7090   -1.06050
  0.7110   -1.07370
  0.7130   -1.08600
  0.7150   -1.09710
  0.7170   -1.10720
  0.7190   -1.11640
  0.7210   -1.12460
  0.7230   -1.13170
  0.7250   -1.13770
  0.7270   -1.14280
  0.7290   -1.14680
  0.7310   -1.14970
  0.7330   -1.15150
  0.7350   -1.15230
  0.7370   -1.15210
  0.7390   -1.15090
  0.7410   -1.14870
  0.7430   -1.14550
  0.7450   -1.14140
  0.7470   -1.13640
  0.7490   -1.13040
  0.7510   -1.12360
  0.7530   -1.11590
  0.7550   -1.10740
  0.7570   -1.09810
  0.7590   -1.08800
  0.7610   -1.07720
  0.7630   -1.06560
  0.7650   -1.05340
  0.7670   -1.04060
  0.7690   -1.02710
  0.7710   -1.01290
  0.7730   -0.99820
  0.7750   -0.98310
  0.7770   -0.96750
  0.7790   -0.95140
  0.7810   -0.93490
  0.7830   -0.91810
  0.7850   -0.90080
  0.7870   -0.88320
  0.7890   -0.86520
  0.7910   -0.84690
  0.7930   -0.82850
  0.7950   -0.80990
  0.7970   -0.79100
  0.7990   -0.77180
  0.8010   -0.75260
  0.8030   -0.73320
  0.8050   -0.71350
  0.8070   -0.69370
  0.8090   -0.67390
  0.8110   -0.65410
  0.8130   -0.63430
  0.8150   -0.61440
  0.8170   -0.59460
  0.8190   -0.57490
  0.8210   -0.55510
  0.8230   -0.53520
  0.8250   -0.51550
  0.8270   -0.49580
  0.8290   -0.47630
  0.8310   -0.45690
  0.8330   -0.43750
  0.8350   -0.41830
  0.8370   -0.39910
  0.8390   -0.38010
  0.8410   -0.36130
  0.8430   -0.34270
  0.8450   -0.32430
  0.8470   -0.30620
  0.8490   -0.28840
  0.8510   -0.27070
  0.8530   -0.25330
  0.8550   -0.23620
  0.8570   -0.21930
  0.8590   -0.20280
  0.8610   -0.18650
  0.8630   -0.17080
  0.8650   -0.15530
  0.8670   -0.14020
  0.8690   -0.12550
  0.8710   -0.11110
  0.8730   -0.09710
  0.8750   -0.08360
  0.8770   -0.07060
  0.8790   -0.05800
  0.8810   -0.04600
  0.8830   -0.03440
  0.8850   -0.02330
  0.8870   -0.01280
  0.8890   -0.00270
  0.8910    0.00680
  0.8930    0.01580
  0.8950    0.02420
  0.8970    0.03220
  0.8990    0.03950
  0.9010    0.04620
  0.9030    0.05250
  0.9050    0.05810
  0.9070    0.06320
  0.9090    0.06770
  0.9110    0.07170
  0.9130    0.07510
  0.9150    0.07800
  0.9170    0.08050
  0.9190    0.08250
  0.9210    0.08400
  0.9230    0.08500
  0.9250    0.08550
  0.9270    0.08560
  0.9290    0.08520
  0.9310    0.08440
  0.9330    0.08320
  0.9350    0.08160
  0.9370    0.07950
  0.9390    0.07700
  0.9410    0.07420
  0.9430    0.07120
  0.9450    0.06800
  0.9470    0.06430
  0.9490    0.06040
  0.9510    0.05640
  0.9530    0.05220
  0.9550    0.04760
  0.9570    0.04280
  0.9590    0.03780
  0.9610    0.03260
  0.9630    0.02730
  0.9650    0.02200
  0.9670    0.01660
  0.9690    0.01120
  0.9710    0.00550
  0.9730   -0.00020
  0.9750   -0.00580
  0.9770   -0.01140
  0.9790   -0.01700
  0.9810   -0.02270
  0.9830   -0.02830
  0.9850   -0.03400
  0.9870   -0.03960
  0.9890   -0.04510
  0.9910   -0.05060
  0.9930   -0.05610
  0.9950   -0.06140
  0.9970   -0.06670
  0.9990   -0.07190
  1.0010   -0.07700
  1.0030   -0.08190
  1.0050   -0.08670
  1.0070   -0.09140
  1.0090   -0.09600
  1.0110   -0.10060
  1.0130   -0.10490
  1.0150   -0.10910
  1.0170   -0.11320
  1.0190   -0.11720
  1.0210   -0.12100
  1.0230   -0.12470
  1.0250   -0.12820
  1.0270   -0.13160
  1.0290   -0.13490
  1.0310   -0.13800
  1.0330   -0.14090
  1.0350   -0.14380
  1.0370   -0.14650
  1.0390   -0.14900
  1.0410   -0.15140
  1.0430   -0.15370
  1.0450   -0.15570
  1.0470   -0.15760
  1.0490   -0.15940
  1.0510   -0.16110
  1.0530   -0.16270
  1.0550   -0.16410
  1.0570   -0.16530
  1.0590   -0.16640
  1.0610   -0.16740
  1.0630   -0.16820
  1.0650   -0.16890
  1.0670   -0.16940
  1.0690   -0.16980
  1.0710   -0.17020
  1.0730   -0.17050
  1.0750   -0.17070
  1.0770   -0.17070
  1.0790   -0.17060
  1.0810   -0.17020
  1.0830   -0.16970
  1.0850   -0.16910
  1.0870   -0.16850
  1.0890   -0.16780
  1.0910   -0.16690
  1.0930   -0.16590
  1.0950   -0.16480
  1.0970   -0.16350
  1.0990   -0.16220
  1.1010   -0.16080
  1.1030   -0.15930
  1.1050   -0.15780
  1.1070   -0.15620
  1.1090   -0.15450
  1.1110   -0.15270
  1.1130   -0.15100
  1.1150   -0.14900
  1.1170   -0.14700
  1.1190   -0.14490
  1.1210   -0.14270
  1.1230   -0.14050
  1.1250   -0.13820
  1.1270   -0.13580
  1.1290   -0.13330
  1.1310   -0.13080
  1.1330   -0.12830
  1.1350   -0.12560
  1.1370   -0.12290
  1.1390   -0.12010
  1.1410   -0.11730
  1.1430   -0.11450
  1.1450   -0.11160
  1.1470   -0.10870
  1.1490   -0.10580
  1.1510   -0.10270
  1.1530   -0.09960
  1.1550   -0.09640
  1.1570   -0.09320
  1.1590   -0.09000
  1.1610   -0.08690
  1.1630   -0.08360
  1.1650   -0.08040
  1.1670   -0.07710
  1.1690   -0.07380
  1.1710   -0.07050
  1.1730   -0.06730
  1.1750   -0.06390
  1.1770   -0.06060
  1.1790   -0.05730
  1.1810   -0.05400
  1.1830   -0.05070
  1.1850   -0.04740
  1.1870   -0.04420
  1.1890   -0.04100
  1.1910   -0.03800
  1.1930   -0.03490
  1.1950   -0.03200
  1.1970   -0.02900
  1.1990   -0.02610
  1.2010   -0.02330
  1.2030   -0.02050
  1.2050   -0.01780
  1.2070   -0.01530
  1.2090   -0.01280
  1.2110   -0.01040
  1.2130   -0.00810
  1.2150   -0.00600
  1.2170   -0.00390
  1.2190   -0.00190
  1.2210   -0.00010
  1.2230    0.00160
  1.2250    0.00320
  1.2270    0.00460
  1.2290    0.00590
  1.2310    0.00700
  1.2330    0.00800
  1.2350    0.00890
  1.2370    0.00960
  1.2390    0.01010
  1.2410    0.01050
  1.2430    0.01070
  1.2450    0.01090
  1.2470    0.01100
  1.2490    0.01100
  1.2510    0.01090
  1.2530    0.01060
  1.2550    0.01010
  1.2570    0.00960
  1.2590    0.00900
  1.2610    0.00830
  1.2630    0.00740
  1.2650    0.00640
  1.2670    0.00540
  1.2690    0.00430
  1.2710    0.00300
  1.2730    0.00160
  1.2750    0.00030
  1.2770   -0.00090
  1.2790   -0.00220
  1.2810   -0.00360
  1.2830   -0.00510
  1.2850   -0.00660
  1.2870   -0.00790
  1.2890   -0.00930
  1.2910   -0.01080
  1.2930   -0.01220
  1.2950   -0.01360
  1.2970   -0.01490
  1.2990   -0.01610
  1.3010   -0.01740
  1.3030   -0.01860
  1.3050   -0.01980
  1.3070   -0.02090
  1.3090   -0.02180
  1.3110   -0.02270
  1.3130   -0.02320
  1.3150   -0.02360
  1.3170   -0.02400
  1.3190   -0.02420
  1.3210   -0.02420
  1.3230   -0.02410
  1.3250   -0.02400
  1.3270   -0.02360
  1.3290   -0.02300
  1.3310   -0.02230
  1.3330   -0.02140
  1.3350   -0.02040
  1.3370   -0.01920
  1.3390   -0.01790
  1.3410   -0.01640
  1.3430   -0.01470
  1.3450   -0.01300
  1.3470   -0.01110
  1.3490   -0.00910
  1.3510   -0.00700
  1.3530   -0.00470
  1.3550   -0.00240
  1.3570   -0.00000
  1.3590    0.00250
  1.3610    0.00500
  1.3630    0.00760
  1.3650    0.01030
  1.3670    0.01300
  1.3690    0.01570
  1.3710    0.01830
  1.3730    0.02100
  1.3750    0.02370
  1.3770    0.02640
  1.3790    0.02910
  1.3810    0.03160
  1.3830    0.03410
  1.3850    0.03640
  1.3870    0.03840
  1.3890    0.04030
  1.3910    0.04180
  1.3930    0.04320
  1.3950    0.04410
  1.3970    0.04480
  1.3990    0.04510
