# z (nm)   (kJ/mol)
  0.3070    7.20240
  0.3110    6.28420
  0.3130    5.84840
  0.3150    5.40510
  0.3170    4.92420
  0.3190    4.44190
  0.3210    3.97740
  0.3230    3.51030
  0.3250    3.03360
  0.3270    2.56250
  0.3290    2.09540
  0.3310    1.63160
  0.3330    1.16840
  0.3350    0.71490
  0.3370    0.27190
  0.3390   -0.17320
  0.3410   -0.61450
  0.3430   -1.04300
  0.3450   -1.45990
  0.3470   -1.86960
  0.3490   -2.27120
  0.3510   -2.66150
  0.3530   -3.04170
  0.3550   -3.41210
  0.3570   -3.77250
  0.3590   -4.12030
  0.3610   -4.45460
  0.3630   -4.77640
  0.3650   -5.08560
  0.3670   -5.38260
  0.3690   -5.66630
  0.3710   -5.93690
  0.3730   -6.19280
  0.3750   -6.43520
  0.3770   -6.66510
  0.3790   -6.88010
  0.3810   -7.08160
  0.3830   -7.26960
  0.3850   -7.44340
  0.3870   -7.60390
  0.3890   -7.75110
  0.3910   -7.88560
  0.3930   -8.00680
  0.3950   -8.11420
  0.3970   -8.20900
  0.3990   -8.29120
  0.4010   -8.36110
  0.4030   -8.41920
  0.4050   -8.46580
  0.4070   -8.50150
  0.4090   -8.52620
  0.4110   -8.53960
  0.4130   -8.54330
  0.4150   -8.53810
  0.4170   -8.52420
  0.4190   -8.50090
  0.4210   -8.46890
  0.4230   -8.42950
  0.4250   -8.38300
  0.4270   -8.33050
  0.4290   -8.27260
  0.4310   -8.20940
  0.4330   -8.14070
  0.4350   -8.06780
  0.4370   -7.99130
  0.4390   -7.90990
  0.4410   -7.82560
  0.4430   -7.74000
  0.4450   -7.65190
  0.4470   -7.56210
  0.4490   -7.47080
  0.4510   -7.37840
  0.4530   -7.28620
  0.4550   -7.19390
  0.4570   -7.10160
  0.4590   -7.00980
  0.4610   -6.91850
  0.4630   -6.82780
  0.4650   -6.73780
  0.4670   -6.64920
  0.4690   -6.56150
  0.4710   -6.47520
  0.4730   -6.39040
  0.4750   -6.30700
  0.4770   -6.22530
  0.4790   -6.14500
  0.4810   -6.06640
  0.4830   -5.98970
  0.4850   -5.91450
  0.4870   -5.84060
  0.4890   -5.76820
  0.4910   -5.69700
  0.4930   -5.62710
  0.4950   -5.55860
  0.4970   -5.49120
  0.4990   -5.42500
  0.5010   -5.35960
  0.5030   -5.29480
  0.5050   -5.23070
  0.5070   -5.16710
  0.5090   -5.10400
  0.5110   -5.04110
  0.5130   -4.97830
  0.5150   -4.91580
  0.5170   -4.85330
  0.5190   -4.79090
  0.5210   -4.72810
  0.5230   -4.66510
  0.5250   -4.60170
  0.5270   -4.53770
  0.5290   -4.47320
  0.5310   -4.40800
  0.5330   -4.34210
  0.5350   -4.27550
  0.5370   -4.20800
  0.5390   -4.13960
  0.5410   -4.07030
  0.5430   -4.00020
  0.5450   -3.92940
  0.5470   -3.85760
  0.5490   -3.78480
  0.5510   -3.71110
  0.5530   -3.63640
  0.5550   -3.56090
  0.5570   -3.48480
  0.5590   -3.40810
  0.5610   -3.33050
  0.5630   -3.25200
  0.5650   -3.17240
  0.5670   -3.09230
  0.5690   -3.01160
  0.5710   -2.93070
  0.5730   -2.84920
  0.5750   -2.76750
  0.5770   -2.68560
  0.5790   -2.60360
  0.5810   -2.52170
  0.5830   -2.43980
  0.5850   -2.35770
  0.5870   -2.27550
  0.5890   -2.19420
  0.5910   -2.11380
  0.5930   -2.03370
  0.5950   -1.95440
  0.5970   -1.87590
  0.5990   -1.79810
  0.6010   -1.72130
  0.6030   -1.64590
  0.6050   -1.57150
  0.6070   -1.49860
  0.6090   -1.42780
  0.6110   -1.35820
  0.6130   -1.29030
  0.6150   -1.22450
  0.6170   -1.16040
  0.6190   -1.09840
  0.6210   -1.03850
  0.6230   -0.98070
  0.6250   -0.92530
  0.6270   -0.87170
  0.6290   -0.82060
  0.6310   -0.77200
  0.6330   -0.72590
  0.6350   -0.68240
  0.6370   -0.64120
  0.6390   -0.60260
  0.6410   -0.56690
  0.6430   -0.53350
  0.6450   -0.50250
  0.6470   -0.47420
  0.6490   -0.44850
  0.6510   -0.42520
  0.6530   -0.40430
  0.6550   -0.38590
  0.6570   -0.36980
  0.6590   -0.35610
  0.6610   -0.34480
  0.6630   -0.33570
  0.6650   -0.32860
  0.6670   -0.32370
  0.6690   -0.32090
  0.6710   -0.32000
  0.6730   -0.32120
  0.6750   -0.32420
  0.6770   -0.32880
  0.6790   -0.33490
  0.6810   -0.34250
  0.6830   -0.35170
  0.6850   -0.36240
  0.6870   -0.37440
  0.6890   -0.38730
  0.6910   -0.40150
  0.6930   -0.41650
  0.6950   -0.43230
  0.6970   -0.44910
  0.6990   -0.46630
  0.7010   -0.48410
  0.7030   -0.50260
  0.7050   -0.52140
  0.7070   -0.54070
  0.7090   -0.56030
  0.7110   -0.58000
  0.7130   -0.59980
  0.7150   -0.61960
  0.7170   -0.63950
  0.7190   -0.65930
  0.7210   -0.67880
  0.7230   -0.69810
  0.7250   -0.71710
  0.7270   -0.73600
  0.7290   -0.75450
  0.7310   -0.77260
  0.7330   -0.78990
  0.7350   -0.80680
  0.7370   -0.82350
  0.7390   -0.83970
  0.7410   -0.85510
  0.7430   -0.87000
  0.7450   -0.88440
  0.7470   -0.89820
  0.7490   -0.91140
  0.7510   -0.92370
  0.7530   -0.93530
  0.7550   -0.94620
  0.7570   -0.95640
  0.7590   -0.96610
  0.7610   -0.97500
  0.7630   -0.98330
  0.7650   -0.99090
  0.7670   -0.99770
  0.7690   -1.00370
  0.7710   -1.00890
  0.7730   -1.01370
  0.7750   -1.01770
  0.7770   -1.02090
  0.7790   -1.02370
  0.7810   -1.02540
  0.7830   -1.02640
  0.7850   -1.02710
  0.7870   -1.02710
  0.7890   -1.02650
  0.7910   -1.02520
  0.7930   -1.02340
  0.7950   -1.02090
  0.7970   -1.01760
  0.7990   -1.01360
  0.8010   -1.00880
  0.8030   -1.00370
  0.8050   -0.99780
  0.8070   -0.99120
  0.8090   -0.98420
  0.8110   -0.97650
  0.8130   -0.96800
  0.8150   -0.95890
  0.8170   -0.94960
  0.8190   -0.93980
  0.8210   -0.92910
  0.8230   -0.91780
  0.8250   -0.90610
  0.8270   -0.89370
  0.8290   -0.88070
  0.8310   -0.86730
  0.8330   -0.85350
  0.8350   -0.83920
  0.8370   -0.82430
  0.8390   -0.80890
  0.8410   -0.79290
  0.8430   -0.77650
  0.8450   -0.75980
  0.8470   -0.74270
  0.8490   -0.72520
  0.8510   -0.70740
  0.8530   -0.68940
  0.8550   -0.67100
  0.8570   -0.65240
  0.8590   -0.63350
  0.8610   -0.61420
  0.8630   -0.59470
  0.8650   -0.57500
  0.8670   -0.55520
  0.8690   -0.53520
  0.8710   -0.51500
  0.8730   -0.49510
  0.8750   -0.47520
  0.8770   -0.45530
  0.8790   -0.43540
  0.8810   -0.41580
  0.8830   -0.39610
  0.8850   -0.37670
  0.8870   -0.35740
  0.8890   -0.33850
  0.8910   -0.31970
  0.8930   -0.30120
  0.8950   -0.28300
  0.8970   -0.26510
  0.8990   -0.24750
  0.9010   -0.23030
  0.9030   -0.21340
  0.9050   -0.19700
  0.9070   -0.18090
  0.9090   -0.16530
  0.9110   -0.15020
  0.9130   -0.13550
  0.9150   -0.12140
  0.9170   -0.10780
  0.9190   -0.09460
  0.9210   -0.08190
  0.9230   -0.06980
  0.9250   -0.05820
  0.9270   -0.04710
  0.9290   -0.03660
  0.9310   -0.02670
  0.9330   -0.01740
  0.9350   -0.00850
  0.9370   -0.00020
  0.9390    0.00760
  0.9410    0.01490
  0.9430    0.02160
  0.9450    0.02790
  0.9470    0.03350
  0.9490    0.03870
  0.9510    0.04330
  0.9530    0.04760
  0.9550    0.05120
  0.9570    0.05430
  0.9590    0.05700
  0.9610    0.05930
  0.9630    0.06110
  0.9650    0.06240
  0.9670    0.06320
  0.9690    0.06370
  0.9710    0.06380
  0.9730    0.06340
  0.9750    0.06280
  0.9770    0.06160
  0.9790    0.06020
  0.9810    0.05840
  0.9830    0.05630
  0.9850    0.05390
  0.9870    0.05120
  0.9890    0.04830
  0.9910    0.04500
  0.9930    0.04160
  0.9950    0.03790
  0.9970    0.03400
  0.9990    0.02970
  1.0010    0.02530
  1.0030    0.02090
  1.0050    0.01630
  1.0070    0.01150
  1.0090    0.00650
  1.0110    0.00140
  1.0130   -0.00360
  1.0150   -0.00870
  1.0170   -0.01380
  1.0190   -0.01900
  1.0210   -0.02410
  1.0230   -0.02930
  1.0250   -0.03450
  1.0270   -0.03960
  1.0290   -0.04470
  1.0310   -0.04980
  1.0330   -0.05490
  1.0350   -0.05990
  1.0370   -0.06480
  1.0390   -0.06970
  1.0410   -0.07450
  1.0430   -0.07920
  1.0450   -0.08380
  1.0470   -0.08820
  1.0490   -0.09270
  1.0510   -0.09700
  1.0530   -0.10110
  1.0550   -0.10520
  1.0570   -0.10910
  1.0590   -0.11290
  1.0610   -0.11660
  1.0630   -0.12010
  1.0650   -0.12350
  1.0670   -0.12690
  1.0690   -0.13000
  1.0710   -0.13300
  1.0730   -0.13600
  1.0750   -0.13880
  1.0770   -0.14160
  1.0790   -0.14430
  1.0810   -0.14680
  1.0830   -0.14930
  1.0850   -0.15160
  1.0870   -0.15380
  1.0890   -0.15600
  1.0910   -0.15790
  1.0930   -0.15970
  1.0950   -0.16150
  1.0970   -0.16320
  1.0990   -0.16470
  1.1010   -0.16620
  1.1030   -0.16740
  1.1050   -0.16860
  1.1070   -0.16980
  1.1090   -0.17090
  1.1110   -0.17180
  1.1130   -0.17260
  1.1150   -0.17310
  1.1170   -0.17360
  1.1190   -0.17400
  1.1210   -0.17420
  1.1230   -0.17430
  1.1250   -0.17410
  1.1270   -0.17390
  1.1290   -0.17340
  1.1310   -0.17280
  1.1330   -0.17210
  1.1350   -0.17130
  1.1370   -0.17030
  1.1390   -0.16920
  1.1410   -0.16790
  1.1430   -0.16640
  1.1450   -0.16480
  1.1470   -0.16300
  1.1490   -0.16090
  1.1510   -0.15860
  1.1530   -0.15620
  1.1550   -0.15370
  1.1570   -0.15100
  1.1590   -0.14810
  1.1610   -0.14510
  1.1630   -0.14180
  1.1650   -0.13840
  1.1670   -0.13480
  1.1690   -0.13110
  1.1710   -0.12730
  1.1730   -0.12340
  1.1750   -0.11940
  1.1770   -0.11520
  1.1790   -0.11090
  1.1810   -0.10650
  1.1830   -0.10200
  1.1850   -0.09750
  1.1870   -0.09280
  1.1890   -0.08810
  1.1910   -0.08340
  1.1930   -0.07860
  1.1950   -0.07380
  1.1970   -0.06890
  1.1990   -0.06420
  1.2010   -0.05950
  1.2030   -0.05480
  1.2050   -0.05010
  1.2070   -0.04540
  1.2090   -0.04080
  1.2110   -0.03630
  1.2130   -0.03180
  1.2150   -0.02740
  1.2170   -0.02320
  1.2190   -0.01900
  1.2210   -0.01500
  1.2230   -0.01110
  1.2250   -0.00740
  1.2270   -0.00380
  1.2290   -0.00050
  1.2310    0.00270
  1.2330    0.00580
  1.2350    0.00870
  1.2370    0.01140
  1.2390    0.01390
  1.2410    0.01630
  1.2430    0.01850
  1.2450    0.02040
  1.2470    0.02210
  1.2490    0.02370
  1.2510    0.02520
  1.2530    0.02630
  1.2550    0.02730
  1.2570    0.02810
  1.2590    0.02860
  1.2610    0.02900
  1.2630    0.02930
  1.2650    0.02930
  1.2670    0.02920
  1.2690    0.02880
  1.2710    0.02830
  1.2730    0.02760
  1.2750    0.02670
  1.2770    0.02570
  1.2790    0.02450
  1.2810    0.02330
  1.2830    0.02180
  1.2850    0.02030
  1.2870    0.01870
  1.2890    0.01700
  1.2910    0.01510
  1.2930    0.01330
  1.2950    0.01140
  1.2970    0.00930
  1.2990    0.00730
  1.3010    0.00540
  1.3030    0.00340
  1.3050    0.00150
  1.3070   -0.00040
  1.3090   -0.00240
  1.3110   -0.00420
  1.3130   -0.00600
  1.3150   -0.00780
  1.3170   -0.00940
  1.3190   -0.01090
  1.3210   -0.01230
  1.3230   -0.01350
  1.3250   -0.01470
  1.3270   -0.01570
  1.3290   -0.01650
  1.3310   -0.01730
  1.3330   -0.01790
  1.3350   -0.01830
  1.3370   -0.01850
  1.3390   -0.01860
  1.3410   -0.01850
  1.3430   -0.01840
  1.3450   -0.01800
  1.3470   -0.01750
  1.3490   -0.01690
  1.3510   -0.01620
  1.3530   -0.01520
  1.3550   -0.01390
  1.3570   -0.01260
  1.3590   -0.01110
  1.3610   -0.00970
  1.3630   -0.00810
  1.3650   -0.00640
  1.3670   -0.00460
  1.3690   -0.00290
  1.3710   -0.00120
  1.3730    0.00060
  1.3750    0.00240
  1.3770    0.00410
  1.3790    0.00570
  1.3810    0.00730
  1.3830    0.00880
  1.3850    0.01020
  1.3870    0.01150
  1.3890    0.01270
  1.3910    0.01360
  1.3930    0.01420
  1.3950    0.01450
  1.3970    0.01450
  1.3990    0.01410
