# z (nm)   (kJ/mol)
  0.319000, 10.100200
  0.321000,  9.690300
  0.323000,  9.317900
  0.325000,  8.942400
  0.327000,  8.539500
  0.329000,  8.131800
  0.331000,  7.691300
  0.333000,  7.254900
  0.335000,  6.809200
  0.337000,  6.358000
  0.339000,  5.908100
  0.341000,  5.446800
  0.343000,  4.983300
  0.345000,  4.523700
  0.347000,  4.053500
  0.349000,  3.580700
  0.351000,  3.116800
  0.353000,  2.651000
  0.355000,  2.180700
  0.357000,  1.716300
  0.359000,  1.256300
  0.361000,  0.801200
  0.363000,  0.352200
  0.365000, -0.091400
  0.367000, -0.526100
  0.369000, -0.952600
  0.371000, -1.369600
  0.373000, -1.778800
  0.375000, -2.177700
  0.377000, -2.568300
  0.379000, -2.950900
  0.381000, -3.321300
  0.383000, -3.680400
  0.385000, -4.029600
  0.387000, -4.367300
  0.389000, -4.692900
  0.391000, -5.007700
  0.393000, -5.311400
  0.395000, -5.602400
  0.397000, -5.878000
  0.399000, -6.142300
  0.401000, -6.393400
  0.403000, -6.629100
  0.405000, -6.851100
  0.407000, -7.060400
  0.409000, -7.257600
  0.411000, -7.440500
  0.413000, -7.609400
  0.415000, -7.766200
  0.417000, -7.910500
  0.419000, -8.041200
  0.421000, -8.159100
  0.423000, -8.263800
  0.425000, -8.355700
  0.427000, -8.435200
  0.429000, -8.501900
  0.431000, -8.557200
  0.433000, -8.601100
  0.435000, -8.633800
  0.437000, -8.655800
  0.439000, -8.666900
  0.441000, -8.667300
  0.443000, -8.657000
  0.445000, -8.637200
  0.447000, -8.608400
  0.449000, -8.571000
  0.451000, -8.526300
  0.453000, -8.473500
  0.455000, -8.413600
  0.457000, -8.347700
  0.459000, -8.276000
  0.461000, -8.198600
  0.463000, -8.116000
  0.465000, -8.028000
  0.467000, -7.936100
  0.469000, -7.840700
  0.471000, -7.740800
  0.473000, -7.638000
  0.475000, -7.533100
  0.477000, -7.426300
  0.479000, -7.317100
  0.481000, -7.205500
  0.483000, -7.092800
  0.485000, -6.979100
  0.487000, -6.864500
  0.489000, -6.749000
  0.491000, -6.633200
  0.493000, -6.517600
  0.495000, -6.402100
  0.497000, -6.287000
  0.499000, -6.172000
  0.501000, -6.057100
  0.503000, -5.942700
  0.505000, -5.828900
  0.507000, -5.715500
  0.509000, -5.602900
  0.511000, -5.490900
  0.513000, -5.379600
  0.515000, -5.269000
  0.517000, -5.158900
  0.519000, -5.049200
  0.521000, -4.940000
  0.523000, -4.831400
  0.525000, -4.723500
  0.527000, -4.616100
  0.529000, -4.509300
  0.531000, -4.402800
  0.533000, -4.296600
  0.535000, -4.190900
  0.537000, -4.085400
  0.539000, -3.980000
  0.541000, -3.874700
  0.543000, -3.769500
  0.545000, -3.664500
  0.547000, -3.559500
  0.549000, -3.454700
  0.551000, -3.350000
  0.553000, -3.245400
  0.555000, -3.140700
  0.557000, -3.035900
  0.559000, -2.931300
  0.561000, -2.827000
  0.563000, -2.722500
  0.565000, -2.618300
  0.567000, -2.514600
  0.569000, -2.410900
  0.571000, -2.307300
  0.573000, -2.204200
  0.575000, -2.101600
  0.577000, -1.999500
  0.579000, -1.897900
  0.581000, -1.796900
  0.583000, -1.696500
  0.585000, -1.597100
  0.587000, -1.498500
  0.589000, -1.400700
  0.591000, -1.304200
  0.593000, -1.208700
  0.595000, -1.115000
  0.597000, -1.023600
  0.599000, -0.933900
  0.601000, -0.845800
  0.603000, -0.759100
  0.605000, -0.674200
  0.607000, -0.591500
  0.609000, -0.510800
  0.611000, -0.432200
  0.613000, -0.356200
  0.615000, -0.282900
  0.617000, -0.212000
  0.619000, -0.143800
  0.621000, -0.078600
  0.623000, -0.016100
  0.625000,  0.043500
  0.627000,  0.100300
  0.629000,  0.154100
  0.631000,  0.204700
  0.633000,  0.252300
  0.635000,  0.296300
  0.637000,  0.337000
  0.639000,  0.374500
  0.641000,  0.409000
  0.643000,  0.440200
  0.645000,  0.468100
  0.647000,  0.492700
  0.649000,  0.514100
  0.651000,  0.532300
  0.653000,  0.547400
  0.655000,  0.559200
  0.657000,  0.567900
  0.659000,  0.573700
  0.661000,  0.576400
  0.663000,  0.576200
  0.665000,  0.573300
  0.667000,  0.567700
  0.669000,  0.559800
  0.671000,  0.549100
  0.673000,  0.536000
  0.675000,  0.521000
  0.677000,  0.503800
  0.679000,  0.484300
  0.681000,  0.463100
  0.683000,  0.440100
  0.685000,  0.415500
  0.687000,  0.389400
  0.689000,  0.362000
  0.691000,  0.333400
  0.693000,  0.303400
  0.695000,  0.272500
  0.697000,  0.240900
  0.699000,  0.208600
  0.701000,  0.175500
  0.703000,  0.142000
  0.705000,  0.108000
  0.707000,  0.073900
  0.709000,  0.039600
  0.711000,  0.005200
  0.713000, -0.028700
  0.715000, -0.062400
  0.717000, -0.096100
  0.719000, -0.129500
  0.721000, -0.162300
  0.723000, -0.194400
  0.725000, -0.225900
  0.727000, -0.256500
  0.729000, -0.286400
  0.731000, -0.315500
  0.733000, -0.343400
  0.735000, -0.370400
  0.737000, -0.396600
  0.739000, -0.421700
  0.741000, -0.445600
  0.743000, -0.468400
  0.745000, -0.490000
  0.747000, -0.510400
  0.749000, -0.529600
  0.751000, -0.547600
  0.753000, -0.564400
  0.755000, -0.580000
  0.757000, -0.594400
  0.759000, -0.607500
  0.761000, -0.619400
  0.763000, -0.630100
  0.765000, -0.639600
  0.767000, -0.647800
  0.769000, -0.655000
  0.771000, -0.661000
  0.773000, -0.665900
  0.775000, -0.669700
  0.777000, -0.672400
  0.779000, -0.674000
  0.781000, -0.674600
  0.783000, -0.674300
  0.785000, -0.673000
  0.787000, -0.670800
  0.789000, -0.667700
  0.791000, -0.663800
  0.793000, -0.659000
  0.795000, -0.653400
  0.797000, -0.646900
  0.799000, -0.639900
  0.801000, -0.632100
  0.803000, -0.623600
  0.805000, -0.614500
  0.807000, -0.604900
  0.809000, -0.594600
  0.811000, -0.583800
  0.813000, -0.572500
  0.815000, -0.560700
  0.817000, -0.548400
  0.819000, -0.535600
  0.821000, -0.522300
  0.823000, -0.508700
  0.825000, -0.494900
  0.827000, -0.480700
  0.829000, -0.466300
  0.831000, -0.451500
  0.833000, -0.436400
  0.835000, -0.421000
  0.837000, -0.405300
  0.839000, -0.389500
  0.841000, -0.373500
  0.843000, -0.357300
  0.845000, -0.340800
  0.847000, -0.324400
  0.849000, -0.307800
  0.851000, -0.291000
  0.853000, -0.274200
  0.855000, -0.257200
  0.857000, -0.240300
  0.859000, -0.223100
  0.861000, -0.205800
  0.863000, -0.188500
  0.865000, -0.171200
  0.867000, -0.153900
  0.869000, -0.136500
  0.871000, -0.119400
  0.873000, -0.102400
  0.875000, -0.085400
  0.877000, -0.068500
  0.879000, -0.051600
  0.881000, -0.034700
  0.883000, -0.017900
  0.885000, -0.001100
  0.887000,  0.015400
  0.889000,  0.031700
  0.891000,  0.047800
  0.893000,  0.063800
  0.895000,  0.079600
  0.897000,  0.095100
  0.899000,  0.110200
  0.901000,  0.125100
  0.903000,  0.139600
  0.905000,  0.153800
  0.907000,  0.167700
  0.909000,  0.181100
  0.911000,  0.194200
  0.913000,  0.206900
  0.915000,  0.219300
  0.917000,  0.231300
  0.919000,  0.242700
  0.921000,  0.253600
  0.923000,  0.263900
  0.925000,  0.273800
  0.927000,  0.283300
  0.929000,  0.292100
  0.931000,  0.300200
  0.933000,  0.307900
  0.935000,  0.315000
  0.937000,  0.321400
  0.939000,  0.327100
  0.941000,  0.332200
  0.943000,  0.336800
  0.945000,  0.340900
  0.947000,  0.344100
  0.949000,  0.346700
  0.951000,  0.348700
  0.953000,  0.350000
  0.955000,  0.350800
  0.957000,  0.350800
  0.959000,  0.350200
  0.961000,  0.349100
  0.963000,  0.347400
  0.965000,  0.344900
  0.967000,  0.341900
  0.969000,  0.338300
  0.971000,  0.334200
  0.973000,  0.329400
  0.975000,  0.324300
  0.977000,  0.318600
  0.979000,  0.312600
  0.981000,  0.306100
  0.983000,  0.299200
  0.985000,  0.291800
  0.987000,  0.284100
  0.989000,  0.276100
  0.991000,  0.267800
  0.993000,  0.259200
  0.995000,  0.250300
  0.997000,  0.241000
  0.999000,  0.231700
  1.001000,  0.222200
  1.003000,  0.212600
  1.005000,  0.203000
  1.007000,  0.193300
  1.009000,  0.183500
  1.011000,  0.173700
  1.013000,  0.163800
  1.015000,  0.153900
  1.017000,  0.144000
  1.019000,  0.134200
  1.021000,  0.124500
  1.023000,  0.114800
  1.025000,  0.105300
  1.027000,  0.095800
  1.029000,  0.086500
  1.031000,  0.077300
  1.033000,  0.068300
  1.035000,  0.059600
  1.037000,  0.051000
  1.039000,  0.042500
  1.041000,  0.034100
  1.043000,  0.026000
  1.045000,  0.018100
  1.047000,  0.010500
  1.049000,  0.003200
  1.051000, -0.004000
  1.053000, -0.011100
  1.055000, -0.017900
  1.057000, -0.024600
  1.059000, -0.031000
  1.061000, -0.037200
  1.063000, -0.043000
  1.065000, -0.048700
  1.067000, -0.054100
  1.069000, -0.059400
  1.071000, -0.064500
  1.073000, -0.069300
  1.075000, -0.073900
  1.077000, -0.078200
  1.079000, -0.082400
  1.081000, -0.086400
  1.083000, -0.090100
  1.085000, -0.093700
  1.087000, -0.097000
  1.089000, -0.100000
  1.091000, -0.102800
  1.093000, -0.105500
  1.095000, -0.108000
  1.097000, -0.110200
  1.099000, -0.112100
  1.101000, -0.113600
  1.103000, -0.115000
  1.105000, -0.116100
  1.107000, -0.116900
  1.109000, -0.117500
  1.111000, -0.117700
  1.113000, -0.117800
  1.115000, -0.117500
  1.117000, -0.117000
  1.119000, -0.116100
  1.121000, -0.115100
  1.123000, -0.113700
  1.125000, -0.112000
  1.127000, -0.110200
  1.129000, -0.108000
  1.131000, -0.105500
  1.133000, -0.102900
  1.135000, -0.100000
  1.137000, -0.096800
  1.139000, -0.093400
  1.141000, -0.089800
  1.143000, -0.085900
  1.145000, -0.081900
  1.147000, -0.077800
  1.149000, -0.073400
  1.151000, -0.069000
  1.153000, -0.064300
  1.155000, -0.059500
  1.157000, -0.054600
  1.159000, -0.049600
  1.161000, -0.044700
  1.163000, -0.039900
  1.165000, -0.034900
  1.167000, -0.029700
  1.169000, -0.024600
  1.171000, -0.019600
  1.173000, -0.014900
  1.175000, -0.010200
  1.177000, -0.005600
  1.179000, -0.001000
  1.181000,  0.003300
  1.183000,  0.007400
  1.185000,  0.011300
  1.187000,  0.014900
  1.189000,  0.018400
  1.191000,  0.021700
  1.193000,  0.024700
  1.195000,  0.027500
  1.197000,  0.030200
  1.199000,  0.032600
  1.201000,  0.034800
  1.203000,  0.036500
  1.205000,  0.038100
  1.207000,  0.039400
  1.209000,  0.040500
  1.211000,  0.041300
  1.213000,  0.041900
  1.215000,  0.042200
  1.217000,  0.042300
  1.219000,  0.042100
  1.221000,  0.041700
  1.223000,  0.041200
  1.225000,  0.040600
  1.227000,  0.039700
  1.229000,  0.038600
  1.231000,  0.037500
  1.233000,  0.036300
  1.235000,  0.034900
  1.237000,  0.033300
  1.239000,  0.031700
  1.241000,  0.030100
  1.243000,  0.028400
  1.245000,  0.026700
  1.247000,  0.024900
  1.249000,  0.023100
  1.251000,  0.021300
  1.253000,  0.019600
  1.255000,  0.017800
  1.257000,  0.016100
  1.259000,  0.014400
  1.261000,  0.012800
  1.263000,  0.011300
  1.265000,  0.009800
  1.267000,  0.008400
  1.269000,  0.007000
  1.271000,  0.005700
  1.273000,  0.004500
  1.275000,  0.003300
  1.277000,  0.002200
  1.279000,  0.001200
  1.281000,  0.000300
  1.283000, -0.000600
  1.285000, -0.001600
  1.287000, -0.002400
  1.289000, -0.003200
  1.291000, -0.004000
  1.293000, -0.004800
  1.295000, -0.005500
  1.297000, -0.006100
  1.299000, -0.006800
  1.301000, -0.007400
  1.303000, -0.008000
  1.305000, -0.008700
  1.307000, -0.009400
  1.309000, -0.010100
  1.311000, -0.010800
  1.313000, -0.011500
  1.315000, -0.012100
  1.317000, -0.012800
  1.319000, -0.013600
  1.321000, -0.014400
  1.323000, -0.015100
  1.325000, -0.015800
  1.327000, -0.016600
  1.329000, -0.017400
  1.331000, -0.018100
  1.333000, -0.018900
  1.335000, -0.019600
  1.337000, -0.020300
  1.339000, -0.020900
  1.341000, -0.021500
  1.343000, -0.022200
  1.345000, -0.022800
  1.347000, -0.023400
  1.349000, -0.023900
  1.351000, -0.024400
  1.353000, -0.024800
  1.355000, -0.025200
  1.357000, -0.025400
  1.359000, -0.025800
  1.361000, -0.026100
  1.363000, -0.026400
  1.365000, -0.026600
  1.367000, -0.026700
  1.369000, -0.026600
  1.371000, -0.026600
  1.373000, -0.026700
  1.375000, -0.026600
  1.377000, -0.026500
  1.379000, -0.026300
  1.381000, -0.026100
  1.383000, -0.026100
  1.385000, -0.026200
  1.387000, -0.026400
  1.389000, -0.026700
  1.391000, -0.027000
  1.393000, -0.027600
  1.395000, -0.028500
  1.397000, -0.029600
  1.399000, -0.031000
