# z (nm)   (kJ/mol)
  0.323000, 11.296300
  0.325000, 10.941600
  0.327000, 10.578800
  0.329000, 10.211400
  0.331000,  9.832100
  0.333000,  9.435600
  0.335000,  9.051800
  0.337000,  8.682600
  0.339000,  8.302600
  0.341000,  7.901300
  0.343000,  7.488200
  0.345000,  7.080200
  0.347000,  6.670300
  0.349000,  6.254900
  0.351000,  5.839800
  0.353000,  5.422400
  0.355000,  5.004800
  0.357000,  4.593500
  0.359000,  4.183500
  0.361000,  3.773600
  0.363000,  3.368100
  0.365000,  2.967300
  0.367000,  2.571300
  0.369000,  2.183100
  0.371000,  1.798400
  0.373000,  1.418300
  0.375000,  1.045700
  0.377000,  0.681300
  0.379000,  0.323900
  0.381000, -0.026800
  0.383000, -0.368200
  0.385000, -0.699600
  0.387000, -1.021600
  0.389000, -1.333200
  0.391000, -1.637200
  0.393000, -1.933000
  0.395000, -2.216500
  0.397000, -2.488600
  0.399000, -2.750900
  0.401000, -3.002600
  0.403000, -3.244600
  0.405000, -3.476600
  0.407000, -3.697000
  0.409000, -3.906900
  0.411000, -4.106500
  0.413000, -4.294200
  0.415000, -4.470600
  0.417000, -4.636100
  0.419000, -4.791700
  0.421000, -4.937900
  0.423000, -5.073000
  0.425000, -5.197300
  0.427000, -5.311200
  0.429000, -5.414800
  0.431000, -5.508500
  0.433000, -5.592200
  0.435000, -5.666300
  0.437000, -5.730500
  0.439000, -5.785700
  0.441000, -5.832400
  0.443000, -5.869600
  0.445000, -5.897900
  0.447000, -5.918200
  0.449000, -5.931300
  0.451000, -5.936800
  0.453000, -5.935100
  0.455000, -5.927200
  0.457000, -5.913100
  0.459000, -5.892400
  0.461000, -5.865400
  0.463000, -5.833900
  0.465000, -5.796700
  0.467000, -5.754300
  0.469000, -5.709200
  0.471000, -5.660600
  0.473000, -5.608400
  0.475000, -5.553000
  0.477000, -5.494100
  0.479000, -5.432900
  0.481000, -5.369900
  0.483000, -5.305100
  0.485000, -5.238700
  0.487000, -5.170900
  0.489000, -5.102400
  0.491000, -5.032800
  0.493000, -4.962400
  0.495000, -4.891500
  0.497000, -4.820400
  0.499000, -4.749400
  0.501000, -4.678600
  0.503000, -4.607800
  0.505000, -4.537400
  0.507000, -4.467400
  0.509000, -4.397900
  0.511000, -4.329100
  0.513000, -4.260800
  0.515000, -4.193100
  0.517000, -4.125800
  0.519000, -4.059400
  0.521000, -3.993800
  0.523000, -3.928700
  0.525000, -3.864200
  0.527000, -3.800600
  0.529000, -3.737600
  0.531000, -3.675300
  0.533000, -3.613300
  0.535000, -3.551900
  0.537000, -3.490900
  0.539000, -3.429900
  0.541000, -3.369300
  0.543000, -3.309200
  0.545000, -3.249500
  0.547000, -3.190200
  0.549000, -3.131000
  0.551000, -3.071800
  0.553000, -3.012500
  0.555000, -2.953600
  0.557000, -2.894800
  0.559000, -2.835800
  0.561000, -2.776900
  0.563000, -2.718100
  0.565000, -2.659200
  0.567000, -2.600100
  0.569000, -2.540800
  0.571000, -2.481400
  0.573000, -2.422100
  0.575000, -2.362900
  0.577000, -2.303600
  0.579000, -2.244200
  0.581000, -2.184800
  0.583000, -2.125600
  0.585000, -2.066500
  0.587000, -2.007300
  0.589000, -1.947900
  0.591000, -1.888700
  0.593000, -1.829700
  0.595000, -1.771100
  0.597000, -1.712800
  0.599000, -1.654700
  0.601000, -1.597100
  0.603000, -1.539800
  0.605000, -1.483100
  0.607000, -1.427000
  0.609000, -1.371600
  0.611000, -1.316900
  0.613000, -1.262900
  0.615000, -1.209700
  0.617000, -1.157600
  0.619000, -1.106300
  0.621000, -1.056200
  0.623000, -1.007400
  0.625000, -0.960000
  0.627000, -0.913500
  0.629000, -0.868300
  0.631000, -0.824400
  0.633000, -0.782000
  0.635000, -0.741300
  0.637000, -0.702400
  0.639000, -0.665100
  0.641000, -0.629100
  0.643000, -0.595000
  0.645000, -0.562800
  0.647000, -0.532400
  0.649000, -0.504000
  0.651000, -0.477500
  0.653000, -0.452800
  0.655000, -0.429900
  0.657000, -0.409100
  0.659000, -0.390400
  0.661000, -0.373500
  0.663000, -0.358700
  0.665000, -0.346000
  0.667000, -0.335100
  0.669000, -0.325900
  0.671000, -0.318700
  0.673000, -0.313200
  0.675000, -0.309300
  0.677000, -0.307300
  0.679000, -0.307200
  0.681000, -0.308600
  0.683000, -0.311400
  0.685000, -0.315600
  0.687000, -0.321200
  0.689000, -0.328000
  0.691000, -0.336100
  0.693000, -0.345400
  0.695000, -0.355900
  0.697000, -0.367400
  0.699000, -0.379800
  0.701000, -0.393000
  0.703000, -0.406900
  0.705000, -0.421400
  0.707000, -0.436600
  0.709000, -0.452300
  0.711000, -0.468300
  0.713000, -0.484600
  0.715000, -0.501100
  0.717000, -0.517800
  0.719000, -0.534600
  0.721000, -0.551200
  0.723000, -0.567800
  0.725000, -0.584100
  0.727000, -0.600100
  0.729000, -0.615900
  0.731000, -0.631200
  0.733000, -0.646100
  0.735000, -0.660600
  0.737000, -0.674500
  0.739000, -0.687700
  0.741000, -0.700400
  0.743000, -0.712200
  0.745000, -0.723400
  0.747000, -0.733700
  0.749000, -0.743300
  0.751000, -0.752100
  0.753000, -0.760000
  0.755000, -0.767300
  0.757000, -0.773700
  0.759000, -0.779200
  0.761000, -0.783700
  0.763000, -0.787400
  0.765000, -0.790200
  0.767000, -0.792300
  0.769000, -0.793600
  0.771000, -0.794100
  0.773000, -0.793700
  0.775000, -0.792600
  0.777000, -0.790700
  0.779000, -0.787800
  0.781000, -0.784300
  0.783000, -0.780100
  0.785000, -0.775100
  0.787000, -0.769500
  0.789000, -0.763400
  0.791000, -0.756500
  0.793000, -0.749000
  0.795000, -0.741000
  0.797000, -0.732400
  0.799000, -0.723400
  0.801000, -0.714000
  0.803000, -0.704100
  0.805000, -0.693800
  0.807000, -0.683300
  0.809000, -0.672500
  0.811000, -0.661300
  0.813000, -0.649900
  0.815000, -0.638300
  0.817000, -0.626500
  0.819000, -0.614400
  0.821000, -0.602300
  0.823000, -0.590100
  0.825000, -0.577600
  0.827000, -0.565100
  0.829000, -0.552600
  0.831000, -0.540000
  0.833000, -0.527500
  0.835000, -0.514900
  0.837000, -0.502200
  0.839000, -0.489600
  0.841000, -0.477000
  0.843000, -0.464500
  0.845000, -0.452000
  0.847000, -0.439600
  0.849000, -0.427300
  0.851000, -0.415200
  0.853000, -0.403100
  0.855000, -0.391000
  0.857000, -0.379100
  0.859000, -0.367400
  0.861000, -0.355900
  0.863000, -0.344500
  0.865000, -0.333200
  0.867000, -0.322100
  0.869000, -0.311000
  0.871000, -0.300100
  0.873000, -0.289300
  0.875000, -0.278800
  0.877000, -0.268400
  0.879000, -0.258300
  0.881000, -0.248400
  0.883000, -0.238500
  0.885000, -0.228900
  0.887000, -0.219400
  0.889000, -0.210100
  0.891000, -0.200900
  0.893000, -0.192000
  0.895000, -0.183200
  0.897000, -0.174600
  0.899000, -0.166200
  0.901000, -0.158100
  0.903000, -0.150100
  0.905000, -0.142500
  0.907000, -0.135000
  0.909000, -0.127600
  0.911000, -0.120500
  0.913000, -0.113500
  0.915000, -0.106900
  0.917000, -0.100600
  0.919000, -0.094300
  0.921000, -0.088300
  0.923000, -0.082600
  0.925000, -0.077100
  0.927000, -0.071700
  0.929000, -0.066800
  0.931000, -0.062000
  0.933000, -0.057400
  0.935000, -0.052900
  0.937000, -0.048900
  0.939000, -0.045200
  0.941000, -0.041600
  0.943000, -0.038500
  0.945000, -0.035700
  0.947000, -0.033100
  0.949000, -0.030600
  0.951000, -0.028700
  0.953000, -0.027100
  0.955000, -0.025800
  0.957000, -0.024700
  0.959000, -0.023800
  0.961000, -0.023300
  0.963000, -0.023200
  0.965000, -0.023200
  0.967000, -0.023500
  0.969000, -0.023900
  0.971000, -0.024600
  0.973000, -0.025800
  0.975000, -0.027200
  0.977000, -0.028900
  0.979000, -0.030700
  0.981000, -0.032800
  0.983000, -0.035100
  0.985000, -0.037800
  0.987000, -0.040700
  0.989000, -0.043900
  0.991000, -0.047200
  0.993000, -0.050700
  0.995000, -0.054300
  0.997000, -0.058200
  0.999000, -0.062300
  1.001000, -0.066500
  1.003000, -0.071000
  1.005000, -0.075400
  1.007000, -0.080000
  1.009000, -0.084700
  1.011000, -0.089300
  1.013000, -0.094100
  1.015000, -0.098900
  1.017000, -0.103800
  1.019000, -0.108500
  1.021000, -0.113300
  1.023000, -0.118100
  1.025000, -0.122900
  1.027000, -0.127700
  1.029000, -0.132400
  1.031000, -0.137100
  1.033000, -0.141500
  1.035000, -0.145800
  1.037000, -0.149900
  1.039000, -0.154000
  1.041000, -0.158000
  1.043000, -0.161600
  1.045000, -0.165100
  1.047000, -0.168400
  1.049000, -0.171600
  1.051000, -0.174400
  1.053000, -0.177000
  1.055000, -0.179400
  1.057000, -0.181500
  1.059000, -0.183400
  1.061000, -0.185100
  1.063000, -0.186500
  1.065000, -0.187700
  1.067000, -0.188600
  1.069000, -0.189200
  1.071000, -0.189600
  1.073000, -0.189700
  1.075000, -0.189600
  1.077000, -0.189300
  1.079000, -0.188700
  1.081000, -0.187900
  1.083000, -0.186800
  1.085000, -0.185500
  1.087000, -0.183900
  1.089000, -0.182200
  1.091000, -0.180400
  1.093000, -0.178400
  1.095000, -0.176300
  1.097000, -0.174000
  1.099000, -0.171500
  1.101000, -0.168900
  1.103000, -0.166100
  1.105000, -0.163200
  1.107000, -0.160300
  1.109000, -0.157300
  1.111000, -0.154200
  1.113000, -0.151100
  1.115000, -0.147800
  1.117000, -0.144600
  1.119000, -0.141400
  1.121000, -0.138200
  1.123000, -0.134900
  1.125000, -0.131500
  1.127000, -0.128200
  1.129000, -0.124800
  1.131000, -0.121500
  1.133000, -0.118100
  1.135000, -0.114700
  1.137000, -0.111500
  1.139000, -0.108100
  1.141000, -0.104800
  1.143000, -0.101500
  1.145000, -0.098200
  1.147000, -0.095000
  1.149000, -0.091900
  1.151000, -0.088800
  1.153000, -0.085700
  1.155000, -0.082600
  1.157000, -0.079500
  1.159000, -0.076400
  1.161000, -0.073500
  1.163000, -0.070600
  1.165000, -0.067800
  1.167000, -0.064900
  1.169000, -0.062000
  1.171000, -0.059100
  1.173000, -0.056300
  1.175000, -0.053600
  1.177000, -0.050700
  1.179000, -0.048000
  1.181000, -0.045300
  1.183000, -0.042600
  1.185000, -0.040000
  1.187000, -0.037500
  1.189000, -0.035000
  1.191000, -0.032500
  1.193000, -0.030100
  1.195000, -0.027700
  1.197000, -0.025400
  1.199000, -0.023200
  1.201000, -0.021000
  1.203000, -0.018700
  1.205000, -0.016600
  1.207000, -0.014600
  1.209000, -0.012600
  1.211000, -0.010800
  1.213000, -0.008900
  1.215000, -0.007200
  1.217000, -0.005700
  1.219000, -0.004200
  1.221000, -0.002700
  1.223000, -0.001300
  1.225000,  0.000000
  1.227000,  0.001200
  1.229000,  0.002300
  1.231000,  0.003300
  1.233000,  0.004300
  1.235000,  0.005100
  1.237000,  0.005900
  1.239000,  0.006500
  1.241000,  0.007000
  1.243000,  0.007400
  1.245000,  0.007800
  1.247000,  0.008100
  1.249000,  0.008300
  1.251000,  0.008300
  1.253000,  0.008300
  1.255000,  0.008100
  1.257000,  0.007800
  1.259000,  0.007500
  1.261000,  0.007000
  1.263000,  0.006500
  1.265000,  0.006100
  1.267000,  0.005600
  1.269000,  0.004800
  1.271000,  0.004000
  1.273000,  0.003200
  1.275000,  0.002300
  1.277000,  0.001300
  1.279000,  0.000500
  1.281000, -0.000400
  1.283000, -0.001300
  1.285000, -0.002400
  1.287000, -0.003400
  1.289000, -0.004300
  1.291000, -0.005200
  1.293000, -0.006100
  1.295000, -0.007000
  1.297000, -0.007900
  1.299000, -0.008800
  1.301000, -0.009700
  1.303000, -0.010400
  1.305000, -0.011100
  1.307000, -0.011700
  1.309000, -0.012200
  1.311000, -0.012600
  1.313000, -0.013000
  1.315000, -0.013200
  1.317000, -0.013300
  1.319000, -0.013500
  1.321000, -0.013400
  1.323000, -0.013100
  1.325000, -0.012800
  1.327000, -0.012400
  1.329000, -0.011900
  1.331000, -0.011200
  1.333000, -0.010500
  1.335000, -0.009700
  1.337000, -0.008800
  1.339000, -0.007800
  1.341000, -0.006600
  1.343000, -0.005300
  1.345000, -0.003900
  1.347000, -0.002500
  1.349000, -0.001100
  1.351000,  0.000400
  1.353000,  0.001800
  1.355000,  0.003300
  1.357000,  0.004700
  1.359000,  0.006300
  1.361000,  0.007900
  1.363000,  0.009400
  1.365000,  0.010800
  1.367000,  0.012000
  1.369000,  0.013200
  1.371000,  0.014400
  1.373000,  0.015400
  1.375000,  0.016200
  1.377000,  0.017000
  1.379000,  0.017400
  1.381000,  0.017700
  1.383000,  0.017800
  1.385000,  0.017500
  1.387000,  0.017000
  1.389000,  0.016000
  1.391000,  0.014700
  1.393000,  0.012900
  1.395000,  0.010700
  1.397000,  0.007900
  1.399000,  0.004600
