# z (nm)   (kJ/mol)
  0.3230   11.29630
  0.3250   10.94160
  0.3270   10.57880
  0.3290   10.21140
  0.3310    9.83210
  0.3330    9.43560
  0.3350    9.05180
  0.3370    8.68260
  0.3390    8.30260
  0.3410    7.90130
  0.3430    7.48820
  0.3450    7.08020
  0.3470    6.67030
  0.3490    6.25490
  0.3510    5.83980
  0.3530    5.42240
  0.3550    5.00480
  0.3570    4.59350
  0.3590    4.18350
  0.3610    3.77360
  0.3630    3.36810
  0.3650    2.96730
  0.3670    2.57130
  0.3690    2.18310
  0.3710    1.79840
  0.3730    1.41830
  0.3750    1.04570
  0.3770    0.68130
  0.3790    0.32390
  0.3810   -0.02680
  0.3830   -0.36820
  0.3850   -0.69960
  0.3870   -1.02160
  0.3890   -1.33320
  0.3910   -1.63720
  0.3930   -1.93300
  0.3950   -2.21650
  0.3970   -2.48860
  0.3990   -2.75090
  0.4010   -3.00260
  0.4030   -3.24460
  0.4050   -3.47660
  0.4070   -3.69700
  0.4090   -3.90690
  0.4110   -4.10650
  0.4130   -4.29420
  0.4150   -4.47060
  0.4170   -4.63610
  0.4190   -4.79170
  0.4210   -4.93790
  0.4230   -5.07300
  0.4250   -5.19730
  0.4270   -5.31120
  0.4290   -5.41480
  0.4310   -5.50850
  0.4330   -5.59220
  0.4350   -5.66630
  0.4370   -5.73050
  0.4390   -5.78570
  0.4410   -5.83240
  0.4430   -5.86960
  0.4450   -5.89790
  0.4470   -5.91820
  0.4490   -5.93130
  0.4510   -5.93680
  0.4530   -5.93510
  0.4550   -5.92720
  0.4570   -5.91310
  0.4590   -5.89240
  0.4610   -5.86540
  0.4630   -5.83390
  0.4650   -5.79670
  0.4670   -5.75430
  0.4690   -5.70920
  0.4710   -5.66060
  0.4730   -5.60840
  0.4750   -5.55300
  0.4770   -5.49410
  0.4790   -5.43290
  0.4810   -5.36990
  0.4830   -5.30510
  0.4850   -5.23870
  0.4870   -5.17090
  0.4890   -5.10240
  0.4910   -5.03280
  0.4930   -4.96240
  0.4950   -4.89150
  0.4970   -4.82040
  0.4990   -4.74940
  0.5010   -4.67860
  0.5030   -4.60780
  0.5050   -4.53740
  0.5070   -4.46740
  0.5090   -4.39790
  0.5110   -4.32910
  0.5130   -4.26080
  0.5150   -4.19310
  0.5170   -4.12580
  0.5190   -4.05940
  0.5210   -3.99380
  0.5230   -3.92870
  0.5250   -3.86420
  0.5270   -3.80060
  0.5290   -3.73760
  0.5310   -3.67530
  0.5330   -3.61330
  0.5350   -3.55190
  0.5370   -3.49090
  0.5390   -3.42990
  0.5410   -3.36930
  0.5430   -3.30920
  0.5450   -3.24950
  0.5470   -3.19020
  0.5490   -3.13100
  0.5510   -3.07180
  0.5530   -3.01250
  0.5550   -2.95360
  0.5570   -2.89480
  0.5590   -2.83580
  0.5610   -2.77690
  0.5630   -2.71810
  0.5650   -2.65920
  0.5670   -2.60010
  0.5690   -2.54080
  0.5710   -2.48140
  0.5730   -2.42210
  0.5750   -2.36290
  0.5770   -2.30360
  0.5790   -2.24420
  0.5810   -2.18480
  0.5830   -2.12560
  0.5850   -2.06650
  0.5870   -2.00730
  0.5890   -1.94790
  0.5910   -1.88870
  0.5930   -1.82970
  0.5950   -1.77110
  0.5970   -1.71280
  0.5990   -1.65470
  0.6010   -1.59710
  0.6030   -1.53980
  0.6050   -1.48310
  0.6070   -1.42700
  0.6090   -1.37160
  0.6110   -1.31690
  0.6130   -1.26290
  0.6150   -1.20970
  0.6170   -1.15760
  0.6190   -1.10630
  0.6210   -1.05620
  0.6230   -1.00740
  0.6250   -0.96000
  0.6270   -0.91350
  0.6290   -0.86830
  0.6310   -0.82440
  0.6330   -0.78200
  0.6350   -0.74130
  0.6370   -0.70240
  0.6390   -0.66510
  0.6410   -0.62910
  0.6430   -0.59500
  0.6450   -0.56280
  0.6470   -0.53240
  0.6490   -0.50400
  0.6510   -0.47750
  0.6530   -0.45280
  0.6550   -0.42990
  0.6570   -0.40910
  0.6590   -0.39040
  0.6610   -0.37350
  0.6630   -0.35870
  0.6650   -0.34600
  0.6670   -0.33510
  0.6690   -0.32590
  0.6710   -0.31870
  0.6730   -0.31320
  0.6750   -0.30930
  0.6770   -0.30730
  0.6790   -0.30720
  0.6810   -0.30860
  0.6830   -0.31140
  0.6850   -0.31560
  0.6870   -0.32120
  0.6890   -0.32800
  0.6910   -0.33610
  0.6930   -0.34540
  0.6950   -0.35590
  0.6970   -0.36740
  0.6990   -0.37980
  0.7010   -0.39300
  0.7030   -0.40690
  0.7050   -0.42140
  0.7070   -0.43660
  0.7090   -0.45230
  0.7110   -0.46830
  0.7130   -0.48460
  0.7150   -0.50110
  0.7170   -0.51780
  0.7190   -0.53460
  0.7210   -0.55120
  0.7230   -0.56780
  0.7250   -0.58410
  0.7270   -0.60010
  0.7290   -0.61590
  0.7310   -0.63120
  0.7330   -0.64610
  0.7350   -0.66060
  0.7370   -0.67450
  0.7390   -0.68770
  0.7410   -0.70040
  0.7430   -0.71220
  0.7450   -0.72340
  0.7470   -0.73370
  0.7490   -0.74330
  0.7510   -0.75210
  0.7530   -0.76000
  0.7550   -0.76730
  0.7570   -0.77370
  0.7590   -0.77920
  0.7610   -0.78370
  0.7630   -0.78740
  0.7650   -0.79020
  0.7670   -0.79230
  0.7690   -0.79360
  0.7710   -0.79410
  0.7730   -0.79370
  0.7750   -0.79260
  0.7770   -0.79070
  0.7790   -0.78780
  0.7810   -0.78430
  0.7830   -0.78010
  0.7850   -0.77510
  0.7870   -0.76950
  0.7890   -0.76340
  0.7910   -0.75650
  0.7930   -0.74900
  0.7950   -0.74100
  0.7970   -0.73240
  0.7990   -0.72340
  0.8010   -0.71400
  0.8030   -0.70410
  0.8050   -0.69380
  0.8070   -0.68330
  0.8090   -0.67250
  0.8110   -0.66130
  0.8130   -0.64990
  0.8150   -0.63830
  0.8170   -0.62650
  0.8190   -0.61440
  0.8210   -0.60230
  0.8230   -0.59010
  0.8250   -0.57760
  0.8270   -0.56510
  0.8290   -0.55260
  0.8310   -0.54000
  0.8330   -0.52750
  0.8350   -0.51490
  0.8370   -0.50220
  0.8390   -0.48960
  0.8410   -0.47700
  0.8430   -0.46450
  0.8450   -0.45200
  0.8470   -0.43960
  0.8490   -0.42730
  0.8510   -0.41520
  0.8530   -0.40310
  0.8550   -0.39100
  0.8570   -0.37910
  0.8590   -0.36740
  0.8610   -0.35590
  0.8630   -0.34450
  0.8650   -0.33320
  0.8670   -0.32210
  0.8690   -0.31100
  0.8710   -0.30010
  0.8730   -0.28930
  0.8750   -0.27880
  0.8770   -0.26840
  0.8790   -0.25830
  0.8810   -0.24840
  0.8830   -0.23850
  0.8850   -0.22890
  0.8870   -0.21940
  0.8890   -0.21010
  0.8910   -0.20090
  0.8930   -0.19200
  0.8950   -0.18320
  0.8970   -0.17460
  0.8990   -0.16620
  0.9010   -0.15810
  0.9030   -0.15010
  0.9050   -0.14250
  0.9070   -0.13500
  0.9090   -0.12760
  0.9110   -0.12050
  0.9130   -0.11350
  0.9150   -0.10690
  0.9170   -0.10060
  0.9190   -0.09430
  0.9210   -0.08830
  0.9230   -0.08260
  0.9250   -0.07710
  0.9270   -0.07170
  0.9290   -0.06680
  0.9310   -0.06200
  0.9330   -0.05740
  0.9350   -0.05290
  0.9370   -0.04890
  0.9390   -0.04520
  0.9410   -0.04160
  0.9430   -0.03850
  0.9450   -0.03570
  0.9470   -0.03310
  0.9490   -0.03060
  0.9510   -0.02870
  0.9530   -0.02710
  0.9550   -0.02580
  0.9570   -0.02470
  0.9590   -0.02380
  0.9610   -0.02330
  0.9630   -0.02320
  0.9650   -0.02320
  0.9670   -0.02350
  0.9690   -0.02390
  0.9710   -0.02460
  0.9730   -0.02580
  0.9750   -0.02720
  0.9770   -0.02890
  0.9790   -0.03070
  0.9810   -0.03280
  0.9830   -0.03510
  0.9850   -0.03780
  0.9870   -0.04070
  0.9890   -0.04390
  0.9910   -0.04720
  0.9930   -0.05070
  0.9950   -0.05430
  0.9970   -0.05820
  0.9990   -0.06230
  1.0010   -0.06650
  1.0030   -0.07100
  1.0050   -0.07540
  1.0070   -0.08000
  1.0090   -0.08470
  1.0110   -0.08930
  1.0130   -0.09410
  1.0150   -0.09890
  1.0170   -0.10380
  1.0190   -0.10850
  1.0210   -0.11330
  1.0230   -0.11810
  1.0250   -0.12290
  1.0270   -0.12770
  1.0290   -0.13240
  1.0310   -0.13710
  1.0330   -0.14150
  1.0350   -0.14580
  1.0370   -0.14990
  1.0390   -0.15400
  1.0410   -0.15800
  1.0430   -0.16160
  1.0450   -0.16510
  1.0470   -0.16840
  1.0490   -0.17160
  1.0510   -0.17440
  1.0530   -0.17700
  1.0550   -0.17940
  1.0570   -0.18150
  1.0590   -0.18340
  1.0610   -0.18510
  1.0630   -0.18650
  1.0650   -0.18770
  1.0670   -0.18860
  1.0690   -0.18920
  1.0710   -0.18960
  1.0730   -0.18970
  1.0750   -0.18960
  1.0770   -0.18930
  1.0790   -0.18870
  1.0810   -0.18790
  1.0830   -0.18680
  1.0850   -0.18550
  1.0870   -0.18390
  1.0890   -0.18220
  1.0910   -0.18040
  1.0930   -0.17840
  1.0950   -0.17630
  1.0970   -0.17400
  1.0990   -0.17150
  1.1010   -0.16890
  1.1030   -0.16610
  1.1050   -0.16320
  1.1070   -0.16030
  1.1090   -0.15730
  1.1110   -0.15420
  1.1130   -0.15110
  1.1150   -0.14780
  1.1170   -0.14460
  1.1190   -0.14140
  1.1210   -0.13820
  1.1230   -0.13490
  1.1250   -0.13150
  1.1270   -0.12820
  1.1290   -0.12480
  1.1310   -0.12150
  1.1330   -0.11810
  1.1350   -0.11470
  1.1370   -0.11150
  1.1390   -0.10810
  1.1410   -0.10480
  1.1430   -0.10150
  1.1450   -0.09820
  1.1470   -0.09500
  1.1490   -0.09190
  1.1510   -0.08880
  1.1530   -0.08570
  1.1550   -0.08260
  1.1570   -0.07950
  1.1590   -0.07640
  1.1610   -0.07350
  1.1630   -0.07060
  1.1650   -0.06780
  1.1670   -0.06490
  1.1690   -0.06200
  1.1710   -0.05910
  1.1730   -0.05630
  1.1750   -0.05360
  1.1770   -0.05070
  1.1790   -0.04800
  1.1810   -0.04530
  1.1830   -0.04260
  1.1850   -0.04000
  1.1870   -0.03750
  1.1890   -0.03500
  1.1910   -0.03250
  1.1930   -0.03010
  1.1950   -0.02770
  1.1970   -0.02540
  1.1990   -0.02320
  1.2010   -0.02100
  1.2030   -0.01870
  1.2050   -0.01660
  1.2070   -0.01460
  1.2090   -0.01260
  1.2110   -0.01080
  1.2130   -0.00890
  1.2150   -0.00720
  1.2170   -0.00570
  1.2190   -0.00420
  1.2210   -0.00270
  1.2230   -0.00130
  1.2250    0.00000
  1.2270    0.00120
  1.2290    0.00230
  1.2310    0.00330
  1.2330    0.00430
  1.2350    0.00510
  1.2370    0.00590
  1.2390    0.00650
  1.2410    0.00700
  1.2430    0.00740
  1.2450    0.00780
  1.2470    0.00810
  1.2490    0.00830
  1.2510    0.00830
  1.2530    0.00830
  1.2550    0.00810
  1.2570    0.00780
  1.2590    0.00750
  1.2610    0.00700
  1.2630    0.00650
  1.2650    0.00610
  1.2670    0.00560
  1.2690    0.00480
  1.2710    0.00400
  1.2730    0.00320
  1.2750    0.00230
  1.2770    0.00130
  1.2790    0.00050
  1.2810   -0.00040
  1.2830   -0.00130
  1.2850   -0.00240
  1.2870   -0.00340
  1.2890   -0.00430
  1.2910   -0.00520
  1.2930   -0.00610
  1.2950   -0.00700
  1.2970   -0.00790
  1.2990   -0.00880
  1.3010   -0.00970
  1.3030   -0.01040
  1.3050   -0.01110
  1.3070   -0.01170
  1.3090   -0.01220
  1.3110   -0.01260
  1.3130   -0.01300
  1.3150   -0.01320
  1.3170   -0.01330
  1.3190   -0.01350
  1.3210   -0.01340
  1.3230   -0.01310
  1.3250   -0.01280
  1.3270   -0.01240
  1.3290   -0.01190
  1.3310   -0.01120
  1.3330   -0.01050
  1.3350   -0.00970
  1.3370   -0.00880
  1.3390   -0.00780
  1.3410   -0.00660
  1.3430   -0.00530
  1.3450   -0.00390
  1.3470   -0.00250
  1.3490   -0.00110
  1.3510    0.00040
  1.3530    0.00180
  1.3550    0.00330
  1.3570    0.00470
  1.3590    0.00630
  1.3610    0.00790
  1.3630    0.00940
  1.3650    0.01080
  1.3670    0.01200
  1.3690    0.01320
  1.3710    0.01440
  1.3730    0.01540
  1.3750    0.01620
  1.3770    0.01700
  1.3790    0.01740
  1.3810    0.01770
  1.3830    0.01780
  1.3850    0.01750
  1.3870    0.01700
  1.3890    0.01600
  1.3910    0.01470
  1.3930    0.01290
  1.3950    0.01070
  1.3970    0.00790
  1.3990    0.00460
