# z (nm)   (kJ/mol)
  0.299000,  9.772300
  0.301000,  9.439200
  0.303000,  9.101500
  0.305000,  8.713800
  0.307000,  8.327700
  0.309000,  7.913300
  0.311000,  7.500800
  0.313000,  7.082000
  0.315000,  6.638300
  0.317000,  6.208700
  0.319000,  5.791600
  0.321000,  5.365800
  0.323000,  4.934700
  0.325000,  4.493100
  0.327000,  4.051500
  0.329000,  3.613800
  0.331000,  3.177000
  0.333000,  2.741400
  0.335000,  2.302400
  0.337000,  1.864800
  0.339000,  1.433900
  0.341000,  1.010300
  0.343000,  0.586000
  0.345000,  0.162700
  0.347000, -0.251000
  0.349000, -0.656200
  0.351000, -1.055800
  0.353000, -1.447400
  0.355000, -1.832200
  0.357000, -2.208700
  0.359000, -2.576300
  0.361000, -2.934800
  0.363000, -3.282500
  0.365000, -3.622400
  0.367000, -3.952100
  0.369000, -4.268200
  0.371000, -4.574300
  0.373000, -4.870400
  0.375000, -5.155300
  0.377000, -5.429100
  0.379000, -5.692400
  0.381000, -5.944200
  0.383000, -6.184000
  0.385000, -6.411300
  0.387000, -6.626500
  0.389000, -6.830300
  0.391000, -7.022200
  0.393000, -7.202900
  0.395000, -7.371400
  0.397000, -7.527600
  0.399000, -7.672100
  0.401000, -7.805000
  0.403000, -7.926300
  0.405000, -8.036200
  0.407000, -8.134600
  0.409000, -8.221900
  0.411000, -8.298000
  0.413000, -8.363800
  0.415000, -8.419300
  0.417000, -8.464700
  0.419000, -8.500400
  0.421000, -8.526300
  0.423000, -8.542600
  0.425000, -8.549400
  0.427000, -8.547300
  0.429000, -8.537600
  0.431000, -8.521300
  0.433000, -8.497500
  0.435000, -8.466000
  0.437000, -8.428800
  0.439000, -8.386000
  0.441000, -8.336500
  0.443000, -8.280700
  0.445000, -8.220500
  0.447000, -8.156500
  0.449000, -8.088900
  0.451000, -8.017700
  0.453000, -7.943200
  0.455000, -7.865400
  0.457000, -7.784600
  0.459000, -7.701600
  0.461000, -7.616900
  0.463000, -7.530300
  0.465000, -7.442300
  0.467000, -7.353300
  0.469000, -7.263100
  0.471000, -7.171600
  0.473000, -7.079800
  0.475000, -6.988200
  0.477000, -6.896100
  0.479000, -6.803700
  0.481000, -6.711300
  0.483000, -6.619200
  0.485000, -6.527200
  0.487000, -6.435200
  0.489000, -6.343500
  0.491000, -6.252000
  0.493000, -6.161000
  0.495000, -6.070300
  0.497000, -5.979900
  0.499000, -5.890000
  0.501000, -5.800600
  0.503000, -5.711400
  0.505000, -5.622300
  0.507000, -5.533500
  0.509000, -5.445000
  0.511000, -5.356700
  0.513000, -5.268500
  0.515000, -5.180600
  0.517000, -5.092700
  0.519000, -5.005000
  0.521000, -4.917100
  0.523000, -4.829000
  0.525000, -4.740700
  0.527000, -4.652200
  0.529000, -4.563600
  0.531000, -4.474800
  0.533000, -4.385600
  0.535000, -4.296200
  0.537000, -4.206500
  0.539000, -4.116400
  0.541000, -4.025900
  0.543000, -3.935100
  0.545000, -3.844000
  0.547000, -3.752300
  0.549000, -3.660200
  0.551000, -3.567800
  0.553000, -3.475000
  0.555000, -3.381900
  0.557000, -3.288800
  0.559000, -3.195300
  0.561000, -3.101400
  0.563000, -3.007300
  0.565000, -2.913200
  0.567000, -2.819100
  0.569000, -2.725300
  0.571000, -2.631400
  0.573000, -2.537300
  0.575000, -2.443300
  0.577000, -2.349700
  0.579000, -2.256600
  0.581000, -2.164100
  0.583000, -2.072200
  0.585000, -1.980800
  0.587000, -1.890100
  0.589000, -1.800200
  0.591000, -1.711300
  0.593000, -1.623400
  0.595000, -1.536400
  0.597000, -1.450900
  0.599000, -1.367300
  0.601000, -1.284800
  0.603000, -1.203900
  0.605000, -1.125000
  0.607000, -1.047400
  0.609000, -0.971800
  0.611000, -0.898300
  0.613000, -0.826300
  0.615000, -0.756100
  0.617000, -0.688200
  0.619000, -0.622700
  0.621000, -0.560000
  0.623000, -0.499500
  0.625000, -0.441300
  0.627000, -0.385700
  0.629000, -0.332700
  0.631000, -0.282200
  0.633000, -0.234400
  0.635000, -0.189500
  0.637000, -0.147000
  0.639000, -0.107500
  0.641000, -0.070800
  0.643000, -0.036900
  0.645000, -0.005700
  0.647000,  0.022700
  0.649000,  0.048200
  0.651000,  0.071100
  0.653000,  0.091200
  0.655000,  0.108700
  0.657000,  0.123400
  0.659000,  0.135600
  0.661000,  0.145100
  0.663000,  0.151900
  0.665000,  0.156400
  0.667000,  0.158500
  0.669000,  0.158400
  0.671000,  0.156100
  0.673000,  0.151400
  0.675000,  0.144800
  0.677000,  0.136400
  0.679000,  0.126200
  0.681000,  0.114200
  0.683000,  0.100300
  0.685000,  0.084900
  0.687000,  0.068000
  0.689000,  0.049600
  0.691000,  0.030100
  0.693000,  0.009400
  0.695000, -0.012600
  0.697000, -0.035300
  0.699000, -0.058600
  0.701000, -0.082600
  0.703000, -0.107300
  0.705000, -0.132600
  0.707000, -0.158300
  0.709000, -0.184500
  0.711000, -0.211100
  0.713000, -0.237400
  0.715000, -0.263700
  0.717000, -0.289800
  0.719000, -0.315900
  0.721000, -0.341900
  0.723000, -0.367400
  0.725000, -0.392500
  0.727000, -0.417300
  0.729000, -0.441800
  0.731000, -0.465500
  0.733000, -0.488400
  0.735000, -0.510600
  0.737000, -0.531900
  0.739000, -0.552600
  0.741000, -0.572600
  0.743000, -0.591700
  0.745000, -0.609700
  0.747000, -0.626700
  0.749000, -0.642900
  0.751000, -0.658300
  0.753000, -0.672800
  0.755000, -0.686200
  0.757000, -0.698500
  0.759000, -0.709700
  0.761000, -0.720000
  0.763000, -0.729300
  0.765000, -0.737500
  0.767000, -0.744900
  0.769000, -0.751400
  0.771000, -0.756800
  0.773000, -0.761400
  0.775000, -0.765100
  0.777000, -0.768000
  0.779000, -0.769900
  0.781000, -0.771100
  0.783000, -0.771400
  0.785000, -0.771000
  0.787000, -0.769800
  0.789000, -0.767800
  0.791000, -0.765200
  0.793000, -0.762000
  0.795000, -0.758300
  0.797000, -0.753900
  0.799000, -0.749000
  0.801000, -0.743400
  0.803000, -0.737400
  0.805000, -0.730700
  0.807000, -0.723500
  0.809000, -0.716000
  0.811000, -0.708000
  0.813000, -0.699600
  0.815000, -0.690900
  0.817000, -0.681900
  0.819000, -0.672500
  0.821000, -0.662800
  0.823000, -0.652700
  0.825000, -0.642500
  0.827000, -0.631900
  0.829000, -0.621000
  0.831000, -0.610000
  0.833000, -0.598700
  0.835000, -0.587300
  0.837000, -0.575700
  0.839000, -0.563800
  0.841000, -0.551800
  0.843000, -0.539700
  0.845000, -0.527500
  0.847000, -0.515100
  0.849000, -0.502800
  0.851000, -0.490200
  0.853000, -0.477500
  0.855000, -0.464800
  0.857000, -0.452000
  0.859000, -0.438900
  0.861000, -0.425800
  0.863000, -0.412600
  0.865000, -0.399500
  0.867000, -0.386200
  0.869000, -0.372900
  0.871000, -0.359700
  0.873000, -0.346600
  0.875000, -0.333400
  0.877000, -0.320200
  0.879000, -0.307000
  0.881000, -0.294000
  0.883000, -0.281100
  0.885000, -0.268000
  0.887000, -0.255100
  0.889000, -0.242300
  0.891000, -0.229700
  0.893000, -0.217000
  0.895000, -0.204600
  0.897000, -0.192200
  0.899000, -0.180000
  0.901000, -0.168100
  0.903000, -0.156400
  0.905000, -0.144900
  0.907000, -0.133600
  0.909000, -0.122500
  0.911000, -0.111600
  0.913000, -0.100900
  0.915000, -0.090400
  0.917000, -0.080300
  0.919000, -0.070500
  0.921000, -0.061000
  0.923000, -0.051700
  0.925000, -0.042800
  0.927000, -0.034100
  0.929000, -0.025800
  0.931000, -0.017800
  0.933000, -0.010000
  0.935000, -0.002500
  0.937000,  0.004600
  0.939000,  0.011400
  0.941000,  0.017900
  0.943000,  0.024100
  0.945000,  0.029800
  0.947000,  0.035300
  0.949000,  0.040300
  0.951000,  0.045000
  0.953000,  0.049300
  0.955000,  0.053400
  0.957000,  0.057000
  0.959000,  0.060200
  0.961000,  0.063200
  0.963000,  0.065800
  0.965000,  0.068000
  0.967000,  0.069800
  0.969000,  0.071400
  0.971000,  0.072600
  0.973000,  0.073500
  0.975000,  0.074100
  0.977000,  0.074400
  0.979000,  0.074400
  0.981000,  0.074000
  0.983000,  0.073400
  0.985000,  0.072400
  0.987000,  0.071200
  0.989000,  0.069800
  0.991000,  0.068100
  0.993000,  0.066100
  0.995000,  0.063800
  0.997000,  0.061400
  0.999000,  0.058700
  1.001000,  0.055800
  1.003000,  0.052700
  1.005000,  0.049300
  1.007000,  0.045700
  1.009000,  0.042000
  1.011000,  0.038200
  1.013000,  0.034300
  1.015000,  0.030200
  1.017000,  0.026100
  1.019000,  0.021900
  1.021000,  0.017600
  1.023000,  0.013100
  1.025000,  0.008500
  1.027000,  0.004000
  1.029000, -0.000600
  1.031000, -0.005200
  1.033000, -0.009900
  1.035000, -0.014800
  1.037000, -0.019700
  1.039000, -0.024400
  1.041000, -0.029200
  1.043000, -0.033900
  1.045000, -0.038600
  1.047000, -0.043400
  1.049000, -0.048100
  1.051000, -0.052700
  1.053000, -0.057300
  1.055000, -0.061700
  1.057000, -0.066000
  1.059000, -0.070300
  1.061000, -0.074600
  1.063000, -0.078700
  1.065000, -0.082800
  1.067000, -0.086700
  1.069000, -0.090500
  1.071000, -0.094200
  1.073000, -0.097800
  1.075000, -0.101200
  1.077000, -0.104500
  1.079000, -0.107600
  1.081000, -0.110700
  1.083000, -0.113600
  1.085000, -0.116300
  1.087000, -0.118800
  1.089000, -0.121100
  1.091000, -0.123300
  1.093000, -0.125200
  1.095000, -0.127000
  1.097000, -0.128600
  1.099000, -0.130000
  1.101000, -0.131200
  1.103000, -0.132300
  1.105000, -0.133200
  1.107000, -0.133800
  1.109000, -0.134300
  1.111000, -0.134500
  1.113000, -0.134700
  1.115000, -0.134600
  1.117000, -0.134400
  1.119000, -0.134000
  1.121000, -0.133400
  1.123000, -0.132500
  1.125000, -0.131500
  1.127000, -0.130300
  1.129000, -0.129000
  1.131000, -0.127400
  1.133000, -0.125600
  1.135000, -0.123800
  1.137000, -0.121800
  1.139000, -0.119600
  1.141000, -0.117200
  1.143000, -0.114700
  1.145000, -0.112100
  1.147000, -0.109300
  1.149000, -0.106400
  1.151000, -0.103400
  1.153000, -0.100400
  1.155000, -0.097200
  1.157000, -0.093900
  1.159000, -0.090600
  1.161000, -0.087300
  1.163000, -0.083800
  1.165000, -0.080400
  1.167000, -0.076900
  1.169000, -0.073200
  1.171000, -0.069500
  1.173000, -0.065900
  1.175000, -0.062300
  1.177000, -0.058500
  1.179000, -0.054700
  1.181000, -0.051000
  1.183000, -0.047200
  1.185000, -0.043400
  1.187000, -0.039700
  1.189000, -0.035900
  1.191000, -0.032200
  1.193000, -0.028500
  1.195000, -0.024800
  1.197000, -0.021200
  1.199000, -0.017600
  1.201000, -0.014000
  1.203000, -0.010500
  1.205000, -0.007200
  1.207000, -0.003900
  1.209000, -0.000600
  1.211000,  0.002600
  1.213000,  0.005600
  1.215000,  0.008700
  1.217000,  0.011600
  1.219000,  0.014400
  1.221000,  0.017100
  1.223000,  0.019600
  1.225000,  0.022000
  1.227000,  0.024200
  1.229000,  0.026300
  1.231000,  0.028300
  1.233000,  0.030300
  1.235000,  0.032000
  1.237000,  0.033500
  1.239000,  0.035000
  1.241000,  0.036300
  1.243000,  0.037300
  1.245000,  0.038200
  1.247000,  0.038900
  1.249000,  0.039600
  1.251000,  0.040100
  1.253000,  0.040300
  1.255000,  0.040400
  1.257000,  0.040200
  1.259000,  0.040000
  1.261000,  0.039600
  1.263000,  0.038900
  1.265000,  0.038100
  1.267000,  0.037100
  1.269000,  0.035900
  1.271000,  0.034600
  1.273000,  0.033000
  1.275000,  0.031300
  1.277000,  0.029500
  1.279000,  0.027500
  1.281000,  0.025400
  1.283000,  0.023200
  1.285000,  0.021000
  1.287000,  0.018700
  1.289000,  0.016200
  1.291000,  0.013700
  1.293000,  0.011200
  1.295000,  0.008600
  1.297000,  0.005800
  1.299000,  0.003200
  1.301000,  0.000500
  1.303000, -0.002200
  1.305000, -0.004800
  1.307000, -0.007400
  1.309000, -0.010000
  1.311000, -0.012500
  1.313000, -0.015000
  1.315000, -0.017500
  1.317000, -0.019800
  1.319000, -0.022000
  1.321000, -0.024100
  1.323000, -0.026100
  1.325000, -0.027900
  1.327000, -0.029600
  1.329000, -0.031100
  1.331000, -0.032500
  1.333000, -0.033700
  1.335000, -0.034800
  1.337000, -0.035700
  1.339000, -0.036400
  1.341000, -0.036900
  1.343000, -0.037300
  1.345000, -0.037500
  1.347000, -0.037500
  1.349000, -0.037300
  1.351000, -0.036900
  1.353000, -0.036500
  1.355000, -0.035800
  1.357000, -0.034900
  1.359000, -0.034000
  1.361000, -0.032900
  1.363000, -0.031600
  1.365000, -0.030200
  1.367000, -0.028700
  1.369000, -0.027200
  1.371000, -0.025700
  1.373000, -0.023900
  1.375000, -0.022200
  1.377000, -0.020400
  1.379000, -0.018600
  1.381000, -0.016700
  1.383000, -0.015000
  1.385000, -0.013400
  1.387000, -0.011900
  1.389000, -0.010400
  1.391000, -0.009000
  1.393000, -0.008000
  1.395000, -0.007200
  1.397000, -0.006700
  1.399000, -0.006500
