# z (nm)   (kJ/mol)
  0.323000,  5.445300
  0.325000,  4.959600
  0.327000,  4.458500
  0.329000,  3.986700
  0.331000,  3.523200
  0.333000,  3.045800
  0.335000,  2.575300
  0.337000,  2.114200
  0.339000,  1.650700
  0.341000,  1.196800
  0.343000,  0.748300
  0.345000,  0.301800
  0.347000, -0.134200
  0.349000, -0.558300
  0.351000, -0.973600
  0.353000, -1.378900
  0.355000, -1.774800
  0.357000, -2.156700
  0.359000, -2.527000
  0.361000, -2.884500
  0.363000, -3.227100
  0.365000, -3.556900
  0.367000, -3.871800
  0.369000, -4.172900
  0.371000, -4.460200
  0.373000, -4.735600
  0.375000, -4.996600
  0.377000, -5.241200
  0.379000, -5.473000
  0.381000, -5.691900
  0.383000, -5.895700
  0.385000, -6.085600
  0.387000, -6.262400
  0.389000, -6.425800
  0.391000, -6.575500
  0.393000, -6.712400
  0.395000, -6.836900
  0.397000, -6.948800
  0.399000, -7.049100
  0.401000, -7.138200
  0.403000, -7.216100
  0.405000, -7.283300
  0.407000, -7.340300
  0.409000, -7.387100
  0.411000, -7.424800
  0.413000, -7.454200
  0.415000, -7.475900
  0.417000, -7.490300
  0.419000, -7.496800
  0.421000, -7.496100
  0.423000, -7.489000
  0.425000, -7.476900
  0.427000, -7.460300
  0.429000, -7.440000
  0.431000, -7.416500
  0.433000, -7.389900
  0.435000, -7.361500
  0.437000, -7.330200
  0.439000, -7.296100
  0.441000, -7.260200
  0.443000, -7.223600
  0.445000, -7.187200
  0.447000, -7.150500
  0.449000, -7.114100
  0.451000, -7.078800
  0.453000, -7.045300
  0.455000, -7.013400
  0.457000, -6.982600
  0.459000, -6.953500
  0.461000, -6.926500
  0.463000, -6.901100
  0.465000, -6.876800
  0.467000, -6.854000
  0.469000, -6.833100
  0.471000, -6.813700
  0.473000, -6.795700
  0.475000, -6.779100
  0.477000, -6.763400
  0.479000, -6.748600
  0.481000, -6.734400
  0.483000, -6.721000
  0.485000, -6.708100
  0.487000, -6.695300
  0.489000, -6.682600
  0.491000, -6.669100
  0.493000, -6.654900
  0.495000, -6.640200
  0.497000, -6.623800
  0.499000, -6.605800
  0.501000, -6.586800
  0.503000, -6.565800
  0.505000, -6.542800
  0.507000, -6.517600
  0.509000, -6.490400
  0.511000, -6.460700
  0.513000, -6.428600
  0.515000, -6.393800
  0.517000, -6.356100
  0.519000, -6.315300
  0.521000, -6.271500
  0.523000, -6.224400
  0.525000, -6.174100
  0.527000, -6.120900
  0.529000, -6.064700
  0.531000, -6.005100
  0.533000, -5.942100
  0.535000, -5.875800
  0.537000, -5.806400
  0.539000, -5.733900
  0.541000, -5.658400
  0.543000, -5.580000
  0.545000, -5.498600
  0.547000, -5.414400
  0.549000, -5.327500
  0.551000, -5.237900
  0.553000, -5.146100
  0.555000, -5.052100
  0.557000, -4.955600
  0.559000, -4.856900
  0.561000, -4.756600
  0.563000, -4.654600
  0.565000, -4.551200
  0.567000, -4.446500
  0.569000, -4.340300
  0.571000, -4.232800
  0.573000, -4.124000
  0.575000, -4.014400
  0.577000, -3.903900
  0.579000, -3.792600
  0.581000, -3.680900
  0.583000, -3.569300
  0.585000, -3.456700
  0.587000, -3.343800
  0.589000, -3.231200
  0.591000, -3.118800
  0.593000, -3.006900
  0.595000, -2.895000
  0.597000, -2.783400
  0.599000, -2.672900
  0.601000, -2.563200
  0.603000, -2.454400
  0.605000, -2.346300
  0.607000, -2.239300
  0.609000, -2.133400
  0.611000, -2.028900
  0.613000, -1.925600
  0.615000, -1.823700
  0.617000, -1.723500
  0.619000, -1.624900
  0.621000, -1.528200
  0.623000, -1.433500
  0.625000, -1.340600
  0.627000, -1.249500
  0.629000, -1.160200
  0.631000, -1.073000
  0.633000, -0.988200
  0.635000, -0.905900
  0.637000, -0.825800
  0.639000, -0.748200
  0.641000, -0.672800
  0.643000, -0.599800
  0.645000, -0.529100
  0.647000, -0.461100
  0.649000, -0.395700
  0.651000, -0.332700
  0.653000, -0.272300
  0.655000, -0.214500
  0.657000, -0.159400
  0.659000, -0.106900
  0.661000, -0.057100
  0.663000, -0.009900
  0.665000,  0.034700
  0.667000,  0.076600
  0.669000,  0.115800
  0.671000,  0.152500
  0.673000,  0.186500
  0.675000,  0.218100
  0.677000,  0.247200
  0.679000,  0.273500
  0.681000,  0.297300
  0.683000,  0.318700
  0.685000,  0.337700
  0.687000,  0.354500
  0.689000,  0.368900
  0.691000,  0.381100
  0.693000,  0.391100
  0.695000,  0.398700
  0.697000,  0.404000
  0.699000,  0.407300
  0.701000,  0.408800
  0.703000,  0.408300
  0.705000,  0.406100
  0.707000,  0.402300
  0.709000,  0.396600
  0.711000,  0.389200
  0.713000,  0.379900
  0.715000,  0.369000
  0.717000,  0.357000
  0.719000,  0.343700
  0.721000,  0.329000
  0.723000,  0.313100
  0.725000,  0.296000
  0.727000,  0.277800
  0.729000,  0.258800
  0.731000,  0.239000
  0.733000,  0.218500
  0.735000,  0.197000
  0.737000,  0.174500
  0.739000,  0.151500
  0.741000,  0.128200
  0.743000,  0.104300
  0.745000,  0.079700
  0.747000,  0.054700
  0.749000,  0.029300
  0.751000,  0.003700
  0.753000, -0.022200
  0.755000, -0.048100
  0.757000, -0.074200
  0.759000, -0.100300
  0.761000, -0.126500
  0.763000, -0.152400
  0.765000, -0.178400
  0.767000, -0.204400
  0.769000, -0.229700
  0.771000, -0.254500
  0.773000, -0.279000
  0.775000, -0.303300
  0.777000, -0.327100
  0.779000, -0.350100
  0.781000, -0.372600
  0.783000, -0.394500
  0.785000, -0.415600
  0.787000, -0.436000
  0.789000, -0.455900
  0.791000, -0.474900
  0.793000, -0.493200
  0.795000, -0.510900
  0.797000, -0.527700
  0.799000, -0.543500
  0.801000, -0.558600
  0.803000, -0.572700
  0.805000, -0.585900
  0.807000, -0.598100
  0.809000, -0.609300
  0.811000, -0.619800
  0.813000, -0.629300
  0.815000, -0.637700
  0.817000, -0.645100
  0.819000, -0.651300
  0.821000, -0.656500
  0.823000, -0.660700
  0.825000, -0.664000
  0.827000, -0.666400
  0.829000, -0.667600
  0.831000, -0.667900
  0.833000, -0.667200
  0.835000, -0.665600
  0.837000, -0.663200
  0.839000, -0.660000
  0.841000, -0.655700
  0.843000, -0.650400
  0.845000, -0.644400
  0.847000, -0.637500
  0.849000, -0.629600
  0.851000, -0.621000
  0.853000, -0.611700
  0.855000, -0.601600
  0.857000, -0.591000
  0.859000, -0.579700
  0.861000, -0.567800
  0.863000, -0.555100
  0.865000, -0.541800
  0.867000, -0.528200
  0.869000, -0.513900
  0.871000, -0.499000
  0.873000, -0.483800
  0.875000, -0.468000
  0.877000, -0.451700
  0.879000, -0.435300
  0.881000, -0.418400
  0.883000, -0.401200
  0.885000, -0.384000
  0.887000, -0.366400
  0.889000, -0.348500
  0.891000, -0.330700
  0.893000, -0.312800
  0.895000, -0.294700
  0.897000, -0.276600
  0.899000, -0.258300
  0.901000, -0.239900
  0.903000, -0.221500
  0.905000, -0.203100
  0.907000, -0.184700
  0.909000, -0.166500
  0.911000, -0.148500
  0.913000, -0.130500
  0.915000, -0.113000
  0.917000, -0.095600
  0.919000, -0.078300
  0.921000, -0.061100
  0.923000, -0.044000
  0.925000, -0.027400
  0.927000, -0.011000
  0.929000,  0.005000
  0.931000,  0.020600
  0.933000,  0.036000
  0.935000,  0.051200
  0.937000,  0.066100
  0.939000,  0.080600
  0.941000,  0.094700
  0.943000,  0.108500
  0.945000,  0.121900
  0.947000,  0.134900
  0.949000,  0.147500
  0.951000,  0.159600
  0.953000,  0.171200
  0.955000,  0.182500
  0.957000,  0.193400
  0.959000,  0.203900
  0.961000,  0.213900
  0.963000,  0.223300
  0.965000,  0.232400
  0.967000,  0.241000
  0.969000,  0.249100
  0.971000,  0.256600
  0.973000,  0.263800
  0.975000,  0.270500
  0.977000,  0.276600
  0.979000,  0.282200
  0.981000,  0.287300
  0.983000,  0.292000
  0.985000,  0.296200
  0.987000,  0.300000
  0.989000,  0.303300
  0.991000,  0.306200
  0.993000,  0.308500
  0.995000,  0.310300
  0.997000,  0.311800
  0.999000,  0.312700
  1.001000,  0.313200
  1.003000,  0.313400
  1.005000,  0.313000
  1.007000,  0.312200
  1.009000,  0.311000
  1.011000,  0.309500
  1.013000,  0.307600
  1.015000,  0.305200
  1.017000,  0.302300
  1.019000,  0.299100
  1.021000,  0.295500
  1.023000,  0.291700
  1.025000,  0.287600
  1.027000,  0.283000
  1.029000,  0.278100
  1.031000,  0.272800
  1.033000,  0.267200
  1.035000,  0.261400
  1.037000,  0.255300
  1.039000,  0.248900
  1.041000,  0.242300
  1.043000,  0.235400
  1.045000,  0.228300
  1.047000,  0.221000
  1.049000,  0.213400
  1.051000,  0.205600
  1.053000,  0.197700
  1.055000,  0.189700
  1.057000,  0.181400
  1.059000,  0.173100
  1.061000,  0.164600
  1.063000,  0.156000
  1.065000,  0.147200
  1.067000,  0.138500
  1.069000,  0.129700
  1.071000,  0.120800
  1.073000,  0.111900
  1.075000,  0.102800
  1.077000,  0.093800
  1.079000,  0.084900
  1.081000,  0.075900
  1.083000,  0.067000
  1.085000,  0.058100
  1.087000,  0.049300
  1.089000,  0.040600
  1.091000,  0.032000
  1.093000,  0.023500
  1.095000,  0.015100
  1.097000,  0.006800
  1.099000, -0.001300
  1.101000, -0.009300
  1.103000, -0.017200
  1.105000, -0.024800
  1.107000, -0.032200
  1.109000, -0.039400
  1.111000, -0.046300
  1.113000, -0.053100
  1.115000, -0.059600
  1.117000, -0.066000
  1.119000, -0.072000
  1.121000, -0.077700
  1.123000, -0.083200
  1.125000, -0.088300
  1.127000, -0.093300
  1.129000, -0.098000
  1.131000, -0.102300
  1.133000, -0.106300
  1.135000, -0.110100
  1.137000, -0.113700
  1.139000, -0.117000
  1.141000, -0.119800
  1.143000, -0.122500
  1.145000, -0.124800
  1.147000, -0.126900
  1.149000, -0.128700
  1.151000, -0.130200
  1.153000, -0.131500
  1.155000, -0.132500
  1.157000, -0.133200
  1.159000, -0.133700
  1.161000, -0.133900
  1.163000, -0.134100
  1.165000, -0.134000
  1.167000, -0.133700
  1.169000, -0.133200
  1.171000, -0.132500
  1.173000, -0.131500
  1.175000, -0.130500
  1.177000, -0.129300
  1.179000, -0.127900
  1.181000, -0.126400
  1.183000, -0.124600
  1.185000, -0.122700
  1.187000, -0.120800
  1.189000, -0.118800
  1.191000, -0.116600
  1.193000, -0.114300
  1.195000, -0.112000
  1.197000, -0.109500
  1.199000, -0.106900
  1.201000, -0.104300
  1.203000, -0.101600
  1.205000, -0.098700
  1.207000, -0.095800
  1.209000, -0.092900
  1.211000, -0.089900
  1.213000, -0.086800
  1.215000, -0.083800
  1.217000, -0.080700
  1.219000, -0.077500
  1.221000, -0.074100
  1.223000, -0.070700
  1.225000, -0.067500
  1.227000, -0.064000
  1.229000, -0.060400
  1.231000, -0.056900
  1.233000, -0.053400
  1.235000, -0.049700
  1.237000, -0.046000
  1.239000, -0.042400
  1.241000, -0.038800
  1.243000, -0.035100
  1.245000, -0.031300
  1.247000, -0.027700
  1.249000, -0.024100
  1.251000, -0.020500
  1.253000, -0.017000
  1.255000, -0.013400
  1.257000, -0.009900
  1.259000, -0.006400
  1.261000, -0.003000
  1.263000,  0.000300
  1.265000,  0.003600
  1.267000,  0.006800
  1.269000,  0.009900
  1.271000,  0.012900
  1.273000,  0.015700
  1.275000,  0.018400
  1.277000,  0.021100
  1.279000,  0.023600
  1.281000,  0.026000
  1.283000,  0.028200
  1.285000,  0.030200
  1.287000,  0.032100
  1.289000,  0.033900
  1.291000,  0.035500
  1.293000,  0.037000
  1.295000,  0.038300
  1.297000,  0.039400
  1.299000,  0.040500
  1.301000,  0.041300
  1.303000,  0.042000
  1.305000,  0.042500
  1.307000,  0.042900
  1.309000,  0.043000
  1.311000,  0.043100
  1.313000,  0.043000
  1.315000,  0.042800
  1.317000,  0.042500
  1.319000,  0.042000
  1.321000,  0.041500
  1.323000,  0.040800
  1.325000,  0.040100
  1.327000,  0.039100
  1.329000,  0.038100
  1.331000,  0.037000
  1.333000,  0.035900
  1.335000,  0.034800
  1.337000,  0.033600
  1.339000,  0.032400
  1.341000,  0.031300
  1.343000,  0.030100
  1.345000,  0.029000
  1.347000,  0.027800
  1.349000,  0.026700
  1.351000,  0.025600
  1.353000,  0.024500
  1.355000,  0.023600
  1.357000,  0.022600
  1.359000,  0.021600
  1.361000,  0.020700
  1.363000,  0.019800
  1.365000,  0.018900
  1.367000,  0.018200
  1.369000,  0.017500
  1.371000,  0.016900
  1.373000,  0.016200
  1.375000,  0.015600
  1.377000,  0.014900
  1.379000,  0.014200
  1.381000,  0.013400
  1.383000,  0.012700
  1.385000,  0.012100
  1.387000,  0.011200
  1.389000,  0.010300
  1.391000,  0.009200
  1.393000,  0.007900
  1.395000,  0.006300
  1.397000,  0.004600
  1.399000,  0.002500
