# z (nm)   (kJ/mol)
  0.311000, 10.142300
  0.315000,  9.722300
  0.319000,  8.817500
  0.321000,  8.393700
  0.323000,  7.969200
  0.325000,  7.510200
  0.327000,  7.045700
  0.329000,  6.582800
  0.331000,  6.111100
  0.333000,  5.633200
  0.335000,  5.155600
  0.337000,  4.680800
  0.339000,  4.201000
  0.341000,  3.710000
  0.343000,  3.220400
  0.345000,  2.732900
  0.347000,  2.244400
  0.349000,  1.761600
  0.351000,  1.283200
  0.353000,  0.807200
  0.355000,  0.334300
  0.357000, -0.137800
  0.359000, -0.605000
  0.361000, -1.063800
  0.363000, -1.514300
  0.365000, -1.956300
  0.367000, -2.389800
  0.369000, -2.815300
  0.371000, -3.232000
  0.373000, -3.639700
  0.375000, -4.035900
  0.377000, -4.424000
  0.379000, -4.802500
  0.381000, -5.168100
  0.383000, -5.522500
  0.385000, -5.864500
  0.387000, -6.196600
  0.389000, -6.517100
  0.391000, -6.824200
  0.393000, -7.118900
  0.395000, -7.400900
  0.397000, -7.671400
  0.399000, -7.929500
  0.401000, -8.173600
  0.403000, -8.405300
  0.405000, -8.625000
  0.407000, -8.830700
  0.409000, -9.023200
  0.411000, -9.202700
  0.413000, -9.368100
  0.415000, -9.520200
  0.417000, -9.659500
  0.419000, -9.785300
  0.421000, -9.898000
  0.423000, -9.997700
  0.425000,-10.084700
  0.427000,-10.159700
  0.429000,-10.222000
  0.431000,-10.271600
  0.433000,-10.309300
  0.435000,-10.335200
  0.437000,-10.349300
  0.439000,-10.352100
  0.441000,-10.344000
  0.443000,-10.326000
  0.445000,-10.298900
  0.447000,-10.262100
  0.449000,-10.217600
  0.451000,-10.165500
  0.453000,-10.104700
  0.455000,-10.036700
  0.457000, -9.962900
  0.459000, -9.882800
  0.461000, -9.796700
  0.463000, -9.705600
  0.465000, -9.610100
  0.467000, -9.511500
  0.469000, -9.410400
  0.471000, -9.305900
  0.473000, -9.198700
  0.475000, -9.090200
  0.477000, -8.980400
  0.479000, -8.870000
  0.481000, -8.759700
  0.483000, -8.649200
  0.485000, -8.538600
  0.487000, -8.428900
  0.489000, -8.319500
  0.491000, -8.211100
  0.493000, -8.104100
  0.495000, -7.998400
  0.497000, -7.894200
  0.499000, -7.792000
  0.501000, -7.691800
  0.503000, -7.593500
  0.505000, -7.497300
  0.507000, -7.403300
  0.509000, -7.311200
  0.511000, -7.221100
  0.513000, -7.133200
  0.515000, -7.047200
  0.517000, -6.963200
  0.519000, -6.881100
  0.521000, -6.800800
  0.523000, -6.722300
  0.525000, -6.645400
  0.527000, -6.570000
  0.529000, -6.496000
  0.531000, -6.423100
  0.533000, -6.351200
  0.535000, -6.280200
  0.537000, -6.209800
  0.539000, -6.140000
  0.541000, -6.070600
  0.543000, -6.001400
  0.545000, -5.932100
  0.547000, -5.862600
  0.549000, -5.792800
  0.551000, -5.722800
  0.553000, -5.652300
  0.555000, -5.581200
  0.557000, -5.509200
  0.559000, -5.436300
  0.561000, -5.362400
  0.563000, -5.287600
  0.565000, -5.211300
  0.567000, -5.133900
  0.569000, -5.055100
  0.571000, -4.974600
  0.573000, -4.892700
  0.575000, -4.809500
  0.577000, -4.725300
  0.579000, -4.639800
  0.581000, -4.552500
  0.583000, -4.463400
  0.585000, -4.373100
  0.587000, -4.282200
  0.589000, -4.189400
  0.591000, -4.095000
  0.593000, -4.000200
  0.595000, -3.904700
  0.597000, -3.808800
  0.599000, -3.712000
  0.601000, -3.614400
  0.603000, -3.516000
  0.605000, -3.416700
  0.607000, -3.317000
  0.609000, -3.217500
  0.611000, -3.118100
  0.613000, -3.018700
  0.615000, -2.919900
  0.617000, -2.821500
  0.619000, -2.723700
  0.621000, -2.626900
  0.623000, -2.531200
  0.625000, -2.437200
  0.627000, -2.344700
  0.629000, -2.253300
  0.631000, -2.163700
  0.633000, -2.075900
  0.635000, -1.990000
  0.637000, -1.906600
  0.639000, -1.825700
  0.641000, -1.747200
  0.643000, -1.671500
  0.645000, -1.598700
  0.647000, -1.528800
  0.649000, -1.461500
  0.651000, -1.397000
  0.653000, -1.335500
  0.655000, -1.277300
  0.657000, -1.222500
  0.659000, -1.170800
  0.661000, -1.122300
  0.663000, -1.077200
  0.665000, -1.035100
  0.667000, -0.996400
  0.669000, -0.960900
  0.671000, -0.928700
  0.673000, -0.899500
  0.675000, -0.873300
  0.677000, -0.850200
  0.679000, -0.830300
  0.681000, -0.813200
  0.683000, -0.798900
  0.685000, -0.787600
  0.687000, -0.779400
  0.689000, -0.773200
  0.691000, -0.768700
  0.693000, -0.766900
  0.695000, -0.767500
  0.697000, -0.770300
  0.699000, -0.775100
  0.701000, -0.781600
  0.703000, -0.789500
  0.705000, -0.799000
  0.707000, -0.810000
  0.709000, -0.822100
  0.711000, -0.835900
  0.713000, -0.850900
  0.715000, -0.866700
  0.717000, -0.883300
  0.719000, -0.900400
  0.721000, -0.917800
  0.723000, -0.935500
  0.725000, -0.953600
  0.727000, -0.972100
  0.729000, -0.990700
  0.731000, -1.009700
  0.733000, -1.028600
  0.735000, -1.047100
  0.737000, -1.065500
  0.739000, -1.083600
  0.741000, -1.101600
  0.743000, -1.119000
  0.745000, -1.135700
  0.747000, -1.151500
  0.749000, -1.166700
  0.751000, -1.181500
  0.753000, -1.195700
  0.755000, -1.209200
  0.757000, -1.221700
  0.759000, -1.233600
  0.761000, -1.244800
  0.763000, -1.255100
  0.765000, -1.264600
  0.767000, -1.273100
  0.769000, -1.280700
  0.771000, -1.287400
  0.773000, -1.293200
  0.775000, -1.298200
  0.777000, -1.302400
  0.779000, -1.305600
  0.781000, -1.308000
  0.783000, -1.309700
  0.785000, -1.310300
  0.787000, -1.310200
  0.789000, -1.309300
  0.791000, -1.307700
  0.793000, -1.305200
  0.795000, -1.302000
  0.797000, -1.298000
  0.799000, -1.293400
  0.801000, -1.288100
  0.803000, -1.282200
  0.805000, -1.275700
  0.807000, -1.268700
  0.809000, -1.261100
  0.811000, -1.253000
  0.813000, -1.244200
  0.815000, -1.235000
  0.817000, -1.225300
  0.819000, -1.215100
  0.821000, -1.204400
  0.823000, -1.193400
  0.825000, -1.182000
  0.827000, -1.170200
  0.829000, -1.158000
  0.831000, -1.145400
  0.833000, -1.132400
  0.835000, -1.119100
  0.837000, -1.105500
  0.839000, -1.091600
  0.841000, -1.077500
  0.843000, -1.063100
  0.845000, -1.048500
  0.847000, -1.033600
  0.849000, -1.018400
  0.851000, -1.003000
  0.853000, -0.987300
  0.855000, -0.971300
  0.857000, -0.955300
  0.859000, -0.939000
  0.861000, -0.922700
  0.863000, -0.906100
  0.865000, -0.889300
  0.867000, -0.872500
  0.869000, -0.855400
  0.871000, -0.838100
  0.873000, -0.820700
  0.875000, -0.803200
  0.877000, -0.785600
  0.879000, -0.768000
  0.881000, -0.750400
  0.883000, -0.732700
  0.885000, -0.714900
  0.887000, -0.697100
  0.889000, -0.679300
  0.891000, -0.661500
  0.893000, -0.643700
  0.895000, -0.626000
  0.897000, -0.608300
  0.899000, -0.590700
  0.901000, -0.573200
  0.903000, -0.555700
  0.905000, -0.538400
  0.907000, -0.521200
  0.909000, -0.504200
  0.911000, -0.487400
  0.913000, -0.470900
  0.915000, -0.454600
  0.917000, -0.438400
  0.919000, -0.422500
  0.921000, -0.406800
  0.923000, -0.391500
  0.925000, -0.376500
  0.927000, -0.361700
  0.929000, -0.347100
  0.931000, -0.333000
  0.933000, -0.319200
  0.935000, -0.305900
  0.937000, -0.292800
  0.939000, -0.280200
  0.941000, -0.267900
  0.943000, -0.256200
  0.945000, -0.244800
  0.947000, -0.233800
  0.949000, -0.223200
  0.951000, -0.213100
  0.953000, -0.203500
  0.955000, -0.194200
  0.957000, -0.185400
  0.959000, -0.177000
  0.961000, -0.169000
  0.963000, -0.161500
  0.965000, -0.154400
  0.967000, -0.147700
  0.969000, -0.141600
  0.971000, -0.135800
  0.973000, -0.130300
  0.975000, -0.125100
  0.977000, -0.120400
  0.979000, -0.116000
  0.981000, -0.112000
  0.983000, -0.108400
  0.985000, -0.105200
  0.987000, -0.102300
  0.989000, -0.099700
  0.991000, -0.097300
  0.993000, -0.095300
  0.995000, -0.093600
  0.997000, -0.092000
  0.999000, -0.090800
  1.001000, -0.089800
  1.003000, -0.089100
  1.005000, -0.088600
  1.007000, -0.088400
  1.009000, -0.088400
  1.011000, -0.088600
  1.013000, -0.089000
  1.015000, -0.089600
  1.017000, -0.090400
  1.019000, -0.091200
  1.021000, -0.092300
  1.023000, -0.093500
  1.025000, -0.094900
  1.027000, -0.096400
  1.029000, -0.098000
  1.031000, -0.099700
  1.033000, -0.101500
  1.035000, -0.103400
  1.037000, -0.105500
  1.039000, -0.107700
  1.041000, -0.109900
  1.043000, -0.112300
  1.045000, -0.114800
  1.047000, -0.117300
  1.049000, -0.119900
  1.051000, -0.122600
  1.053000, -0.125400
  1.055000, -0.128200
  1.057000, -0.131000
  1.059000, -0.133800
  1.061000, -0.136800
  1.063000, -0.139700
  1.065000, -0.142800
  1.067000, -0.145800
  1.069000, -0.149000
  1.071000, -0.152100
  1.073000, -0.155100
  1.075000, -0.158100
  1.077000, -0.161200
  1.079000, -0.164200
  1.081000, -0.167200
  1.083000, -0.170300
  1.085000, -0.173200
  1.087000, -0.176100
  1.089000, -0.179100
  1.091000, -0.182000
  1.093000, -0.184800
  1.095000, -0.187700
  1.097000, -0.190500
  1.099000, -0.193100
  1.101000, -0.195600
  1.103000, -0.198000
  1.105000, -0.200300
  1.107000, -0.202500
  1.109000, -0.204700
  1.111000, -0.206700
  1.113000, -0.208700
  1.115000, -0.210700
  1.117000, -0.212600
  1.119000, -0.214300
  1.121000, -0.215900
  1.123000, -0.217400
  1.125000, -0.218700
  1.127000, -0.219900
  1.129000, -0.221000
  1.131000, -0.221900
  1.133000, -0.222700
  1.135000, -0.223500
  1.137000, -0.224000
  1.139000, -0.224500
  1.141000, -0.224900
  1.143000, -0.225000
  1.145000, -0.225000
  1.147000, -0.224900
  1.149000, -0.224500
  1.151000, -0.224100
  1.153000, -0.223700
  1.155000, -0.223000
  1.157000, -0.222200
  1.159000, -0.221200
  1.161000, -0.220100
  1.163000, -0.218700
  1.165000, -0.217300
  1.167000, -0.215700
  1.169000, -0.213800
  1.171000, -0.211800
  1.173000, -0.209800
  1.175000, -0.207500
  1.177000, -0.205100
  1.179000, -0.202500
  1.181000, -0.199600
  1.183000, -0.196600
  1.185000, -0.193600
  1.187000, -0.190400
  1.189000, -0.186900
  1.191000, -0.183300
  1.193000, -0.179500
  1.195000, -0.175600
  1.197000, -0.171600
  1.199000, -0.167400
  1.201000, -0.163100
  1.203000, -0.158500
  1.205000, -0.153900
  1.207000, -0.149400
  1.209000, -0.144600
  1.211000, -0.139600
  1.213000, -0.134600
  1.215000, -0.129500
  1.217000, -0.124400
  1.219000, -0.119000
  1.221000, -0.113600
  1.223000, -0.108100
  1.225000, -0.102500
  1.227000, -0.097000
  1.229000, -0.091400
  1.231000, -0.085700
  1.233000, -0.080200
  1.235000, -0.074800
  1.237000, -0.069300
  1.239000, -0.063800
  1.241000, -0.058400
  1.243000, -0.053100
  1.245000, -0.048000
  1.247000, -0.042900
  1.249000, -0.038000
  1.251000, -0.033200
  1.253000, -0.028500
  1.255000, -0.024100
  1.257000, -0.019800
  1.259000, -0.015700
  1.261000, -0.011700
  1.263000, -0.007900
  1.265000, -0.004200
  1.267000, -0.000800
  1.269000,  0.002500
  1.271000,  0.005500
  1.273000,  0.008400
  1.275000,  0.011000
  1.277000,  0.013400
  1.279000,  0.015700
  1.281000,  0.017700
  1.283000,  0.019500
  1.285000,  0.021100
  1.287000,  0.022600
  1.289000,  0.023900
  1.291000,  0.024900
  1.293000,  0.025900
  1.295000,  0.026700
  1.297000,  0.027400
  1.299000,  0.028000
  1.301000,  0.028600
  1.303000,  0.029100
  1.305000,  0.029300
  1.307000,  0.029600
  1.309000,  0.029800
  1.311000,  0.030000
  1.313000,  0.030200
  1.315000,  0.030500
  1.317000,  0.030700
  1.319000,  0.031000
  1.321000,  0.031400
  1.323000,  0.031700
  1.325000,  0.032000
  1.327000,  0.032600
  1.329000,  0.033200
  1.331000,  0.033800
  1.333000,  0.034600
  1.335000,  0.035400
  1.337000,  0.036400
  1.339000,  0.037500
  1.341000,  0.038600
  1.343000,  0.040000
  1.345000,  0.041300
  1.347000,  0.042800
  1.349000,  0.044300
  1.351000,  0.046000
  1.353000,  0.047700
  1.355000,  0.049500
  1.357000,  0.051400
  1.359000,  0.053400
  1.361000,  0.055500
  1.363000,  0.057500
  1.365000,  0.059500
  1.367000,  0.061500
  1.369000,  0.063400
  1.371000,  0.065400
  1.373000,  0.067300
  1.375000,  0.069100
  1.377000,  0.070900
  1.379000,  0.072600
  1.381000,  0.074200
  1.383000,  0.075700
  1.385000,  0.077000
  1.387000,  0.078100
  1.389000,  0.079000
  1.391000,  0.079700
  1.393000,  0.080000
  1.395000,  0.079900
  1.397000,  0.079400
  1.399000,  0.078500
