# z (nm)   (kJ/mol)
  0.233000, 11.535800
  0.235000, 11.243800
  0.237000, 10.929800
  0.239000, 10.627000
  0.241000, 10.306500
  0.243000,  9.965100
  0.245000,  9.642800
  0.247000,  9.323000
  0.249000,  8.994300
  0.251000,  8.651200
  0.253000,  8.308800
  0.255000,  7.968400
  0.257000,  7.623000
  0.259000,  7.272300
  0.261000,  6.920200
  0.263000,  6.571600
  0.265000,  6.218200
  0.267000,  5.862500
  0.269000,  5.512100
  0.271000,  5.163300
  0.273000,  4.810200
  0.275000,  4.457300
  0.277000,  4.107800
  0.279000,  3.765400
  0.281000,  3.429900
  0.283000,  3.093400
  0.285000,  2.761300
  0.287000,  2.437400
  0.289000,  2.116700
  0.291000,  1.797400
  0.293000,  1.485100
  0.295000,  1.183100
  0.297000,  0.884500
  0.299000,  0.590000
  0.301000,  0.301500
  0.303000,  0.020500
  0.305000, -0.253500
  0.307000, -0.521800
  0.309000, -0.781900
  0.311000, -1.033500
  0.313000, -1.278600
  0.315000, -1.515900
  0.317000, -1.746100
  0.319000, -1.968400
  0.321000, -2.181500
  0.323000, -2.386900
  0.325000, -2.584100
  0.327000, -2.774700
  0.329000, -2.957700
  0.331000, -3.132400
  0.333000, -3.298600
  0.335000, -3.455900
  0.337000, -3.605700
  0.339000, -3.747600
  0.341000, -3.881300
  0.343000, -4.006400
  0.345000, -4.122800
  0.347000, -4.231800
  0.349000, -4.333200
  0.351000, -4.426700
  0.353000, -4.512500
  0.355000, -4.590700
  0.357000, -4.661000
  0.359000, -4.724000
  0.361000, -4.780200
  0.363000, -4.828900
  0.365000, -4.870500
  0.367000, -4.905800
  0.369000, -4.934300
  0.371000, -4.956200
  0.373000, -4.972700
  0.375000, -4.983400
  0.377000, -4.988300
  0.379000, -4.987800
  0.381000, -4.982500
  0.383000, -4.971800
  0.385000, -4.955700
  0.387000, -4.935400
  0.389000, -4.910100
  0.391000, -4.881300
  0.393000, -4.849200
  0.395000, -4.812600
  0.397000, -4.772200
  0.399000, -4.728100
  0.401000, -4.681500
  0.403000, -4.632100
  0.405000, -4.579500
  0.407000, -4.524300
  0.409000, -4.466800
  0.411000, -4.406900
  0.413000, -4.344400
  0.415000, -4.280200
  0.417000, -4.213900
  0.419000, -4.145700
  0.421000, -4.075900
  0.423000, -4.004600
  0.425000, -3.931600
  0.427000, -3.857200
  0.429000, -3.781900
  0.431000, -3.705300
  0.433000, -3.627600
  0.435000, -3.548900
  0.437000, -3.469200
  0.439000, -3.388700
  0.441000, -3.307400
  0.443000, -3.225300
  0.445000, -3.142300
  0.447000, -3.058900
  0.449000, -2.974800
  0.451000, -2.890300
  0.453000, -2.805400
  0.455000, -2.720100
  0.457000, -2.634600
  0.459000, -2.548800
  0.461000, -2.462900
  0.463000, -2.377000
  0.465000, -2.291200
  0.467000, -2.205100
  0.469000, -2.119100
  0.471000, -2.033500
  0.473000, -1.948000
  0.475000, -1.862700
  0.477000, -1.778200
  0.479000, -1.694200
  0.481000, -1.610600
  0.483000, -1.527600
  0.485000, -1.444900
  0.487000, -1.363100
  0.489000, -1.282200
  0.491000, -1.202200
  0.493000, -1.123400
  0.495000, -1.045700
  0.497000, -0.969000
  0.499000, -0.893500
  0.501000, -0.819200
  0.503000, -0.746200
  0.505000, -0.674500
  0.507000, -0.604700
  0.509000, -0.536400
  0.511000, -0.469600
  0.513000, -0.404500
  0.515000, -0.341100
  0.517000, -0.279400
  0.519000, -0.219500
  0.521000, -0.161400
  0.523000, -0.105500
  0.525000, -0.051600
  0.527000,  0.000300
  0.529000,  0.050100
  0.531000,  0.097900
  0.533000,  0.143400
  0.535000,  0.186700
  0.537000,  0.227800
  0.539000,  0.266800
  0.541000,  0.303700
  0.543000,  0.338200
  0.545000,  0.370400
  0.547000,  0.400300
  0.549000,  0.427900
  0.551000,  0.453200
  0.553000,  0.476300
  0.555000,  0.497100
  0.557000,  0.515600
  0.559000,  0.531800
  0.561000,  0.545700
  0.563000,  0.557400
  0.565000,  0.566900
  0.567000,  0.574400
  0.569000,  0.579700
  0.571000,  0.582900
  0.573000,  0.583900
  0.575000,  0.583000
  0.577000,  0.580300
  0.579000,  0.575900
  0.581000,  0.569500
  0.583000,  0.561300
  0.585000,  0.551600
  0.587000,  0.540100
  0.589000,  0.527100
  0.591000,  0.512400
  0.593000,  0.496100
  0.595000,  0.478400
  0.597000,  0.459500
  0.599000,  0.439700
  0.601000,  0.418500
  0.603000,  0.396100
  0.605000,  0.372600
  0.607000,  0.348400
  0.609000,  0.323600
  0.611000,  0.297700
  0.613000,  0.271300
  0.615000,  0.244200
  0.617000,  0.216500
  0.619000,  0.188400
  0.621000,  0.159800
  0.623000,  0.130800
  0.625000,  0.101600
  0.627000,  0.072400
  0.629000,  0.043200
  0.631000,  0.014200
  0.633000, -0.014700
  0.635000, -0.043500
  0.637000, -0.072500
  0.639000, -0.101500
  0.641000, -0.130200
  0.643000, -0.158600
  0.645000, -0.186500
  0.647000, -0.214000
  0.649000, -0.241300
  0.651000, -0.268200
  0.653000, -0.294600
  0.655000, -0.320300
  0.657000, -0.345200
  0.659000, -0.369500
  0.661000, -0.393100
  0.663000, -0.416100
  0.665000, -0.438400
  0.667000, -0.460000
  0.669000, -0.480900
  0.671000, -0.501000
  0.673000, -0.520400
  0.675000, -0.539000
  0.677000, -0.556700
  0.679000, -0.573600
  0.681000, -0.589700
  0.683000, -0.605000
  0.685000, -0.619400
  0.687000, -0.632800
  0.689000, -0.645400
  0.691000, -0.657200
  0.693000, -0.668100
  0.695000, -0.678200
  0.697000, -0.687300
  0.699000, -0.695600
  0.701000, -0.703000
  0.703000, -0.709600
  0.705000, -0.715300
  0.707000, -0.720200
  0.709000, -0.724100
  0.711000, -0.727200
  0.713000, -0.729400
  0.715000, -0.730800
  0.717000, -0.731300
  0.719000, -0.731000
  0.721000, -0.730000
  0.723000, -0.728200
  0.725000, -0.725700
  0.727000, -0.722300
  0.729000, -0.718300
  0.731000, -0.713400
  0.733000, -0.707700
  0.735000, -0.701300
  0.737000, -0.694200
  0.739000, -0.686500
  0.741000, -0.678100
  0.743000, -0.669200
  0.745000, -0.659600
  0.747000, -0.649400
  0.749000, -0.638600
  0.751000, -0.627300
  0.753000, -0.615400
  0.755000, -0.603300
  0.757000, -0.590600
  0.759000, -0.577400
  0.761000, -0.563700
  0.763000, -0.549600
  0.765000, -0.535200
  0.767000, -0.520400
  0.769000, -0.505300
  0.771000, -0.490200
  0.773000, -0.474700
  0.775000, -0.458800
  0.777000, -0.442800
  0.779000, -0.426800
  0.781000, -0.410700
  0.783000, -0.394400
  0.785000, -0.378000
  0.787000, -0.361700
  0.789000, -0.345300
  0.791000, -0.328900
  0.793000, -0.312500
  0.795000, -0.296200
  0.797000, -0.280100
  0.799000, -0.264000
  0.801000, -0.248100
  0.803000, -0.232300
  0.805000, -0.216800
  0.807000, -0.201400
  0.809000, -0.186300
  0.811000, -0.171300
  0.813000, -0.156700
  0.815000, -0.142300
  0.817000, -0.128100
  0.819000, -0.114300
  0.821000, -0.100800
  0.823000, -0.087600
  0.825000, -0.074700
  0.827000, -0.062100
  0.829000, -0.050000
  0.831000, -0.038300
  0.833000, -0.026900
  0.835000, -0.015900
  0.837000, -0.005300
  0.839000,  0.004800
  0.841000,  0.014600
  0.843000,  0.023900
  0.845000,  0.032800
  0.847000,  0.041200
  0.849000,  0.049200
  0.851000,  0.056900
  0.853000,  0.064200
  0.855000,  0.071000
  0.857000,  0.077400
  0.859000,  0.083500
  0.861000,  0.089200
  0.863000,  0.094500
  0.865000,  0.099400
  0.867000,  0.103800
  0.869000,  0.107800
  0.871000,  0.111500
  0.873000,  0.114800
  0.875000,  0.117800
  0.877000,  0.120400
  0.879000,  0.122500
  0.881000,  0.124200
  0.883000,  0.125700
  0.885000,  0.126800
  0.887000,  0.127700
  0.889000,  0.128200
  0.891000,  0.128400
  0.893000,  0.128200
  0.895000,  0.127800
  0.897000,  0.127100
  0.899000,  0.126000
  0.901000,  0.124700
  0.903000,  0.123100
  0.905000,  0.121200
  0.907000,  0.119200
  0.909000,  0.116800
  0.911000,  0.114100
  0.913000,  0.111200
  0.915000,  0.107900
  0.917000,  0.104500
  0.919000,  0.100900
  0.921000,  0.097100
  0.923000,  0.093100
  0.925000,  0.088900
  0.927000,  0.084400
  0.929000,  0.079800
  0.931000,  0.074900
  0.933000,  0.069900
  0.935000,  0.064700
  0.937000,  0.059500
  0.939000,  0.054100
  0.941000,  0.048500
  0.943000,  0.043000
  0.945000,  0.037300
  0.947000,  0.031500
  0.949000,  0.025600
  0.951000,  0.019700
  0.953000,  0.013700
  0.955000,  0.007700
  0.957000,  0.001800
  0.959000, -0.004200
  0.961000, -0.010200
  0.963000, -0.016200
  0.965000, -0.022100
  0.967000, -0.027800
  0.969000, -0.033500
  0.971000, -0.039100
  0.973000, -0.044700
  0.975000, -0.050000
  0.977000, -0.055200
  0.979000, -0.060500
  0.981000, -0.065500
  0.983000, -0.070400
  0.985000, -0.075100
  0.987000, -0.079600
  0.989000, -0.083900
  0.991000, -0.088000
  0.993000, -0.091900
  0.995000, -0.095500
  0.997000, -0.098900
  0.999000, -0.102000
  1.001000, -0.105000
  1.003000, -0.107600
  1.005000, -0.110000
  1.007000, -0.112200
  1.009000, -0.114200
  1.011000, -0.116000
  1.013000, -0.117500
  1.015000, -0.118600
  1.017000, -0.119500
  1.019000, -0.120200
  1.021000, -0.120500
  1.023000, -0.120600
  1.025000, -0.120600
  1.027000, -0.120200
  1.029000, -0.119600
  1.031000, -0.118700
  1.033000, -0.117600
  1.035000, -0.116400
  1.037000, -0.114900
  1.039000, -0.113200
  1.041000, -0.111300
  1.043000, -0.109200
  1.045000, -0.106900
  1.047000, -0.104500
  1.049000, -0.102000
  1.051000, -0.099200
  1.053000, -0.096300
  1.055000, -0.093200
  1.057000, -0.090100
  1.059000, -0.086900
  1.061000, -0.083700
  1.063000, -0.080300
  1.065000, -0.076900
  1.067000, -0.073400
  1.069000, -0.069800
  1.071000, -0.066300
  1.073000, -0.062700
  1.075000, -0.059000
  1.077000, -0.055300
  1.079000, -0.051600
  1.081000, -0.047900
  1.083000, -0.044200
  1.085000, -0.040600
  1.087000, -0.037000
  1.089000, -0.033500
  1.091000, -0.030000
  1.093000, -0.026600
  1.095000, -0.023300
  1.097000, -0.019900
  1.099000, -0.016700
  1.101000, -0.013500
  1.103000, -0.010400
  1.105000, -0.007500
  1.107000, -0.004500
  1.109000, -0.001600
  1.111000,  0.001200
  1.113000,  0.003800
  1.115000,  0.006300
  1.117000,  0.008600
  1.119000,  0.011000
  1.121000,  0.013200
  1.123000,  0.015300
  1.125000,  0.017300
  1.127000,  0.019200
  1.129000,  0.020900
  1.131000,  0.022700
  1.133000,  0.024300
  1.135000,  0.025700
  1.137000,  0.027100
  1.139000,  0.028400
  1.141000,  0.029500
  1.143000,  0.030600
  1.145000,  0.031500
  1.147000,  0.032500
  1.149000,  0.033300
  1.151000,  0.034000
  1.153000,  0.034700
  1.155000,  0.035300
  1.157000,  0.035700
  1.159000,  0.036100
  1.161000,  0.036300
  1.163000,  0.036400
  1.165000,  0.036500
  1.167000,  0.036500
  1.169000,  0.036500
  1.171000,  0.036300
  1.173000,  0.036200
  1.175000,  0.036000
  1.177000,  0.035700
  1.179000,  0.035300
  1.181000,  0.035000
  1.183000,  0.034600
  1.185000,  0.034100
  1.187000,  0.033600
  1.189000,  0.033000
  1.191000,  0.032300
  1.193000,  0.031700
  1.195000,  0.031000
  1.197000,  0.030300
  1.199000,  0.029500
  1.201000,  0.028700
  1.203000,  0.027900
  1.205000,  0.027000
  1.207000,  0.026000
  1.209000,  0.025100
  1.211000,  0.024200
  1.213000,  0.023300
  1.215000,  0.022400
  1.217000,  0.021400
  1.219000,  0.020500
  1.221000,  0.019700
  1.223000,  0.018700
  1.225000,  0.017700
  1.227000,  0.016700
  1.229000,  0.015700
  1.231000,  0.014800
  1.233000,  0.014000
  1.235000,  0.013000
  1.237000,  0.012100
  1.239000,  0.011200
  1.241000,  0.010200
  1.243000,  0.009400
  1.245000,  0.008500
  1.247000,  0.007600
  1.249000,  0.006800
  1.251000,  0.006100
  1.253000,  0.005300
  1.255000,  0.004400
  1.257000,  0.003600
  1.259000,  0.002900
  1.261000,  0.002100
  1.263000,  0.001300
  1.265000,  0.000600
  1.267000, -0.000200
  1.269000, -0.001000
  1.271000, -0.001700
  1.273000, -0.002500
  1.275000, -0.003400
  1.277000, -0.004200
  1.279000, -0.005000
  1.281000, -0.005800
  1.283000, -0.006600
  1.285000, -0.007300
  1.287000, -0.008100
  1.289000, -0.008800
  1.291000, -0.009400
  1.293000, -0.010200
  1.295000, -0.010900
  1.297000, -0.011600
  1.299000, -0.012200
  1.301000, -0.012600
  1.303000, -0.013100
  1.305000, -0.013600
  1.307000, -0.014200
  1.309000, -0.014600
  1.311000, -0.015000
  1.313000, -0.015400
  1.315000, -0.015800
  1.317000, -0.016000
  1.319000, -0.016200
  1.321000, -0.016400
  1.323000, -0.016500
  1.325000, -0.016500
  1.327000, -0.016400
  1.329000, -0.016300
  1.331000, -0.016200
  1.333000, -0.015900
  1.335000, -0.015600
  1.337000, -0.015200
  1.339000, -0.014700
  1.341000, -0.014200
  1.343000, -0.013700
  1.345000, -0.013000
  1.347000, -0.012400
  1.349000, -0.011600
  1.351000, -0.010700
  1.353000, -0.009800
  1.355000, -0.008900
  1.357000, -0.007900
  1.359000, -0.007000
  1.361000, -0.006000
  1.363000, -0.005000
  1.365000, -0.004000
  1.367000, -0.002900
  1.369000, -0.001900
  1.371000, -0.000900
  1.373000,  0.000200
  1.375000,  0.001100
  1.377000,  0.002100
  1.379000,  0.003100
  1.381000,  0.003900
  1.383000,  0.004700
  1.385000,  0.005400
  1.387000,  0.005900
  1.389000,  0.006300
  1.391000,  0.006700
  1.393000,  0.006700
  1.395000,  0.006500
  1.397000,  0.006100
  1.399000,  0.005500
