# z (nm)   (kJ/mol)
  0.273000, 10.950100
  0.275000, 10.575100
  0.277000, 10.181400
  0.279000,  9.799600
  0.281000,  9.452300
  0.283000,  9.099300
  0.285000,  8.736900
  0.287000,  8.364700
  0.289000,  7.974000
  0.291000,  7.586300
  0.293000,  7.201000
  0.295000,  6.809600
  0.297000,  6.422700
  0.299000,  6.035900
  0.301000,  5.642000
  0.303000,  5.244700
  0.305000,  4.847500
  0.307000,  4.451300
  0.309000,  4.054100
  0.311000,  3.662200
  0.313000,  3.274100
  0.315000,  2.888500
  0.317000,  2.509800
  0.319000,  2.139200
  0.321000,  1.775600
  0.323000,  1.416100
  0.325000,  1.059300
  0.327000,  0.707900
  0.329000,  0.363600
  0.331000,  0.028100
  0.333000, -0.299900
  0.335000, -0.622000
  0.337000, -0.937300
  0.339000, -1.245900
  0.341000, -1.546600
  0.343000, -1.837700
  0.345000, -2.118100
  0.347000, -2.390400
  0.349000, -2.654400
  0.351000, -2.910100
  0.353000, -3.157100
  0.355000, -3.394700
  0.357000, -3.623800
  0.359000, -3.842400
  0.361000, -4.051700
  0.363000, -4.251500
  0.365000, -4.441400
  0.367000, -4.622600
  0.369000, -4.794900
  0.371000, -4.957800
  0.373000, -5.110700
  0.375000, -5.254100
  0.377000, -5.389000
  0.379000, -5.514600
  0.381000, -5.630600
  0.383000, -5.737800
  0.385000, -5.836300
  0.387000, -5.926000
  0.389000, -6.006900
  0.391000, -6.079300
  0.393000, -6.143600
  0.395000, -6.200100
  0.397000, -6.248600
  0.399000, -6.289400
  0.401000, -6.322700
  0.403000, -6.347800
  0.405000, -6.365900
  0.407000, -6.377900
  0.409000, -6.383400
  0.411000, -6.382800
  0.413000, -6.376600
  0.415000, -6.364400
  0.417000, -6.346600
  0.419000, -6.323400
  0.421000, -6.294800
  0.423000, -6.261300
  0.425000, -6.223600
  0.427000, -6.181900
  0.429000, -6.135600
  0.431000, -6.085800
  0.433000, -6.032700
  0.435000, -5.975700
  0.437000, -5.915500
  0.439000, -5.852200
  0.441000, -5.786100
  0.443000, -5.717200
  0.445000, -5.645500
  0.447000, -5.571600
  0.449000, -5.495700
  0.451000, -5.417800
  0.453000, -5.338200
  0.455000, -5.256900
  0.457000, -5.173700
  0.459000, -5.089100
  0.461000, -5.003100
  0.463000, -4.915700
  0.465000, -4.827300
  0.467000, -4.737800
  0.469000, -4.647300
  0.471000, -4.555800
  0.473000, -4.463300
  0.475000, -4.369900
  0.477000, -4.275800
  0.479000, -4.181400
  0.481000, -4.086500
  0.483000, -3.990900
  0.485000, -3.895000
  0.487000, -3.798800
  0.489000, -3.702100
  0.491000, -3.605100
  0.493000, -3.507800
  0.495000, -3.410500
  0.497000, -3.313200
  0.499000, -3.216000
  0.501000, -3.118700
  0.503000, -3.021400
  0.505000, -2.924400
  0.507000, -2.827800
  0.509000, -2.731500
  0.511000, -2.635600
  0.513000, -2.540100
  0.515000, -2.445200
  0.517000, -2.350700
  0.519000, -2.256800
  0.521000, -2.163700
  0.523000, -2.071500
  0.525000, -1.980200
  0.527000, -1.889800
  0.529000, -1.800600
  0.531000, -1.712400
  0.533000, -1.625400
  0.535000, -1.539600
  0.537000, -1.455000
  0.539000, -1.371700
  0.541000, -1.289900
  0.543000, -1.209500
  0.545000, -1.131000
  0.547000, -1.054300
  0.549000, -0.978900
  0.551000, -0.905100
  0.553000, -0.833100
  0.555000, -0.763000
  0.557000, -0.694800
  0.559000, -0.628700
  0.561000, -0.564600
  0.563000, -0.502400
  0.565000, -0.442600
  0.567000, -0.385000
  0.569000, -0.329300
  0.571000, -0.275700
  0.573000, -0.224500
  0.575000, -0.175500
  0.577000, -0.128800
  0.579000, -0.084300
  0.581000, -0.042400
  0.583000, -0.002800
  0.585000,  0.034700
  0.587000,  0.069700
  0.589000,  0.102300
  0.591000,  0.132500
  0.593000,  0.160200
  0.595000,  0.185400
  0.597000,  0.208200
  0.599000,  0.228900
  0.601000,  0.247300
  0.603000,  0.263400
  0.605000,  0.277000
  0.607000,  0.288400
  0.609000,  0.297800
  0.611000,  0.304800
  0.613000,  0.309700
  0.615000,  0.312400
  0.617000,  0.313200
  0.619000,  0.312000
  0.621000,  0.308700
  0.623000,  0.303500
  0.625000,  0.296500
  0.627000,  0.287600
  0.629000,  0.277100
  0.631000,  0.264900
  0.633000,  0.251100
  0.635000,  0.235900
  0.637000,  0.219300
  0.639000,  0.201400
  0.641000,  0.182100
  0.643000,  0.161800
  0.645000,  0.140200
  0.647000,  0.117500
  0.649000,  0.093600
  0.651000,  0.068800
  0.653000,  0.043100
  0.655000,  0.016900
  0.657000, -0.009600
  0.659000, -0.037000
  0.661000, -0.065000
  0.663000, -0.093300
  0.665000, -0.122100
  0.667000, -0.151200
  0.669000, -0.180400
  0.671000, -0.209800
  0.673000, -0.239300
  0.675000, -0.268500
  0.677000, -0.297800
  0.679000, -0.326900
  0.681000, -0.355700
  0.683000, -0.384300
  0.685000, -0.412500
  0.687000, -0.440300
  0.689000, -0.467700
  0.691000, -0.494700
  0.693000, -0.521100
  0.695000, -0.546800
  0.697000, -0.571800
  0.699000, -0.596100
  0.701000, -0.619800
  0.703000, -0.642600
  0.705000, -0.664600
  0.707000, -0.685700
  0.709000, -0.705900
  0.711000, -0.725300
  0.713000, -0.743700
  0.715000, -0.761000
  0.717000, -0.777300
  0.719000, -0.792600
  0.721000, -0.806900
  0.723000, -0.820100
  0.725000, -0.832300
  0.727000, -0.843500
  0.729000, -0.853500
  0.731000, -0.862400
  0.733000, -0.870400
  0.735000, -0.877300
  0.737000, -0.883100
  0.739000, -0.887700
  0.741000, -0.891300
  0.743000, -0.894000
  0.745000, -0.895600
  0.747000, -0.896100
  0.749000, -0.895600
  0.751000, -0.894200
  0.753000, -0.891900
  0.755000, -0.888600
  0.757000, -0.884400
  0.759000, -0.879500
  0.761000, -0.873500
  0.763000, -0.866700
  0.765000, -0.859200
  0.767000, -0.850900
  0.769000, -0.841800
  0.771000, -0.832100
  0.773000, -0.821500
  0.775000, -0.810400
  0.777000, -0.798800
  0.779000, -0.786500
  0.781000, -0.773800
  0.783000, -0.760500
  0.785000, -0.746700
  0.787000, -0.732300
  0.789000, -0.717700
  0.791000, -0.702800
  0.793000, -0.687400
  0.795000, -0.671700
  0.797000, -0.655700
  0.799000, -0.639500
  0.801000, -0.623100
  0.803000, -0.606500
  0.805000, -0.589500
  0.807000, -0.572300
  0.809000, -0.555100
  0.811000, -0.537900
  0.813000, -0.520600
  0.815000, -0.503100
  0.817000, -0.485400
  0.819000, -0.468000
  0.821000, -0.450700
  0.823000, -0.433200
  0.825000, -0.416000
  0.827000, -0.399000
  0.829000, -0.381900
  0.831000, -0.364900
  0.833000, -0.347900
  0.835000, -0.331200
  0.837000, -0.314600
  0.839000, -0.298300
  0.841000, -0.282300
  0.843000, -0.266400
  0.845000, -0.250800
  0.847000, -0.235400
  0.849000, -0.220300
  0.851000, -0.205200
  0.853000, -0.190500
  0.855000, -0.176200
  0.857000, -0.162100
  0.859000, -0.148200
  0.861000, -0.134700
  0.863000, -0.121600
  0.865000, -0.108900
  0.867000, -0.096500
  0.869000, -0.084400
  0.871000, -0.072800
  0.873000, -0.061600
  0.875000, -0.050700
  0.877000, -0.040200
  0.879000, -0.030200
  0.881000, -0.020500
  0.883000, -0.011200
  0.885000, -0.002500
  0.887000,  0.005800
  0.889000,  0.013800
  0.891000,  0.021400
  0.893000,  0.028400
  0.895000,  0.035100
  0.897000,  0.041400
  0.899000,  0.047200
  0.901000,  0.052600
  0.903000,  0.057500
  0.905000,  0.062100
  0.907000,  0.066100
  0.909000,  0.069700
  0.911000,  0.072800
  0.913000,  0.075600
  0.915000,  0.077900
  0.917000,  0.079700
  0.919000,  0.081200
  0.921000,  0.082300
  0.923000,  0.082900
  0.925000,  0.083200
  0.927000,  0.083200
  0.929000,  0.082600
  0.931000,  0.081600
  0.933000,  0.080300
  0.935000,  0.078700
  0.937000,  0.076800
  0.939000,  0.074500
  0.941000,  0.071900
  0.943000,  0.069000
  0.945000,  0.065800
  0.947000,  0.062400
  0.949000,  0.058700
  0.951000,  0.054700
  0.953000,  0.050500
  0.955000,  0.046100
  0.957000,  0.041300
  0.959000,  0.036400
  0.961000,  0.031300
  0.963000,  0.026100
  0.965000,  0.020600
  0.967000,  0.015000
  0.969000,  0.009300
  0.971000,  0.003500
  0.973000, -0.002400
  0.975000, -0.008400
  0.977000, -0.014300
  0.979000, -0.020200
  0.981000, -0.026300
  0.983000, -0.032500
  0.985000, -0.038500
  0.987000, -0.044600
  0.989000, -0.050600
  0.991000, -0.056500
  0.993000, -0.062500
  0.995000, -0.068300
  0.997000, -0.074000
  0.999000, -0.079700
  1.001000, -0.085300
  1.003000, -0.090800
  1.005000, -0.096100
  1.007000, -0.101300
  1.009000, -0.106300
  1.011000, -0.111200
  1.013000, -0.115700
  1.015000, -0.120100
  1.017000, -0.124300
  1.019000, -0.128300
  1.021000, -0.132100
  1.023000, -0.135700
  1.025000, -0.139200
  1.027000, -0.142400
  1.029000, -0.145500
  1.031000, -0.148300
  1.033000, -0.151000
  1.035000, -0.153400
  1.037000, -0.155600
  1.039000, -0.157600
  1.041000, -0.159400
  1.043000, -0.160900
  1.045000, -0.162100
  1.047000, -0.163100
  1.049000, -0.163800
  1.051000, -0.164400
  1.053000, -0.164900
  1.055000, -0.165000
  1.057000, -0.164900
  1.059000, -0.164500
  1.061000, -0.163700
  1.063000, -0.162900
  1.065000, -0.161900
  1.067000, -0.160800
  1.069000, -0.159500
  1.071000, -0.158000
  1.073000, -0.156200
  1.075000, -0.154100
  1.077000, -0.152000
  1.079000, -0.149800
  1.081000, -0.147500
  1.083000, -0.145000
  1.085000, -0.142300
  1.087000, -0.139300
  1.089000, -0.136400
  1.091000, -0.133400
  1.093000, -0.130300
  1.095000, -0.127000
  1.097000, -0.123600
  1.099000, -0.120300
  1.101000, -0.116900
  1.103000, -0.113400
  1.105000, -0.109800
  1.107000, -0.106300
  1.109000, -0.102800
  1.111000, -0.099000
  1.113000, -0.095300
  1.115000, -0.091600
  1.117000, -0.087900
  1.119000, -0.084300
  1.121000, -0.080700
  1.123000, -0.077100
  1.125000, -0.073700
  1.127000, -0.070200
  1.129000, -0.066800
  1.131000, -0.063500
  1.133000, -0.060300
  1.135000, -0.057100
  1.137000, -0.054100
  1.139000, -0.051100
  1.141000, -0.048200
  1.143000, -0.045600
  1.145000, -0.043100
  1.147000, -0.040700
  1.149000, -0.038400
  1.151000, -0.036200
  1.153000, -0.034100
  1.155000, -0.032100
  1.157000, -0.030300
  1.159000, -0.028700
  1.161000, -0.027100
  1.163000, -0.025800
  1.165000, -0.024500
  1.167000, -0.023400
  1.169000, -0.022300
  1.171000, -0.021400
  1.173000, -0.020600
  1.175000, -0.020000
  1.177000, -0.019400
  1.179000, -0.018900
  1.181000, -0.018500
  1.183000, -0.018100
  1.185000, -0.017900
  1.187000, -0.017700
  1.189000, -0.017600
  1.191000, -0.017500
  1.193000, -0.017500
  1.195000, -0.017500
  1.197000, -0.017500
  1.199000, -0.017500
  1.201000, -0.017500
  1.203000, -0.017500
  1.205000, -0.017500
  1.207000, -0.017500
  1.209000, -0.017500
  1.211000, -0.017500
  1.213000, -0.017500
  1.215000, -0.017500
  1.217000, -0.017500
  1.219000, -0.017400
  1.221000, -0.017200
  1.223000, -0.017100
  1.225000, -0.016900
  1.227000, -0.016600
  1.229000, -0.016300
  1.231000, -0.016100
  1.233000, -0.015800
  1.235000, -0.015400
  1.237000, -0.014900
  1.239000, -0.014500
  1.241000, -0.014100
  1.243000, -0.013500
  1.245000, -0.012900
  1.247000, -0.012300
  1.249000, -0.011800
  1.251000, -0.011200
  1.253000, -0.010500
  1.255000, -0.009900
  1.257000, -0.009400
  1.259000, -0.008700
  1.261000, -0.008000
  1.263000, -0.007200
  1.265000, -0.006600
  1.267000, -0.005900
  1.269000, -0.005200
  1.271000, -0.004600
  1.273000, -0.003900
  1.275000, -0.003100
  1.277000, -0.002400
  1.279000, -0.001700
  1.281000, -0.001100
  1.283000, -0.000600
  1.285000, -0.000100
  1.287000,  0.000400
  1.289000,  0.000900
  1.291000,  0.001300
  1.293000,  0.001600
  1.295000,  0.002000
  1.297000,  0.002400
  1.299000,  0.002800
  1.301000,  0.003200
  1.303000,  0.003600
  1.305000,  0.003900
  1.307000,  0.004100
  1.309000,  0.004400
  1.311000,  0.004600
  1.313000,  0.004800
  1.315000,  0.004900
  1.317000,  0.005100
  1.319000,  0.005400
  1.321000,  0.005600
  1.323000,  0.005800
  1.325000,  0.006000
  1.327000,  0.006100
  1.329000,  0.006300
  1.331000,  0.006500
  1.333000,  0.006800
  1.335000,  0.007000
  1.337000,  0.007300
  1.339000,  0.007600
  1.341000,  0.007900
  1.343000,  0.008100
  1.345000,  0.008300
  1.347000,  0.008500
  1.349000,  0.008900
  1.351000,  0.009300
  1.353000,  0.009600
  1.355000,  0.010000
  1.357000,  0.010400
  1.359000,  0.010800
  1.361000,  0.011200
  1.363000,  0.011700
  1.365000,  0.012300
  1.367000,  0.012800
  1.369000,  0.013300
  1.371000,  0.013800
  1.373000,  0.014300
  1.375000,  0.014800
  1.377000,  0.015300
  1.379000,  0.015800
  1.381000,  0.016300
  1.383000,  0.016700
  1.385000,  0.017100
  1.387000,  0.017400
  1.389000,  0.017600
  1.391000,  0.017600
  1.393000,  0.017500
  1.395000,  0.017200
  1.397000,  0.016600
  1.399000,  0.015700
