# z (nm)   (kJ/mol)
  0.323000,  2.262800
  0.325000,  1.707200
  0.327000,  1.149200
  0.329000,  0.571300
  0.331000, -0.001800
  0.333000, -0.574400
  0.335000, -1.156600
  0.337000, -1.719100
  0.339000, -2.260600
  0.341000, -2.799400
  0.343000, -3.316400
  0.345000, -3.820600
  0.347000, -4.315800
  0.349000, -4.796200
  0.351000, -5.260100
  0.353000, -5.710900
  0.355000, -6.143100
  0.357000, -6.555000
  0.359000, -6.947000
  0.361000, -7.318800
  0.363000, -7.670700
  0.365000, -8.003100
  0.367000, -8.318800
  0.369000, -8.614200
  0.371000, -8.888600
  0.373000, -9.144100
  0.375000, -9.379300
  0.377000, -9.593100
  0.379000, -9.785700
  0.381000, -9.957500
  0.383000,-10.110300
  0.385000,-10.243700
  0.387000,-10.356700
  0.389000,-10.450900
  0.391000,-10.526600
  0.393000,-10.584500
  0.395000,-10.625000
  0.397000,-10.648700
  0.399000,-10.656200
  0.401000,-10.648400
  0.403000,-10.626100
  0.405000,-10.590200
  0.407000,-10.541100
  0.409000,-10.480300
  0.411000,-10.408900
  0.413000,-10.327400
  0.415000,-10.237200
  0.417000,-10.138100
  0.419000,-10.030400
  0.421000, -9.917800
  0.423000, -9.801600
  0.425000, -9.680600
  0.427000, -9.558000
  0.429000, -9.434800
  0.431000, -9.310800
  0.433000, -9.186800
  0.435000, -9.063200
  0.437000, -8.941500
  0.439000, -8.824100
  0.441000, -8.710200
  0.443000, -8.599000
  0.445000, -8.491900
  0.447000, -8.389200
  0.449000, -8.292000
  0.451000, -8.201600
  0.453000, -8.117600
  0.455000, -8.039000
  0.457000, -7.966400
  0.459000, -7.901600
  0.461000, -7.844100
  0.463000, -7.792800
  0.465000, -7.748300
  0.467000, -7.710300
  0.469000, -7.678900
  0.471000, -7.653600
  0.473000, -7.633900
  0.475000, -7.619900
  0.477000, -7.611000
  0.479000, -7.607300
  0.481000, -7.608400
  0.483000, -7.613300
  0.485000, -7.622100
  0.487000, -7.634300
  0.489000, -7.649400
  0.491000, -7.667200
  0.493000, -7.686700
  0.495000, -7.707300
  0.497000, -7.729100
  0.499000, -7.751400
  0.501000, -7.773900
  0.503000, -7.795900
  0.505000, -7.817900
  0.507000, -7.839500
  0.509000, -7.859400
  0.511000, -7.877600
  0.513000, -7.893900
  0.515000, -7.908000
  0.517000, -7.919600
  0.519000, -7.928900
  0.521000, -7.935600
  0.523000, -7.939400
  0.525000, -7.940100
  0.527000, -7.937300
  0.529000, -7.931300
  0.531000, -7.922300
  0.533000, -7.909700
  0.535000, -7.893500
  0.537000, -7.873800
  0.539000, -7.850800
  0.541000, -7.824400
  0.543000, -7.794400
  0.545000, -7.761300
  0.547000, -7.724900
  0.549000, -7.685300
  0.551000, -7.642900
  0.553000, -7.597600
  0.555000, -7.549500
  0.557000, -7.498700
  0.559000, -7.445200
  0.561000, -7.389100
  0.563000, -7.330700
  0.565000, -7.270300
  0.567000, -7.207900
  0.569000, -7.143400
  0.571000, -7.076900
  0.573000, -7.008500
  0.575000, -6.938400
  0.577000, -6.866900
  0.579000, -6.794000
  0.581000, -6.719800
  0.583000, -6.643900
  0.585000, -6.566800
  0.587000, -6.488500
  0.589000, -6.409300
  0.591000, -6.329000
  0.593000, -6.247600
  0.595000, -6.165400
  0.597000, -6.082500
  0.599000, -5.998400
  0.601000, -5.913400
  0.603000, -5.827900
  0.605000, -5.741600
  0.607000, -5.654700
  0.609000, -5.567100
  0.611000, -5.478800
  0.613000, -5.390100
  0.615000, -5.300900
  0.617000, -5.211200
  0.619000, -5.121100
  0.621000, -5.030500
  0.623000, -4.939400
  0.625000, -4.848000
  0.627000, -4.756300
  0.629000, -4.664100
  0.631000, -4.571700
  0.633000, -4.479100
  0.635000, -4.386200
  0.637000, -4.293300
  0.639000, -4.200300
  0.641000, -4.106900
  0.643000, -4.013400
  0.645000, -3.920200
  0.647000, -3.827100
  0.649000, -3.734400
  0.651000, -3.642000
  0.653000, -3.549900
  0.655000, -3.457800
  0.657000, -3.365900
  0.659000, -3.274800
  0.661000, -3.184400
  0.663000, -3.094400
  0.665000, -3.005000
  0.667000, -2.916300
  0.669000, -2.828500
  0.671000, -2.741500
  0.673000, -2.655400
  0.675000, -2.570400
  0.677000, -2.486600
  0.679000, -2.404000
  0.681000, -2.323000
  0.683000, -2.243400
  0.685000, -2.165100
  0.687000, -2.088300
  0.689000, -2.013400
  0.691000, -1.939800
  0.693000, -1.867800
  0.695000, -1.797300
  0.697000, -1.728800
  0.699000, -1.662300
  0.701000, -1.597600
  0.703000, -1.535000
  0.705000, -1.474500
  0.707000, -1.416000
  0.709000, -1.360100
  0.711000, -1.306400
  0.713000, -1.255000
  0.715000, -1.205600
  0.717000, -1.158200
  0.719000, -1.113100
  0.721000, -1.070500
  0.723000, -1.029900
  0.725000, -0.991300
  0.727000, -0.955200
  0.729000, -0.921300
  0.731000, -0.889800
  0.733000, -0.860700
  0.735000, -0.833800
  0.737000, -0.809200
  0.739000, -0.787000
  0.741000, -0.766800
  0.743000, -0.748700
  0.745000, -0.732800
  0.747000, -0.718900
  0.749000, -0.707100
  0.751000, -0.697400
  0.753000, -0.689400
  0.755000, -0.683300
  0.757000, -0.678900
  0.759000, -0.676200
  0.761000, -0.675400
  0.763000, -0.676200
  0.765000, -0.678300
  0.767000, -0.681900
  0.769000, -0.687000
  0.771000, -0.693500
  0.773000, -0.700900
  0.775000, -0.709300
  0.777000, -0.718800
  0.779000, -0.729200
  0.781000, -0.740300
  0.783000, -0.752200
  0.785000, -0.764800
  0.787000, -0.778200
  0.789000, -0.792100
  0.791000, -0.806300
  0.793000, -0.821000
  0.795000, -0.836500
  0.797000, -0.852000
  0.799000, -0.867600
  0.801000, -0.883400
  0.803000, -0.899300
  0.805000, -0.915000
  0.807000, -0.930600
  0.809000, -0.946100
  0.811000, -0.961500
  0.813000, -0.976600
  0.815000, -0.991200
  0.817000, -1.005500
  0.819000, -1.019600
  0.821000, -1.033100
  0.823000, -1.046000
  0.825000, -1.058400
  0.827000, -1.070300
  0.829000, -1.081500
  0.831000, -1.092200
  0.833000, -1.102000
  0.835000, -1.111300
  0.837000, -1.119900
  0.839000, -1.127600
  0.841000, -1.134600
  0.843000, -1.141000
  0.845000, -1.146800
  0.847000, -1.151700
  0.849000, -1.155700
  0.851000, -1.159100
  0.853000, -1.161800
  0.855000, -1.163800
  0.857000, -1.164900
  0.859000, -1.165200
  0.861000, -1.164900
  0.863000, -1.163800
  0.865000, -1.162000
  0.867000, -1.159700
  0.869000, -1.156700
  0.871000, -1.153100
  0.873000, -1.148800
  0.875000, -1.143900
  0.877000, -1.138300
  0.879000, -1.132100
  0.881000, -1.125400
  0.883000, -1.118300
  0.885000, -1.110500
  0.887000, -1.102200
  0.889000, -1.093300
  0.891000, -1.084000
  0.893000, -1.074300
  0.895000, -1.064100
  0.897000, -1.053500
  0.899000, -1.042500
  0.901000, -1.031000
  0.903000, -1.019100
  0.905000, -1.007100
  0.907000, -0.994600
  0.909000, -0.981800
  0.911000, -0.968500
  0.913000, -0.954900
  0.915000, -0.941200
  0.917000, -0.927200
  0.919000, -0.912800
  0.921000, -0.898200
  0.923000, -0.883600
  0.925000, -0.868600
  0.927000, -0.853400
  0.929000, -0.838000
  0.931000, -0.822200
  0.933000, -0.806400
  0.935000, -0.790300
  0.937000, -0.773900
  0.939000, -0.757600
  0.941000, -0.741100
  0.943000, -0.724400
  0.945000, -0.707700
  0.947000, -0.690900
  0.949000, -0.673800
  0.951000, -0.656800
  0.953000, -0.639800
  0.955000, -0.622900
  0.957000, -0.605800
  0.959000, -0.588800
  0.961000, -0.571900
  0.963000, -0.554900
  0.965000, -0.537900
  0.967000, -0.521000
  0.969000, -0.504100
  0.971000, -0.487400
  0.973000, -0.470800
  0.975000, -0.454500
  0.977000, -0.438100
  0.979000, -0.422000
  0.981000, -0.406200
  0.983000, -0.390500
  0.985000, -0.374900
  0.987000, -0.359600
  0.989000, -0.344600
  0.991000, -0.329900
  0.993000, -0.315500
  0.995000, -0.301200
  0.997000, -0.287300
  0.999000, -0.273800
  1.001000, -0.260600
  1.003000, -0.247800
  1.005000, -0.235400
  1.007000, -0.223400
  1.009000, -0.211700
  1.011000, -0.200500
  1.013000, -0.189700
  1.015000, -0.179300
  1.017000, -0.169400
  1.019000, -0.159900
  1.021000, -0.150900
  1.023000, -0.142300
  1.025000, -0.134300
  1.027000, -0.126700
  1.029000, -0.119500
  1.031000, -0.112800
  1.033000, -0.106600
  1.035000, -0.100800
  1.037000, -0.095600
  1.039000, -0.090700
  1.041000, -0.086200
  1.043000, -0.082200
  1.045000, -0.078600
  1.047000, -0.075300
  1.049000, -0.072600
  1.051000, -0.070300
  1.053000, -0.068400
  1.055000, -0.066800
  1.057000, -0.065600
  1.059000, -0.064800
  1.061000, -0.064400
  1.063000, -0.064200
  1.065000, -0.064300
  1.067000, -0.064600
  1.069000, -0.065300
  1.071000, -0.066200
  1.073000, -0.067500
  1.075000, -0.068900
  1.077000, -0.070600
  1.079000, -0.072400
  1.081000, -0.074500
  1.083000, -0.076800
  1.085000, -0.079200
  1.087000, -0.081700
  1.089000, -0.084300
  1.091000, -0.087100
  1.093000, -0.090000
  1.095000, -0.093000
  1.097000, -0.095900
  1.099000, -0.098900
  1.101000, -0.102000
  1.103000, -0.105100
  1.105000, -0.108200
  1.107000, -0.111300
  1.109000, -0.114300
  1.111000, -0.117300
  1.113000, -0.120300
  1.115000, -0.123300
  1.117000, -0.126300
  1.119000, -0.129300
  1.121000, -0.132400
  1.123000, -0.135300
  1.125000, -0.138000
  1.127000, -0.140800
  1.129000, -0.143300
  1.131000, -0.145700
  1.133000, -0.147900
  1.135000, -0.150200
  1.137000, -0.152300
  1.139000, -0.154400
  1.141000, -0.156400
  1.143000, -0.158100
  1.145000, -0.159600
  1.147000, -0.161000
  1.149000, -0.162200
  1.151000, -0.163200
  1.153000, -0.164000
  1.155000, -0.164700
  1.157000, -0.165300
  1.159000, -0.165600
  1.161000, -0.165700
  1.163000, -0.165800
  1.165000, -0.165600
  1.167000, -0.165100
  1.169000, -0.164600
  1.171000, -0.163900
  1.173000, -0.163100
  1.175000, -0.162000
  1.177000, -0.160700
  1.179000, -0.159400
  1.181000, -0.157900
  1.183000, -0.156100
  1.185000, -0.154100
  1.187000, -0.152200
  1.189000, -0.150100
  1.191000, -0.147700
  1.193000, -0.145100
  1.195000, -0.142400
  1.197000, -0.139700
  1.199000, -0.136900
  1.201000, -0.134000
  1.203000, -0.131000
  1.205000, -0.127800
  1.207000, -0.124600
  1.209000, -0.121300
  1.211000, -0.118000
  1.213000, -0.114700
  1.215000, -0.111200
  1.217000, -0.107800
  1.219000, -0.104200
  1.221000, -0.100600
  1.223000, -0.097100
  1.225000, -0.093500
  1.227000, -0.090000
  1.229000, -0.086600
  1.231000, -0.083100
  1.233000, -0.079700
  1.235000, -0.076200
  1.237000, -0.072800
  1.239000, -0.069500
  1.241000, -0.066100
  1.243000, -0.062800
  1.245000, -0.059700
  1.247000, -0.056700
  1.249000, -0.053700
  1.251000, -0.050900
  1.253000, -0.048000
  1.255000, -0.045300
  1.257000, -0.042700
  1.259000, -0.040100
  1.261000, -0.037700
  1.263000, -0.035300
  1.265000, -0.033100
  1.267000, -0.030900
  1.269000, -0.028800
  1.271000, -0.026600
  1.273000, -0.024500
  1.275000, -0.022500
  1.277000, -0.020600
  1.279000, -0.018700
  1.281000, -0.016900
  1.283000, -0.015100
  1.285000, -0.013300
  1.287000, -0.011500
  1.289000, -0.009800
  1.291000, -0.008000
  1.293000, -0.006300
  1.295000, -0.004500
  1.297000, -0.002800
  1.299000, -0.001000
  1.301000,  0.000700
  1.303000,  0.002500
  1.305000,  0.004200
  1.307000,  0.006100
  1.309000,  0.008100
  1.311000,  0.010000
  1.313000,  0.012100
  1.315000,  0.014200
  1.317000,  0.016400
  1.319000,  0.018800
  1.321000,  0.021300
  1.323000,  0.023800
  1.325000,  0.026200
  1.327000,  0.028800
  1.329000,  0.031500
  1.331000,  0.034000
  1.333000,  0.036800
  1.335000,  0.039600
  1.337000,  0.042500
  1.339000,  0.045500
  1.341000,  0.048700
  1.343000,  0.051800
  1.345000,  0.054900
  1.347000,  0.058000
  1.349000,  0.061200
  1.351000,  0.064500
  1.353000,  0.067800
  1.355000,  0.070800
  1.357000,  0.073900
  1.359000,  0.077000
  1.361000,  0.080200
  1.363000,  0.083300
  1.365000,  0.086200
  1.367000,  0.089100
  1.369000,  0.091800
  1.371000,  0.094300
  1.373000,  0.096800
  1.375000,  0.099100
  1.377000,  0.101300
  1.379000,  0.103300
  1.381000,  0.105100
  1.383000,  0.106600
  1.385000,  0.107900
  1.387000,  0.108800
  1.389000,  0.109300
  1.391000,  0.109600
  1.393000,  0.109600
  1.395000,  0.109200
  1.397000,  0.108400
  1.399000,  0.107000
