# z (nm)   (kJ/mol)
  0.321000,  5.262700
  0.323000,  4.703500
  0.325000,  4.170100
  0.327000,  3.609600
  0.329000,  3.039800
  0.331000,  2.503200
  0.333000,  1.973000
  0.335000,  1.436200
  0.337000,  0.917200
  0.339000,  0.408400
  0.341000, -0.106300
  0.343000, -0.626400
  0.345000, -1.131200
  0.347000, -1.619800
  0.349000, -2.102800
  0.351000, -2.578300
  0.353000, -3.044400
  0.355000, -3.499600
  0.357000, -3.937800
  0.359000, -4.362300
  0.361000, -4.771400
  0.363000, -5.166700
  0.365000, -5.548700
  0.367000, -5.912800
  0.369000, -6.262700
  0.371000, -6.599200
  0.373000, -6.918300
  0.375000, -7.220000
  0.377000, -7.506100
  0.379000, -7.773600
  0.381000, -8.024100
  0.383000, -8.258600
  0.385000, -8.476700
  0.387000, -8.677900
  0.389000, -8.862200
  0.391000, -9.029900
  0.393000, -9.181600
  0.395000, -9.317200
  0.397000, -9.436900
  0.399000, -9.541200
  0.401000, -9.630800
  0.403000, -9.706000
  0.405000, -9.766900
  0.407000, -9.813900
  0.409000, -9.847500
  0.411000, -9.868600
  0.413000, -9.877600
  0.415000, -9.874800
  0.417000, -9.860300
  0.419000, -9.835500
  0.421000, -9.803100
  0.423000, -9.761300
  0.425000, -9.710700
  0.427000, -9.654900
  0.429000, -9.591000
  0.431000, -9.520500
  0.433000, -9.448300
  0.435000, -9.370700
  0.437000, -9.285700
  0.439000, -9.198000
  0.441000, -9.108800
  0.443000, -9.018500
  0.445000, -8.926700
  0.447000, -8.833300
  0.449000, -8.741000
  0.451000, -8.648600
  0.453000, -8.555900
  0.455000, -8.464500
  0.457000, -8.374700
  0.459000, -8.286500
  0.461000, -8.200200
  0.463000, -8.116200
  0.465000, -8.034200
  0.467000, -7.954400
  0.469000, -7.876800
  0.471000, -7.801600
  0.473000, -7.729300
  0.475000, -7.659300
  0.477000, -7.591700
  0.479000, -7.526400
  0.481000, -7.463300
  0.483000, -7.402100
  0.485000, -7.342900
  0.487000, -7.285600
  0.489000, -7.229900
  0.491000, -7.175500
  0.493000, -7.122200
  0.495000, -7.070200
  0.497000, -7.019100
  0.499000, -6.968700
  0.501000, -6.918500
  0.503000, -6.868600
  0.505000, -6.818700
  0.507000, -6.768600
  0.509000, -6.718500
  0.511000, -6.667900
  0.513000, -6.616500
  0.515000, -6.564800
  0.517000, -6.512400
  0.519000, -6.458900
  0.521000, -6.404500
  0.523000, -6.349100
  0.525000, -6.292500
  0.527000, -6.234800
  0.529000, -6.176000
  0.531000, -6.115800
  0.533000, -6.054200
  0.535000, -5.991300
  0.537000, -5.927000
  0.539000, -5.861400
  0.541000, -5.794500
  0.543000, -5.726600
  0.545000, -5.657300
  0.547000, -5.586900
  0.549000, -5.515500
  0.551000, -5.443100
  0.553000, -5.369800
  0.555000, -5.295800
  0.557000, -5.220900
  0.559000, -5.145400
  0.561000, -5.069300
  0.563000, -4.992500
  0.565000, -4.915500
  0.567000, -4.837900
  0.569000, -4.759900
  0.571000, -4.681800
  0.573000, -4.603500
  0.575000, -4.525100
  0.577000, -4.446600
  0.579000, -4.367900
  0.581000, -4.289500
  0.583000, -4.211000
  0.585000, -4.132600
  0.587000, -4.054500
  0.589000, -3.976600
  0.591000, -3.898900
  0.593000, -3.821500
  0.595000, -3.744600
  0.597000, -3.668000
  0.599000, -3.591800
  0.601000, -3.515900
  0.603000, -3.440400
  0.605000, -3.365500
  0.607000, -3.291100
  0.609000, -3.217100
  0.611000, -3.143700
  0.613000, -3.070800
  0.615000, -2.998500
  0.617000, -2.926900
  0.619000, -2.855800
  0.621000, -2.785300
  0.623000, -2.715500
  0.625000, -2.646400
  0.627000, -2.577800
  0.629000, -2.510100
  0.631000, -2.443100
  0.633000, -2.376800
  0.635000, -2.311400
  0.637000, -2.246800
  0.639000, -2.183000
  0.641000, -2.119800
  0.643000, -2.057300
  0.645000, -1.995800
  0.647000, -1.935300
  0.649000, -1.875800
  0.651000, -1.817200
  0.653000, -1.759600
  0.655000, -1.703000
  0.657000, -1.647400
  0.659000, -1.592800
  0.661000, -1.539200
  0.663000, -1.486800
  0.665000, -1.435500
  0.667000, -1.385400
  0.669000, -1.336400
  0.671000, -1.288700
  0.673000, -1.242300
  0.675000, -1.197000
  0.677000, -1.152800
  0.679000, -1.110100
  0.681000, -1.068900
  0.683000, -1.029100
  0.685000, -0.990700
  0.687000, -0.953700
  0.689000, -0.918100
  0.691000, -0.883900
  0.693000, -0.851300
  0.695000, -0.820200
  0.697000, -0.790600
  0.699000, -0.762600
  0.701000, -0.735900
  0.703000, -0.710700
  0.705000, -0.687000
  0.707000, -0.664700
  0.709000, -0.644100
  0.711000, -0.625100
  0.713000, -0.607400
  0.715000, -0.591100
  0.717000, -0.576300
  0.719000, -0.563000
  0.721000, -0.551000
  0.723000, -0.540400
  0.725000, -0.530900
  0.727000, -0.522700
  0.729000, -0.515800
  0.731000, -0.510200
  0.733000, -0.505800
  0.735000, -0.502500
  0.737000, -0.500300
  0.739000, -0.499100
  0.741000, -0.499100
  0.743000, -0.499900
  0.745000, -0.501400
  0.747000, -0.503800
  0.749000, -0.506900
  0.751000, -0.511000
  0.753000, -0.516000
  0.755000, -0.521300
  0.757000, -0.526900
  0.759000, -0.532800
  0.761000, -0.539000
  0.763000, -0.545700
  0.765000, -0.552800
  0.767000, -0.560200
  0.769000, -0.567800
  0.771000, -0.575400
  0.773000, -0.583100
  0.775000, -0.590800
  0.777000, -0.598300
  0.779000, -0.605800
  0.781000, -0.612900
  0.783000, -0.619900
  0.785000, -0.626800
  0.787000, -0.633400
  0.789000, -0.639500
  0.791000, -0.645200
  0.793000, -0.650500
  0.795000, -0.655300
  0.797000, -0.659600
  0.799000, -0.663400
  0.801000, -0.666600
  0.803000, -0.669200
  0.805000, -0.671200
  0.807000, -0.672700
  0.809000, -0.673600
  0.811000, -0.673800
  0.813000, -0.673200
  0.815000, -0.672000
  0.817000, -0.670200
  0.819000, -0.667800
  0.821000, -0.664700
  0.823000, -0.661000
  0.825000, -0.656700
  0.827000, -0.651800
  0.829000, -0.646200
  0.831000, -0.640100
  0.833000, -0.633300
  0.835000, -0.626000
  0.837000, -0.618100
  0.839000, -0.609600
  0.841000, -0.600500
  0.843000, -0.590900
  0.845000, -0.580800
  0.847000, -0.570200
  0.849000, -0.559300
  0.851000, -0.547800
  0.853000, -0.536000
  0.855000, -0.523900
  0.857000, -0.511400
  0.859000, -0.498700
  0.861000, -0.485800
  0.863000, -0.472800
  0.865000, -0.459500
  0.867000, -0.446000
  0.869000, -0.432300
  0.871000, -0.418400
  0.873000, -0.404500
  0.875000, -0.390600
  0.877000, -0.376600
  0.879000, -0.362500
  0.881000, -0.348500
  0.883000, -0.334600
  0.885000, -0.320700
  0.887000, -0.306900
  0.889000, -0.293400
  0.891000, -0.280000
  0.893000, -0.266900
  0.895000, -0.253800
  0.897000, -0.241000
  0.899000, -0.228500
  0.901000, -0.216200
  0.903000, -0.204200
  0.905000, -0.192500
  0.907000, -0.181000
  0.909000, -0.169900
  0.911000, -0.159000
  0.913000, -0.148400
  0.915000, -0.138100
  0.917000, -0.128400
  0.919000, -0.118900
  0.921000, -0.109800
  0.923000, -0.101100
  0.925000, -0.092800
  0.927000, -0.084600
  0.929000, -0.076700
  0.931000, -0.069200
  0.933000, -0.062000
  0.935000, -0.055100
  0.937000, -0.048600
  0.939000, -0.042400
  0.941000, -0.036500
  0.943000, -0.030900
  0.945000, -0.025500
  0.947000, -0.020300
  0.949000, -0.015500
  0.951000, -0.010800
  0.953000, -0.006300
  0.955000, -0.002100
  0.957000,  0.002000
  0.959000,  0.005800
  0.961000,  0.009400
  0.963000,  0.012800
  0.965000,  0.016000
  0.967000,  0.019100
  0.969000,  0.022000
  0.971000,  0.024700
  0.973000,  0.027200
  0.975000,  0.029600
  0.977000,  0.031900
  0.979000,  0.034000
  0.981000,  0.036000
  0.983000,  0.037900
  0.985000,  0.039700
  0.987000,  0.041300
  0.989000,  0.042800
  0.991000,  0.044200
  0.993000,  0.045400
  0.995000,  0.046600
  0.997000,  0.047600
  0.999000,  0.048400
  1.001000,  0.049100
  1.003000,  0.049700
  1.005000,  0.050300
  1.007000,  0.050700
  1.009000,  0.050800
  1.011000,  0.050800
  1.013000,  0.050700
  1.015000,  0.050400
  1.017000,  0.050100
  1.019000,  0.049600
  1.021000,  0.048800
  1.023000,  0.048000
  1.025000,  0.047000
  1.027000,  0.045900
  1.029000,  0.044700
  1.031000,  0.043300
  1.033000,  0.041700
  1.035000,  0.040100
  1.037000,  0.038300
  1.039000,  0.036400
  1.041000,  0.034300
  1.043000,  0.032100
  1.045000,  0.029800
  1.047000,  0.027400
  1.049000,  0.024900
  1.051000,  0.022300
  1.053000,  0.019600
  1.055000,  0.016700
  1.057000,  0.013800
  1.059000,  0.010900
  1.061000,  0.008000
  1.063000,  0.004900
  1.065000,  0.001700
  1.067000, -0.001600
  1.069000, -0.005000
  1.071000, -0.008300
  1.073000, -0.011700
  1.075000, -0.015100
  1.077000, -0.018400
  1.079000, -0.021800
  1.081000, -0.025300
  1.083000, -0.028700
  1.085000, -0.032200
  1.087000, -0.035600
  1.089000, -0.039000
  1.091000, -0.042300
  1.093000, -0.045600
  1.095000, -0.049000
  1.097000, -0.052200
  1.099000, -0.055300
  1.101000, -0.058400
  1.103000, -0.061600
  1.105000, -0.064700
  1.107000, -0.067700
  1.109000, -0.070600
  1.111000, -0.073400
  1.113000, -0.076100
  1.115000, -0.078600
  1.117000, -0.081000
  1.119000, -0.083400
  1.121000, -0.085500
  1.123000, -0.087600
  1.125000, -0.089600
  1.127000, -0.091400
  1.129000, -0.093100
  1.131000, -0.094600
  1.133000, -0.096000
  1.135000, -0.097200
  1.137000, -0.098300
  1.139000, -0.099200
  1.141000, -0.100100
  1.143000, -0.100700
  1.145000, -0.101200
  1.147000, -0.101500
  1.149000, -0.101600
  1.151000, -0.101600
  1.153000, -0.101500
  1.155000, -0.101300
  1.157000, -0.100900
  1.159000, -0.100200
  1.161000, -0.099400
  1.163000, -0.098500
  1.165000, -0.097400
  1.167000, -0.096300
  1.169000, -0.095100
  1.171000, -0.093700
  1.173000, -0.092300
  1.175000, -0.090900
  1.177000, -0.089300
  1.179000, -0.087700
  1.181000, -0.086100
  1.183000, -0.084500
  1.185000, -0.082900
  1.187000, -0.081200
  1.189000, -0.079500
  1.191000, -0.077800
  1.193000, -0.076100
  1.195000, -0.074500
  1.197000, -0.073000
  1.199000, -0.071400
  1.201000, -0.069800
  1.203000, -0.068300
  1.205000, -0.066800
  1.207000, -0.065400
  1.209000, -0.064000
  1.211000, -0.062700
  1.213000, -0.061400
  1.215000, -0.060200
  1.217000, -0.059000
  1.219000, -0.058000
  1.221000, -0.057000
  1.223000, -0.056000
  1.225000, -0.055200
  1.227000, -0.054400
  1.229000, -0.053600
  1.231000, -0.052800
  1.233000, -0.052000
  1.235000, -0.051300
  1.237000, -0.050600
  1.239000, -0.049900
  1.241000, -0.049200
  1.243000, -0.048500
  1.245000, -0.047800
  1.247000, -0.047000
  1.249000, -0.046200
  1.251000, -0.045400
  1.253000, -0.044500
  1.255000, -0.043700
  1.257000, -0.042800
  1.259000, -0.041900
  1.261000, -0.040800
  1.263000, -0.039700
  1.265000, -0.038500
  1.267000, -0.037100
  1.269000, -0.035600
  1.271000, -0.034100
  1.273000, -0.032500
  1.275000, -0.030900
  1.277000, -0.029200
  1.279000, -0.027400
  1.281000, -0.025400
  1.283000, -0.023500
  1.285000, -0.021400
  1.287000, -0.019200
  1.289000, -0.017000
  1.291000, -0.014700
  1.293000, -0.012300
  1.295000, -0.010000
  1.297000, -0.007600
  1.299000, -0.005100
  1.301000, -0.002600
  1.303000, -0.000200
  1.305000,  0.002300
  1.307000,  0.004800
  1.309000,  0.007300
  1.311000,  0.009800
  1.313000,  0.012400
  1.315000,  0.015000
  1.317000,  0.017400
  1.319000,  0.019900
  1.321000,  0.022300
  1.323000,  0.024700
  1.325000,  0.027200
  1.327000,  0.029600
  1.329000,  0.031900
  1.331000,  0.034000
  1.333000,  0.036200
  1.335000,  0.038300
  1.337000,  0.040300
  1.339000,  0.042300
  1.341000,  0.044200
  1.343000,  0.046100
  1.345000,  0.047700
  1.347000,  0.049400
  1.349000,  0.051000
  1.351000,  0.052500
  1.353000,  0.054100
  1.355000,  0.055500
  1.357000,  0.056800
  1.359000,  0.058100
  1.361000,  0.059300
  1.363000,  0.060500
  1.365000,  0.061600
  1.367000,  0.062500
  1.369000,  0.063400
  1.371000,  0.064100
  1.373000,  0.064600
  1.375000,  0.065100
  1.377000,  0.065500
  1.379000,  0.065800
  1.381000,  0.065800
  1.383000,  0.065700
  1.385000,  0.065500
  1.387000,  0.065000
  1.389000,  0.064400
  1.391000,  0.063500
  1.393000,  0.062400
  1.395000,  0.061000
  1.397000,  0.059400
  1.399000,  0.057400
