# z (nm)   (kJ/mol)
  0.299000, 10.382500
  0.303000,  9.560600
  0.305000,  9.142200
  0.307000,  8.753200
  0.309000,  8.354400
  0.311000,  7.947200
  0.313000,  7.544400
  0.315000,  7.127800
  0.317000,  6.703300
  0.319000,  6.285400
  0.321000,  5.865900
  0.323000,  5.439500
  0.325000,  5.012500
  0.327000,  4.578900
  0.329000,  4.141800
  0.331000,  3.710800
  0.333000,  3.278800
  0.335000,  2.843700
  0.337000,  2.416200
  0.339000,  1.993400
  0.341000,  1.570000
  0.343000,  1.151700
  0.345000,  0.738700
  0.347000,  0.333500
  0.349000, -0.064600
  0.351000, -0.459200
  0.353000, -0.844600
  0.355000, -1.219800
  0.357000, -1.589000
  0.359000, -1.953100
  0.361000, -2.307800
  0.363000, -2.653800
  0.365000, -2.990700
  0.367000, -3.317900
  0.369000, -3.636000
  0.371000, -3.941900
  0.373000, -4.236900
  0.375000, -4.522800
  0.377000, -4.797400
  0.379000, -5.061900
  0.381000, -5.316700
  0.383000, -5.558400
  0.385000, -5.789200
  0.387000, -6.009700
  0.389000, -6.218000
  0.391000, -6.414400
  0.393000, -6.598400
  0.395000, -6.770100
  0.397000, -6.930100
  0.399000, -7.079000
  0.401000, -7.216500
  0.403000, -7.342000
  0.405000, -7.455100
  0.407000, -7.556000
  0.409000, -7.645500
  0.411000, -7.723800
  0.413000, -7.790700
  0.415000, -7.846800
  0.417000, -7.891600
  0.419000, -7.925800
  0.421000, -7.950100
  0.423000, -7.964800
  0.425000, -7.969100
  0.427000, -7.963300
  0.429000, -7.948600
  0.431000, -7.925300
  0.433000, -7.893100
  0.435000, -7.852900
  0.437000, -7.805400
  0.439000, -7.750400
  0.441000, -7.688500
  0.443000, -7.619600
  0.445000, -7.544500
  0.447000, -7.463100
  0.449000, -7.376000
  0.451000, -7.283800
  0.453000, -7.187100
  0.455000, -7.086400
  0.457000, -6.982200
  0.459000, -6.873800
  0.461000, -6.761300
  0.463000, -6.646200
  0.465000, -6.528700
  0.467000, -6.408400
  0.469000, -6.285800
  0.471000, -6.161900
  0.473000, -6.036100
  0.475000, -5.908600
  0.477000, -5.779700
  0.479000, -5.649700
  0.481000, -5.519100
  0.483000, -5.387700
  0.485000, -5.255900
  0.487000, -5.123600
  0.489000, -4.991000
  0.491000, -4.858100
  0.493000, -4.725000
  0.495000, -4.592000
  0.497000, -4.459200
  0.499000, -4.326600
  0.501000, -4.194400
  0.503000, -4.062300
  0.505000, -3.930700
  0.507000, -3.799600
  0.509000, -3.669300
  0.511000, -3.539600
  0.513000, -3.410500
  0.515000, -3.282400
  0.517000, -3.155000
  0.519000, -3.028200
  0.521000, -2.902100
  0.523000, -2.777000
  0.525000, -2.653000
  0.527000, -2.530100
  0.529000, -2.407800
  0.531000, -2.286700
  0.533000, -2.167000
  0.535000, -2.048600
  0.537000, -1.931600
  0.539000, -1.816100
  0.541000, -1.702200
  0.543000, -1.589500
  0.545000, -1.478300
  0.547000, -1.368900
  0.549000, -1.260900
  0.551000, -1.154700
  0.553000, -1.050600
  0.555000, -0.948500
  0.557000, -0.848300
  0.559000, -0.750100
  0.561000, -0.653900
  0.563000, -0.560100
  0.565000, -0.468500
  0.567000, -0.379300
  0.569000, -0.292400
  0.571000, -0.208000
  0.573000, -0.126400
  0.575000, -0.047100
  0.577000,  0.029300
  0.579000,  0.103100
  0.581000,  0.174000
  0.583000,  0.241700
  0.585000,  0.306400
  0.587000,  0.368300
  0.589000,  0.427100
  0.591000,  0.482800
  0.593000,  0.535200
  0.595000,  0.584600
  0.597000,  0.630700
  0.599000,  0.673600
  0.601000,  0.713200
  0.603000,  0.749600
  0.605000,  0.782700
  0.607000,  0.812500
  0.609000,  0.839100
  0.611000,  0.862600
  0.613000,  0.882800
  0.615000,  0.899800
  0.617000,  0.913700
  0.619000,  0.924100
  0.621000,  0.931500
  0.623000,  0.935900
  0.625000,  0.937200
  0.627000,  0.935700
  0.629000,  0.931200
  0.631000,  0.924000
  0.633000,  0.914200
  0.635000,  0.901500
  0.637000,  0.886400
  0.639000,  0.868700
  0.641000,  0.849100
  0.643000,  0.827000
  0.645000,  0.802300
  0.647000,  0.775300
  0.649000,  0.746600
  0.651000,  0.716000
  0.653000,  0.683600
  0.655000,  0.649400
  0.657000,  0.613400
  0.659000,  0.576100
  0.661000,  0.537800
  0.663000,  0.498200
  0.665000,  0.457200
  0.667000,  0.415400
  0.669000,  0.372900
  0.671000,  0.329600
  0.673000,  0.285500
  0.675000,  0.241100
  0.677000,  0.196300
  0.679000,  0.151400
  0.681000,  0.106200
  0.683000,  0.061100
  0.685000,  0.015900
  0.687000, -0.029100
  0.689000, -0.073600
  0.691000, -0.118100
  0.693000, -0.162200
  0.695000, -0.205600
  0.697000, -0.248800
  0.699000, -0.291500
  0.701000, -0.333200
  0.703000, -0.374300
  0.705000, -0.414200
  0.707000, -0.453100
  0.709000, -0.490900
  0.711000, -0.527600
  0.713000, -0.563000
  0.715000, -0.597200
  0.717000, -0.630200
  0.719000, -0.661700
  0.721000, -0.691800
  0.723000, -0.720500
  0.725000, -0.747800
  0.727000, -0.773600
  0.729000, -0.797900
  0.731000, -0.820600
  0.733000, -0.841900
  0.735000, -0.861500
  0.737000, -0.879600
  0.739000, -0.896200
  0.741000, -0.911300
  0.743000, -0.924800
  0.745000, -0.936900
  0.747000, -0.947400
  0.749000, -0.956400
  0.751000, -0.963900
  0.753000, -0.969700
  0.755000, -0.974100
  0.757000, -0.977100
  0.759000, -0.978600
  0.761000, -0.978900
  0.763000, -0.977700
  0.765000, -0.975200
  0.767000, -0.971400
  0.769000, -0.966300
  0.771000, -0.960100
  0.773000, -0.952700
  0.775000, -0.944300
  0.777000, -0.934800
  0.779000, -0.924100
  0.781000, -0.912500
  0.783000, -0.899800
  0.785000, -0.886300
  0.787000, -0.871800
  0.789000, -0.856500
  0.791000, -0.840400
  0.793000, -0.823800
  0.795000, -0.806800
  0.797000, -0.788900
  0.799000, -0.770200
  0.801000, -0.750800
  0.803000, -0.730900
  0.805000, -0.710700
  0.807000, -0.690000
  0.809000, -0.668800
  0.811000, -0.647300
  0.813000, -0.625500
  0.815000, -0.603500
  0.817000, -0.581100
  0.819000, -0.558500
  0.821000, -0.535900
  0.823000, -0.513200
  0.825000, -0.490400
  0.827000, -0.467500
  0.829000, -0.444600
  0.831000, -0.421600
  0.833000, -0.398800
  0.835000, -0.375900
  0.837000, -0.352900
  0.839000, -0.330200
  0.841000, -0.307600
  0.843000, -0.285000
  0.845000, -0.262700
  0.847000, -0.240600
  0.849000, -0.218600
  0.851000, -0.196800
  0.853000, -0.175300
  0.855000, -0.154100
  0.857000, -0.133100
  0.859000, -0.112300
  0.861000, -0.091900
  0.863000, -0.071900
  0.865000, -0.052200
  0.867000, -0.033100
  0.869000, -0.014300
  0.871000,  0.004200
  0.873000,  0.022400
  0.875000,  0.040100
  0.877000,  0.057300
  0.879000,  0.074000
  0.881000,  0.090300
  0.883000,  0.106100
  0.885000,  0.121300
  0.887000,  0.135900
  0.889000,  0.150100
  0.891000,  0.163700
  0.893000,  0.176800
  0.895000,  0.189500
  0.897000,  0.201600
  0.899000,  0.212900
  0.901000,  0.223600
  0.903000,  0.233800
  0.905000,  0.243200
  0.907000,  0.252100
  0.909000,  0.260300
  0.911000,  0.267900
  0.913000,  0.274900
  0.915000,  0.281400
  0.917000,  0.287200
  0.919000,  0.292400
  0.921000,  0.297000
  0.923000,  0.300700
  0.925000,  0.303800
  0.927000,  0.306400
  0.929000,  0.308300
  0.931000,  0.309400
  0.933000,  0.310000
  0.935000,  0.309900
  0.937000,  0.309200
  0.939000,  0.308000
  0.941000,  0.306200
  0.943000,  0.303800
  0.945000,  0.300800
  0.947000,  0.297300
  0.949000,  0.293400
  0.951000,  0.288800
  0.953000,  0.283700
  0.955000,  0.278100
  0.957000,  0.272000
  0.959000,  0.265400
  0.961000,  0.258200
  0.963000,  0.250800
  0.965000,  0.243100
  0.967000,  0.234900
  0.969000,  0.226400
  0.971000,  0.217600
  0.973000,  0.208500
  0.975000,  0.198900
  0.977000,  0.189200
  0.979000,  0.179100
  0.981000,  0.168600
  0.983000,  0.158100
  0.985000,  0.147300
  0.987000,  0.136400
  0.989000,  0.125300
  0.991000,  0.114000
  0.993000,  0.102600
  0.995000,  0.091100
  0.997000,  0.079700
  0.999000,  0.068200
  1.001000,  0.056700
  1.003000,  0.045200
  1.005000,  0.033600
  1.007000,  0.022200
  1.009000,  0.011000
  1.011000, -0.000300
  1.013000, -0.011500
  1.015000, -0.022700
  1.017000, -0.033900
  1.019000, -0.044900
  1.021000, -0.055800
  1.023000, -0.066400
  1.025000, -0.076900
  1.027000, -0.087100
  1.029000, -0.097100
  1.031000, -0.107000
  1.033000, -0.116600
  1.035000, -0.126000
  1.037000, -0.135000
  1.039000, -0.143800
  1.041000, -0.152300
  1.043000, -0.160700
  1.045000, -0.168700
  1.047000, -0.176500
  1.049000, -0.183900
  1.051000, -0.191100
  1.053000, -0.197800
  1.055000, -0.204200
  1.057000, -0.210300
  1.059000, -0.216100
  1.061000, -0.221400
  1.063000, -0.226400
  1.065000, -0.231100
  1.067000, -0.235400
  1.069000, -0.239400
  1.071000, -0.243000
  1.073000, -0.246200
  1.075000, -0.249100
  1.077000, -0.251600
  1.079000, -0.253800
  1.081000, -0.255600
  1.083000, -0.257100
  1.085000, -0.258200
  1.087000, -0.258900
  1.089000, -0.259300
  1.091000, -0.259300
  1.093000, -0.259000
  1.095000, -0.258500
  1.097000, -0.257600
  1.099000, -0.256300
  1.101000, -0.254700
  1.103000, -0.252900
  1.105000, -0.250800
  1.107000, -0.248400
  1.109000, -0.245800
  1.111000, -0.242900
  1.113000, -0.239700
  1.115000, -0.236400
  1.117000, -0.232800
  1.119000, -0.228900
  1.121000, -0.224800
  1.123000, -0.220500
  1.125000, -0.216100
  1.127000, -0.211500
  1.129000, -0.206800
  1.131000, -0.202000
  1.133000, -0.197000
  1.135000, -0.192000
  1.137000, -0.186800
  1.139000, -0.181600
  1.141000, -0.176200
  1.143000, -0.170900
  1.145000, -0.165500
  1.147000, -0.160000
  1.149000, -0.154500
  1.151000, -0.149100
  1.153000, -0.143600
  1.155000, -0.138100
  1.157000, -0.132600
  1.159000, -0.127200
  1.161000, -0.121800
  1.163000, -0.116500
  1.165000, -0.111200
  1.167000, -0.106100
  1.169000, -0.101100
  1.171000, -0.096200
  1.173000, -0.091200
  1.175000, -0.086400
  1.177000, -0.081800
  1.179000, -0.077200
  1.181000, -0.072700
  1.183000, -0.068400
  1.185000, -0.064200
  1.187000, -0.060100
  1.189000, -0.056100
  1.191000, -0.052300
  1.193000, -0.048600
  1.195000, -0.045000
  1.197000, -0.041500
  1.199000, -0.038300
  1.201000, -0.035100
  1.203000, -0.032100
  1.205000, -0.029100
  1.207000, -0.026300
  1.209000, -0.023600
  1.211000, -0.021100
  1.213000, -0.018600
  1.215000, -0.016200
  1.217000, -0.013900
  1.219000, -0.011700
  1.221000, -0.009600
  1.223000, -0.007600
  1.225000, -0.006000
  1.227000, -0.004400
  1.229000, -0.003000
  1.231000, -0.001700
  1.233000, -0.000400
  1.235000,  0.000800
  1.237000,  0.002000
  1.239000,  0.003000
  1.241000,  0.003900
  1.243000,  0.004600
  1.245000,  0.005300
  1.247000,  0.006000
  1.249000,  0.006500
  1.251000,  0.006800
  1.253000,  0.007300
  1.255000,  0.007700
  1.257000,  0.007900
  1.259000,  0.008000
  1.261000,  0.008000
  1.263000,  0.007800
  1.265000,  0.007600
  1.267000,  0.007300
  1.269000,  0.007000
  1.271000,  0.006800
  1.273000,  0.006400
  1.275000,  0.005900
  1.277000,  0.005400
  1.279000,  0.005000
  1.281000,  0.004400
  1.283000,  0.003800
  1.285000,  0.003100
  1.287000,  0.002400
  1.289000,  0.001700
  1.291000,  0.000900
  1.293000,  0.000000
  1.295000, -0.000800
  1.297000, -0.001600
  1.299000, -0.002300
  1.301000, -0.003100
  1.303000, -0.003900
  1.305000, -0.004600
  1.307000, -0.005200
  1.309000, -0.005900
  1.311000, -0.006400
  1.313000, -0.007000
  1.315000, -0.007500
  1.317000, -0.008000
  1.319000, -0.008400
  1.321000, -0.008700
  1.323000, -0.008900
  1.325000, -0.009000
  1.327000, -0.009100
  1.329000, -0.009000
  1.331000, -0.008800
  1.333000, -0.008500
  1.335000, -0.008000
  1.337000, -0.007500
  1.339000, -0.006900
  1.341000, -0.006200
  1.343000, -0.005200
  1.345000, -0.004200
  1.347000, -0.003200
  1.349000, -0.002100
  1.351000, -0.000900
  1.353000,  0.000400
  1.355000,  0.001700
  1.357000,  0.002900
  1.359000,  0.004300
  1.361000,  0.005700
  1.363000,  0.007100
  1.365000,  0.008600
  1.367000,  0.010100
  1.369000,  0.011500
  1.371000,  0.012800
  1.373000,  0.014000
  1.375000,  0.015200
  1.377000,  0.016200
  1.379000,  0.017100
  1.381000,  0.017900
  1.383000,  0.018500
  1.385000,  0.018800
  1.387000,  0.019000
  1.389000,  0.019100
  1.391000,  0.018800
  1.393000,  0.018000
  1.395000,  0.016700
  1.397000,  0.015000
  1.399000,  0.012800
