# z (nm)   (kJ/mol)
  0.0900  265.07986
  0.0920  261.40679
  0.0940  258.23261
  0.0960  255.47384
  0.0980  252.70782
  0.1000  249.86438
  0.1020  247.07770
  0.1040  244.21619
  0.1060  241.32205
  0.1080  238.35795
  0.1100  235.31908
  0.1120  232.18509
  0.1140  228.95075
  0.1160  225.60319
  0.1180  222.14017
  0.1200  218.54743
  0.1220  214.82834
  0.1240  210.97841
  0.1260  206.99562
  0.1280  202.89064
  0.1300  198.67444
  0.1320  194.38091
  0.1340  190.05051
  0.1360  185.72545
  0.1380  181.44439
  0.1400  177.23946
  0.1420  173.12017
  0.1440  169.09104
  0.1460  165.13945
  0.1480  161.25128
  0.1500  157.40768
  0.1520  153.58902
  0.1540  149.78913
  0.1560  146.01797
  0.1580  142.29799
  0.1600  138.65572
  0.1620  135.11572
  0.1640  131.68949
  0.1660  128.37295
  0.1680  125.14950
  0.1700  121.99063
  0.1720  118.87007
  0.1740  115.76450
  0.1760  112.66534
  0.1780  109.57180
  0.1800  106.49509
  0.1820  103.43921
  0.1840  100.42003
  0.1860   97.41596
  0.1880   94.42208
  0.1900   91.42589
  0.1920   88.43608
  0.1940   85.47667
  0.1960   82.57386
  0.1980   79.75394
  0.2000   77.04076
  0.2020   74.42618
  0.2040   71.90045
  0.2060   69.43525
  0.2080   67.00253
  0.2100   64.58494
  0.2120   62.16020
  0.2140   59.73997
  0.2160   57.33199
  0.2180   54.95516
  0.2200   52.62326
  0.2220   50.35119
  0.2240   48.14751
  0.2260   46.00184
  0.2280   43.90707
  0.2300   41.86599
  0.2320   39.86397
  0.2340   37.88549
  0.2360   35.91914
  0.2380   33.96593
  0.2400   32.02555
  0.2420   30.09501
  0.2440   28.18164
  0.2460   26.30009
  0.2480   24.46703
  0.2500   22.68893
  0.2520   20.96991
  0.2540   19.32043
  0.2560   17.74376
  0.2580   16.22404
  0.2600   14.76645
  0.2620   13.35607
  0.2640   11.98376
  0.2660   10.64228
  0.2680    9.33220
  0.2700    8.04004
  0.2720    6.79242
  0.2740    5.59213
  0.2760    4.43582
  0.2780    3.32789
  0.2800    2.26365
  0.2820    1.24697
  0.2840    0.26705
  0.2860   -0.68134
  0.2880   -1.59403
  0.2900   -2.46248
  0.2920   -3.27557
  0.2940   -4.03388
  0.2960   -4.73724
  0.2980   -5.40268
  0.3000   -6.03246
  0.3020   -6.64352
  0.3040   -7.23571
  0.3060   -7.81067
  0.3080   -8.35458
  0.3100   -8.87605
  0.3120   -9.36593
  0.3140   -9.82664
  0.3160  -10.26558
  0.3180  -10.67856
  0.3200  -11.06572
  0.3220  -11.43427
  0.3240  -11.77041
  0.3260  -12.08764
  0.3280  -12.37189
  0.3300  -12.64826
  0.3320  -12.90639
  0.3340  -13.15031
  0.3360  -13.37940
  0.3380  -13.59204
  0.3400  -13.78188
  0.3420  -13.94691
  0.3440  -14.08276
  0.3460  -14.19227
  0.3480  -14.28875
  0.3500  -14.37518
  0.3520  -14.44486
  0.3540  -14.51104
  0.3560  -14.57079
  0.3580  -14.63039
  0.3600  -14.67541
  0.3620  -14.71038
  0.3640  -14.72007
  0.3660  -14.71215
  0.3680  -14.69145
  0.3700  -14.66905
  0.3720  -14.65099
  0.3740  -14.62986
  0.3760  -14.61030
  0.3780  -14.59050
  0.3800  -14.56003
  0.3820  -14.51448
  0.3840  -14.45574
  0.3860  -14.37595
  0.3880  -14.28761
  0.3900  -14.19323
  0.3920  -14.10113
  0.3940  -14.02039
  0.3960  -13.94737
  0.3980  -13.88682
  0.4000  -13.83131
  0.4020  -13.78337
  0.4040  -13.73256
  0.4060  -13.66934
  0.4080  -13.58479
  0.4100  -13.47790
  0.4120  -13.34798
  0.4140  -13.20876
  0.4160  -13.06055
  0.4180  -12.90823
  0.4200  -12.76003
  0.4220  -12.62631
  0.4240  -12.50523
  0.4260  -12.39221
  0.4280  -12.27840
  0.4300  -12.17296
  0.4320  -12.05156
  0.4340  -11.91545
  0.4360  -11.76319
  0.4380  -11.60339
  0.4400  -11.43067
  0.4420  -11.25978
  0.4440  -11.07999
  0.4460  -10.90921
  0.4480  -10.74318
  0.4500  -10.58147
  0.4520  -10.41258
  0.4540  -10.24869
  0.4560  -10.09064
  0.4580   -9.93311
  0.4600   -9.77642
  0.4620   -9.62211
  0.4640   -9.47029
  0.4660   -9.32617
  0.4680   -9.17839
  0.4700   -9.03851
  0.4720   -8.90835
  0.4740   -8.79004
  0.4760   -8.68493
  0.4780   -8.60227
  0.4800   -8.52474
  0.4820   -8.45818
  0.4840   -8.37247
  0.4860   -8.29466
  0.4880   -8.19969
  0.4900   -8.09418
  0.4920   -7.97212
  0.4940   -7.84542
  0.4960   -7.71524
  0.4980   -7.58690
  0.5000   -7.45834
  0.5020   -7.33291
  0.5040   -7.22772
  0.5060   -7.13788
  0.5080   -7.06301
  0.5100   -7.00745
  0.5120   -6.96412
  0.5140   -6.93382
  0.5160   -6.90994
  0.5180   -6.89350
  0.5200   -6.86590
  0.5220   -6.82080
  0.5240   -6.76025
  0.5260   -6.67387
  0.5280   -6.57197
  0.5300   -6.46601
  0.5320   -6.35537
  0.5340   -6.25379
  0.5360   -6.16339
  0.5380   -6.08518
  0.5400   -6.01872
  0.5420   -5.95684
  0.5440   -5.89656
  0.5460   -5.82937
  0.5480   -5.74552
  0.5500   -5.64280
  0.5520   -5.51642
  0.5540   -5.38539
  0.5560   -5.22581
  0.5580   -5.06266
  0.5600   -4.89462
  0.5620   -4.72818
  0.5640   -4.55485
  0.5660   -4.38602
  0.5680   -4.21744
  0.5700   -4.04719
  0.5720   -3.88010
  0.5740   -3.71502
  0.5760   -3.54803
  0.5780   -3.37839
  0.5800   -3.21097
  0.5820   -3.04546
  0.5840   -2.88141
  0.5860   -2.71157
  0.5880   -2.54143
  0.5900   -2.36946
  0.5920   -2.19256
  0.5940   -2.00636
  0.5960   -1.81394
  0.5980   -1.62446
  0.6000   -1.43449
  0.6020   -1.25137
  0.6040   -1.07604
  0.6060   -0.91660
  0.6080   -0.78156
  0.6100   -0.66955
  0.6120   -0.57671
  0.6140   -0.49459
  0.6160   -0.42008
  0.6180   -0.34143
  0.6200   -0.26137
  0.6220   -0.17958
  0.6240   -0.09860
  0.6260   -0.03233
  0.6280    0.02447
  0.6300    0.06612
  0.6320    0.09051
  0.6340    0.10270
  0.6360    0.10706
  0.6380    0.10297
  0.6400    0.08901
  0.6420    0.07563
  0.6440    0.05743
  0.6460    0.04566
  0.6480    0.04120
  0.6500    0.04621
  0.6520    0.04656
  0.6540    0.04960
  0.6560    0.04542
  0.6580    0.02646
  0.6600   -0.00869
  0.6620   -0.05981
  0.6640   -0.12546
  0.6660   -0.20033
  0.6680   -0.28090
  0.6700   -0.36603
  0.6720   -0.44355
  0.6740   -0.52357
  0.6760   -0.58666
  0.6780   -0.63711
  0.6800   -0.67653
  0.6820   -0.71251
  0.6840   -0.74313
  0.6860   -0.78298
  0.6880   -0.82158
  0.6900   -0.86853
  0.6920   -0.91623
  0.6940   -0.97143
  0.6960   -1.02494
  0.6980   -1.07711
  0.7000   -1.12236
  0.7020   -1.16043
  0.7040   -1.18751
  0.7060   -1.20109
  0.7080   -1.20504
  0.7100   -1.19883
  0.7120   -1.18897
  0.7140   -1.18049
  0.7160   -1.17853
  0.7180   -1.18850
  0.7200   -1.20756
  0.7220   -1.23473
  0.7240   -1.26898
  0.7260   -1.30991
  0.7280   -1.34832
  0.7300   -1.38485
  0.7320   -1.40808
  0.7340   -1.41186
  0.7360   -1.40954
  0.7380   -1.38770
  0.7400   -1.36453
  0.7420   -1.34115
  0.7440   -1.31396
  0.7460   -1.29446
  0.7480   -1.28144
  0.7500   -1.28118
  0.7520   -1.28654
  0.7540   -1.30580
  0.7560   -1.33061
  0.7580   -1.35789
  0.7600   -1.39059
  0.7620   -1.42901
  0.7640   -1.44839
  0.7660   -1.45758
  0.7680   -1.44406
  0.7700   -1.42001
  0.7720   -1.38531
  0.7740   -1.33858
  0.7760   -1.28688
  0.7780   -1.23070
  0.7800   -1.18526
  0.7820   -1.14893
  0.7840   -1.12090
  0.7860   -1.11446
  0.7880   -1.11628
  0.7900   -1.13378
  0.7920   -1.15892
  0.7940   -1.18133
  0.7960   -1.19566
  0.7980   -1.19706
  0.8000   -1.17734
  0.8020   -1.13639
  0.8040   -1.07455
  0.8060   -1.01000
  0.8080   -0.94844
  0.8100   -0.88629
  0.8120   -0.83312
  0.8140   -0.79239
  0.8160   -0.76456
  0.8180   -0.74730
  0.8200   -0.72420
  0.8220   -0.71530
  0.8240   -0.71018
  0.8260   -0.70756
  0.8280   -0.70848
  0.8300   -0.71246
  0.8320   -0.72832
  0.8340   -0.74302
  0.8360   -0.76077
  0.8380   -0.77550
  0.8400   -0.77966
  0.8420   -0.76794
  0.8440   -0.73728
  0.8460   -0.68718
  0.8480   -0.62353
  0.8500   -0.55118
  0.8520   -0.47550
  0.8540   -0.40896
  0.8560   -0.35287
  0.8580   -0.31598
  0.8600   -0.29771
  0.8620   -0.29406
  0.8640   -0.29499
  0.8660   -0.29485
  0.8680   -0.28115
  0.8700   -0.25723
  0.8720   -0.22977
  0.8740   -0.18855
  0.8760   -0.14659
  0.8780   -0.10683
  0.8800   -0.07076
  0.8820   -0.04106
  0.8840   -0.00639
  0.8860    0.01623
  0.8880    0.03182
  0.8900    0.04170
  0.8920    0.05726
  0.8940    0.06442
  0.8960    0.07941
  0.8980    0.10254
  0.9000    0.13762
  0.9020    0.16903
  0.9040    0.20116
  0.9060    0.23671
  0.9080    0.26727
  0.9100    0.28939
  0.9120    0.29743
  0.9140    0.29866
  0.9160    0.28464
  0.9180    0.26424
  0.9200    0.24482
  0.9220    0.21931
  0.9240    0.19162
  0.9260    0.16170
  0.9280    0.14096
  0.9300    0.13061
  0.9320    0.12371
  0.9340    0.12642
  0.9360    0.13449
  0.9380    0.14645
  0.9400    0.16200
  0.9420    0.17637
  0.9440    0.18666
  0.9460    0.19398
  0.9480    0.19098
  0.9500    0.17875
  0.9520    0.16333
  0.9540    0.12774
  0.9560    0.08526
  0.9580    0.03370
  0.9600   -0.02339
  0.9620   -0.08103
  0.9640   -0.13787
  0.9660   -0.19478
  0.9680   -0.23417
  0.9700   -0.26708
  0.9720   -0.28337
  0.9740   -0.27888
  0.9760   -0.25933
  0.9780   -0.23041
  0.9800   -0.19087
  0.9820   -0.15721
  0.9840   -0.13501
  0.9860   -0.13359
  0.9880   -0.16528
  0.9900   -0.22908
  0.9920   -0.31718
  0.9940   -0.41924
  0.9960   -0.50962
  0.9980   -0.57325
  1.0000   -0.60678
