# z (nm)   (kJ/mol)
  0.042000,282.582990
  0.044000,279.086750
  0.046000,276.032770
  0.048000,273.236070
  0.050000,270.502260
  0.052000,267.657340
  0.054000,264.882510
  0.056000,262.128780
  0.058000,259.336310
  0.060000,256.524810
  0.062000,253.681580
  0.064000,250.772960
  0.066000,247.814430
  0.068000,244.785250
  0.070000,241.675980
  0.072000,238.485560
  0.074000,235.203580
  0.076000,231.825270
  0.078000,228.360560
  0.080000,224.798620
  0.082000,221.145990
  0.084000,217.403050
  0.086000,213.583420
  0.088000,209.691470
  0.090000,205.734650
  0.092000,201.732170
  0.094000,197.696820
  0.096000,193.665330
  0.098000,189.651910
  0.100000,185.688700
  0.102000,181.784310
  0.104000,177.958620
  0.106000,174.205690
  0.108000,170.525270
  0.110000,166.900960
  0.112000,163.323930
  0.114000,159.776130
  0.116000,156.254450
  0.118000,152.756850
  0.120000,149.292150
  0.122000,145.861500
  0.124000,142.490840
  0.126000,139.182260
  0.128000,135.937630
  0.130000,132.754300
  0.132000,129.647040
  0.134000,126.596390
  0.136000,123.596080
  0.138000,120.636020
  0.140000,117.714530
  0.142000,114.818490
  0.144000,111.943320
  0.146000,109.091590
  0.148000,106.264440
  0.150000,103.459650
  0.152000,100.690520
  0.154000, 97.954510
  0.156000, 95.257050
  0.158000, 92.595610
  0.160000, 89.974680
  0.162000, 87.386030
  0.164000, 84.832990
  0.166000, 82.306810
  0.168000, 79.806910
  0.170000, 77.332340
  0.172000, 74.882260
  0.174000, 72.456310
  0.176000, 70.068690
  0.178000, 67.725800
  0.180000, 65.431760
  0.182000, 63.189520
  0.184000, 61.002930
  0.186000, 58.878170
  0.188000, 56.801170
  0.190000, 54.782210
  0.192000, 52.818210
  0.194000, 50.897820
  0.196000, 49.023040
  0.198000, 47.192400
  0.200000, 45.403340
  0.202000, 43.649830
  0.204000, 41.933560
  0.206000, 40.250930
  0.208000, 38.607500
  0.210000, 36.998130
  0.212000, 35.427930
  0.214000, 33.897710
  0.216000, 32.409270
  0.218000, 30.964680
  0.220000, 29.559600
  0.222000, 28.191210
  0.224000, 26.875210
  0.226000, 25.606520
  0.228000, 24.377720
  0.230000, 23.192150
  0.232000, 22.050340
  0.234000, 20.944280
  0.236000, 19.877010
  0.238000, 18.847110
  0.240000, 17.842480
  0.242000, 16.872220
  0.244000, 15.936270
  0.246000, 15.039490
  0.248000, 14.176510
  0.250000, 13.339980
  0.252000, 12.539890
  0.254000, 11.779050
  0.256000, 11.053830
  0.258000, 10.360410
  0.260000,  9.694980
  0.262000,  9.063700
  0.264000,  8.456060
  0.266000,  7.876940
  0.268000,  7.318090
  0.270000,  6.794940
  0.272000,  6.296520
  0.274000,  5.829130
  0.276000,  5.385730
  0.278000,  4.963480
  0.280000,  4.567410
  0.282000,  4.192950
  0.284000,  3.840480
  0.286000,  3.501630
  0.288000,  3.174500
  0.290000,  2.864080
  0.292000,  2.562440
  0.294000,  2.270920
  0.296000,  1.987830
  0.298000,  1.715070
  0.300000,  1.449740
  0.302000,  1.197490
  0.304000,  0.952920
  0.306000,  0.722480
  0.308000,  0.492560
  0.310000,  0.278740
  0.312000,  0.078370
  0.314000, -0.116670
  0.316000, -0.309120
  0.318000, -0.488480
  0.320000, -0.664370
  0.322000, -0.835120
  0.324000, -0.993680
  0.326000, -1.148130
  0.328000, -1.297020
  0.330000, -1.438060
  0.332000, -1.573320
  0.334000, -1.703800
  0.336000, -1.821860
  0.338000, -1.935720
  0.340000, -2.039120
  0.342000, -2.137250
  0.344000, -2.217680
  0.346000, -2.292540
  0.348000, -2.355330
  0.350000, -2.407540
  0.352000, -2.450610
  0.354000, -2.484240
  0.356000, -2.503930
  0.358000, -2.518120
  0.360000, -2.515590
  0.362000, -2.506170
  0.364000, -2.482730
  0.366000, -2.450050
  0.368000, -2.406690
  0.370000, -2.356710
  0.372000, -2.300110
  0.374000, -2.234140
  0.376000, -2.159570
  0.378000, -2.078600
  0.380000, -1.989650
  0.382000, -1.893590
  0.384000, -1.793490
  0.386000, -1.689580
  0.388000, -1.577010
  0.390000, -1.460330
  0.392000, -1.337960
  0.394000, -1.207510
  0.396000, -1.070600
  0.398000, -0.935100
  0.400000, -0.797380
  0.402000, -0.649660
  0.404000, -0.494990
  0.406000, -0.343450
  0.408000, -0.191130
  0.410000, -0.040360
  0.412000,  0.113240
  0.414000,  0.268580
  0.416000,  0.424930
  0.418000,  0.570210
  0.420000,  0.730050
  0.422000,  0.883440
  0.424000,  1.033720
  0.426000,  1.184920
  0.428000,  1.336040
  0.430000,  1.485990
  0.432000,  1.628460
  0.434000,  1.775010
  0.436000,  1.915850
  0.438000,  2.057860
  0.440000,  2.195110
  0.442000,  2.327040
  0.444000,  2.457050
  0.446000,  2.588020
  0.448000,  2.710900
  0.450000,  2.839630
  0.452000,  2.962090
  0.454000,  3.082560
  0.456000,  3.200270
  0.458000,  3.317390
  0.460000,  3.433240
  0.462000,  3.541870
  0.464000,  3.655150
  0.466000,  3.758750
  0.468000,  3.854640
  0.470000,  3.946630
  0.472000,  4.035220
  0.474000,  4.116540
  0.476000,  4.190810
  0.478000,  4.263490
  0.480000,  4.330150
  0.482000,  4.395540
  0.484000,  4.454570
  0.486000,  4.507910
  0.488000,  4.558440
  0.490000,  4.610080
  0.492000,  4.658320
  0.494000,  4.694810
  0.496000,  4.731200
  0.498000,  4.763140
  0.500000,  4.791920
  0.502000,  4.819950
  0.504000,  4.847910
  0.506000,  4.869840
  0.508000,  4.892510
  0.510000,  4.907370
  0.512000,  4.920870
  0.514000,  4.924580
  0.516000,  4.924040
  0.518000,  4.918640
  0.520000,  4.903070
  0.522000,  4.887520
  0.524000,  4.871790
  0.526000,  4.840440
  0.528000,  4.810140
  0.530000,  4.775040
  0.532000,  4.739790
  0.534000,  4.693800
  0.536000,  4.645300
  0.538000,  4.596020
  0.540000,  4.545880
  0.542000,  4.487200
  0.544000,  4.426950
  0.546000,  4.361480
  0.548000,  4.289890
  0.550000,  4.214210
  0.552000,  4.138950
  0.554000,  4.060320
  0.556000,  3.971600
  0.558000,  3.878770
  0.560000,  3.786370
  0.562000,  3.688940
  0.564000,  3.589120
  0.566000,  3.492120
  0.568000,  3.390510
  0.570000,  3.284070
  0.572000,  3.175380
  0.574000,  3.070070
  0.576000,  2.959330
  0.578000,  2.845840
  0.580000,  2.733170
  0.582000,  2.619560
  0.584000,  2.509220
  0.586000,  2.399520
  0.588000,  2.292750
  0.590000,  2.180360
  0.592000,  2.075470
  0.594000,  1.967910
  0.596000,  1.867320
  0.598000,  1.763800
  0.600000,  1.662740
  0.602000,  1.571310
  0.604000,  1.479650
  0.606000,  1.387240
  0.608000,  1.298750
  0.610000,  1.212320
  0.612000,  1.129830
  0.614000,  1.058900
  0.616000,  0.982880
  0.618000,  0.913900
  0.620000,  0.847760
  0.622000,  0.780620
  0.624000,  0.718950
  0.626000,  0.659180
  0.628000,  0.606420
  0.630000,  0.552110
  0.632000,  0.497260
  0.634000,  0.446680
  0.636000,  0.398190
  0.638000,  0.352070
  0.640000,  0.304800
  0.642000,  0.264180
  0.644000,  0.224890
  0.646000,  0.183120
  0.648000,  0.141270
  0.650000,  0.105130
  0.652000,  0.071230
  0.654000,  0.039030
  0.656000,  0.011540
  0.658000, -0.015890
  0.660000, -0.045060
  0.662000, -0.062520
  0.664000, -0.081020
  0.666000, -0.094450
  0.668000, -0.104410
  0.670000, -0.113470
  0.672000, -0.112170
  0.674000, -0.101660
  0.676000, -0.096770
  0.678000, -0.090090
  0.680000, -0.084150
  0.682000, -0.073430
  0.684000, -0.055460
  0.686000, -0.044450
  0.688000, -0.031790
  0.690000, -0.020350
  0.692000, -0.013330
  0.694000, -0.004480
  0.696000,  0.006300
  0.698000,  0.008020
  0.700000,  0.020550
  0.702000,  0.033810
  0.704000,  0.045150
  0.706000,  0.055330
  0.708000,  0.073020
  0.710000,  0.095220
  0.712000,  0.119130
  0.714000,  0.145040
  0.716000,  0.171990
  0.718000,  0.200120
  0.720000,  0.230560
  0.722000,  0.262140
  0.724000,  0.295760
  0.726000,  0.330160
  0.728000,  0.369350
  0.730000,  0.406760
  0.732000,  0.448560
  0.734000,  0.485170
  0.736000,  0.520190
  0.738000,  0.552100
  0.740000,  0.581560
  0.742000,  0.610140
  0.744000,  0.634150
  0.746000,  0.650630
  0.748000,  0.669820
  0.750000,  0.689770
  0.752000,  0.707620
  0.754000,  0.725460
  0.756000,  0.748240
  0.758000,  0.765590
  0.760000,  0.785810
  0.762000,  0.804130
  0.764000,  0.826780
  0.766000,  0.844080
  0.768000,  0.862220
  0.770000,  0.882200
  0.772000,  0.901990
  0.774000,  0.915480
  0.776000,  0.929110
  0.778000,  0.941720
  0.780000,  0.953530
  0.782000,  0.960470
  0.784000,  0.967160
  0.786000,  0.975630
  0.788000,  0.979660
  0.790000,  0.983750
  0.792000,  0.986800
  0.794000,  0.991490
  0.796000,  0.990050
  0.798000,  0.989210
  0.800000,  0.988290
  0.802000,  0.988910
  0.804000,  0.989210
  0.806000,  0.988890
  0.808000,  0.990780
  0.810000,  0.987040
  0.812000,  0.986940
  0.814000,  0.994050
  0.816000,  0.993060
  0.818000,  0.993260
  0.820000,  0.991000
  0.822000,  0.984010
  0.824000,  0.976460
  0.826000,  0.973410
  0.828000,  0.966320
  0.830000,  0.958610
  0.832000,  0.945600
  0.834000,  0.929170
  0.836000,  0.915060
  0.838000,  0.901250
  0.840000,  0.883420
  0.842000,  0.863310
  0.844000,  0.848750
  0.846000,  0.830540
  0.848000,  0.805460
  0.850000,  0.777490
  0.852000,  0.752850
  0.854000,  0.724660
  0.856000,  0.693750
  0.858000,  0.665200
  0.860000,  0.636670
  0.862000,  0.605260
  0.864000,  0.573460
  0.866000,  0.543200
  0.868000,  0.518570
  0.870000,  0.487730
  0.872000,  0.456420
  0.874000,  0.430620
  0.876000,  0.399800
  0.878000,  0.377240
  0.880000,  0.348070
  0.882000,  0.322020
  0.884000,  0.298450
  0.886000,  0.268870
  0.888000,  0.245960
  0.890000,  0.224200
  0.892000,  0.201780
  0.894000,  0.179600
  0.896000,  0.159950
  0.898000,  0.142460
  0.900000,  0.126270
  0.902000,  0.115450
  0.904000,  0.101870
  0.906000,  0.091050
  0.908000,  0.080200
  0.910000,  0.068460
  0.912000,  0.060670
  0.914000,  0.051410
  0.916000,  0.049410
  0.918000,  0.043880
  0.920000,  0.039840
  0.922000,  0.038240
  0.924000,  0.035210
  0.926000,  0.028230
  0.928000,  0.024130
  0.930000,  0.016330
  0.932000,  0.006960
  0.934000, -0.003580
  0.936000, -0.007590
  0.938000, -0.013310
  0.940000, -0.018870
  0.942000, -0.022170
  0.944000, -0.024180
  0.946000, -0.026350
  0.948000, -0.022730
  0.950000, -0.022240
  0.952000, -0.026050
  0.954000, -0.022210
  0.956000, -0.016530
  0.958000, -0.014800
  0.960000, -0.012900
  0.962000, -0.013480
  0.964000, -0.017910
  0.966000, -0.016360
  0.968000, -0.016500
  0.970000, -0.023880
  0.972000, -0.026950
  0.974000, -0.033280
  0.976000, -0.039170
  0.978000, -0.042460
  0.980000, -0.043850
  0.982000, -0.044080
  0.984000, -0.043870
  0.986000, -0.044570
  0.988000, -0.043480
  0.990000, -0.039830
  0.992000, -0.038210
  0.994000, -0.033400
  0.996000, -0.025050
  0.998000, -0.010410
  1.000000, -0.001090
