# z (nm)   (kJ/mol)
  0.070000,263.903360
  0.072000,261.680910
  0.074000,259.978020
  0.076000,257.757900
  0.078000,258.379670
  0.080000,255.588110
  0.082000,252.834180
  0.084000,250.424500
  0.086000,247.915580
  0.088000,245.408480
  0.090000,242.866680
  0.092000,240.290150
  0.094000,237.604950
  0.096000,234.796770
  0.098000,231.857970
  0.100000,228.761380
  0.102000,225.495510
  0.104000,222.046870
  0.106000,218.420000
  0.108000,214.614120
  0.110000,210.645430
  0.112000,206.533340
  0.114000,202.298250
  0.116000,197.964810
  0.118000,193.556140
  0.120000,189.076440
  0.122000,184.548090
  0.124000,179.981420
  0.126000,175.396710
  0.128000,170.803060
  0.130000,166.221320
  0.132000,161.684860
  0.134000,157.211690
  0.136000,152.830620
  0.138000,148.553840
  0.140000,144.376310
  0.142000,140.293100
  0.144000,136.295450
  0.146000,132.375030
  0.148000,128.533820
  0.150000,124.788170
  0.152000,121.147570
  0.154000,117.605870
  0.156000,114.120210
  0.158000,110.628250
  0.160000,107.091040
  0.162000,103.507040
  0.164000, 99.930840
  0.166000, 96.442810
  0.168000, 93.094510
  0.170000, 89.904590
  0.172000, 86.837940
  0.174000, 83.847330
  0.176000, 80.878300
  0.178000, 77.899510
  0.180000, 74.903180
  0.182000, 71.902150
  0.184000, 68.923180
  0.186000, 65.999870
  0.188000, 63.167960
  0.190000, 60.421120
  0.192000, 57.755190
  0.194000, 55.142540
  0.196000, 52.576390
  0.198000, 50.047040
  0.200000, 47.569720
  0.202000, 45.161650
  0.204000, 42.850010
  0.206000, 40.635760
  0.208000, 38.506040
  0.210000, 36.428750
  0.212000, 34.364510
  0.214000, 32.281580
  0.216000, 30.191430
  0.218000, 28.117510
  0.220000, 26.104160
  0.222000, 24.178800
  0.224000, 22.351700
  0.226000, 20.588800
  0.228000, 18.878640
  0.230000, 17.199960
  0.232000, 15.557310
  0.234000, 13.954880
  0.236000, 12.404150
  0.238000, 10.906080
  0.240000,  9.468420
  0.242000,  8.092340
  0.244000,  6.773930
  0.246000,  5.496120
  0.248000,  4.257810
  0.250000,  3.040030
  0.252000,  1.850960
  0.254000,  0.680890
  0.256000, -0.459680
  0.258000, -1.557750
  0.260000, -2.599130
  0.262000, -3.574550
  0.264000, -4.491490
  0.266000, -5.342980
  0.268000, -6.141440
  0.270000, -6.893000
  0.272000, -7.611030
  0.274000, -8.303450
  0.276000, -8.977460
  0.278000, -9.623570
  0.280000,-10.248500
  0.282000,-10.848570
  0.284000,-11.414180
  0.286000,-11.938320
  0.288000,-12.417550
  0.290000,-12.848670
  0.292000,-13.230860
  0.294000,-13.578870
  0.296000,-13.900550
  0.298000,-14.207870
  0.300000,-14.492260
  0.302000,-14.756300
  0.304000,-14.998480
  0.306000,-15.224390
  0.308000,-15.438620
  0.310000,-15.642970
  0.312000,-15.836920
  0.314000,-16.028500
  0.316000,-16.210760
  0.318000,-16.361870
  0.320000,-16.485680
  0.322000,-16.577130
  0.324000,-16.625830
  0.326000,-16.637820
  0.328000,-16.634120
  0.330000,-16.622760
  0.332000,-16.627960
  0.334000,-16.660030
  0.336000,-16.715000
  0.338000,-16.775850
  0.340000,-16.827490
  0.342000,-16.854460
  0.344000,-16.836030
  0.346000,-16.779710
  0.348000,-16.692580
  0.350000,-16.581140
  0.352000,-16.441460
  0.354000,-16.271430
  0.356000,-16.061990
  0.358000,-15.863850
  0.360000,-15.737290
  0.362000,-15.790930
  0.364000,-16.030780
  0.366000,-16.317820
  0.368000,-16.400390
  0.370000,-16.110240
  0.372000,-15.539620
  0.374000,-14.939900
  0.376000,-14.533780
  0.378000,-14.356400
  0.380000,-14.338600
  0.382000,-14.368820
  0.384000,-14.363670
  0.386000,-14.311460
  0.388000,-14.203840
  0.390000,-14.038130
  0.392000,-13.835470
  0.394000,-13.603170
  0.396000,-13.350630
  0.398000,-13.092200
  0.400000,-12.829370
  0.402000,-12.569560
  0.404000,-12.319380
  0.406000,-12.089870
  0.408000,-11.882980
  0.410000,-11.692020
  0.412000,-11.514510
  0.414000,-11.347400
  0.416000,-11.181020
  0.418000,-11.003670
  0.420000,-10.819940
  0.422000,-10.612850
  0.424000,-10.382940
  0.426000,-10.131450
  0.428000, -9.864230
  0.430000, -9.591740
  0.432000, -9.321050
  0.434000, -9.051250
  0.436000, -8.811340
  0.438000, -8.594930
  0.440000, -8.392040
  0.442000, -8.209800
  0.444000, -8.033000
  0.446000, -7.863510
  0.448000, -7.689130
  0.450000, -7.508710
  0.452000, -7.328850
  0.454000, -7.154620
  0.456000, -6.976320
  0.458000, -6.813450
  0.460000, -6.661520
  0.462000, -6.513610
  0.464000, -6.378560
  0.466000, -6.261270
  0.468000, -6.154290
  0.470000, -6.058860
  0.472000, -5.970400
  0.474000, -5.884460
  0.476000, -5.792100
  0.478000, -5.687480
  0.480000, -5.575790
  0.482000, -5.453060
  0.484000, -5.340780
  0.486000, -5.235580
  0.488000, -5.140060
  0.490000, -5.060720
  0.492000, -4.994270
  0.494000, -4.916930
  0.496000, -4.836780
  0.498000, -4.746430
  0.500000, -4.642550
  0.502000, -4.544820
  0.504000, -4.446070
  0.506000, -4.367120
  0.508000, -4.303360
  0.510000, -4.248620
  0.512000, -4.203020
  0.514000, -4.164910
  0.516000, -4.125950
  0.518000, -4.073030
  0.520000, -4.013910
  0.522000, -3.946730
  0.524000, -3.872620
  0.526000, -3.793950
  0.528000, -3.731520
  0.530000, -3.675810
  0.532000, -3.629560
  0.534000, -3.593570
  0.536000, -3.560530
  0.538000, -3.516480
  0.540000, -3.461900
  0.542000, -3.386640
  0.544000, -3.295840
  0.546000, -3.194760
  0.548000, -3.088800
  0.550000, -2.990980
  0.552000, -2.916520
  0.554000, -2.855580
  0.556000, -2.818540
  0.558000, -2.794780
  0.560000, -2.782970
  0.562000, -2.765530
  0.564000, -2.743750
  0.566000, -2.711510
  0.568000, -2.672610
  0.570000, -2.636820
  0.572000, -2.597990
  0.574000, -2.578680
  0.576000, -2.570530
  0.578000, -2.560470
  0.580000, -2.548340
  0.582000, -2.524270
  0.584000, -2.485280
  0.586000, -2.430670
  0.588000, -2.348550
  0.590000, -2.278170
  0.592000, -2.209890
  0.594000, -2.158530
  0.596000, -2.117950
  0.598000, -2.098060
  0.600000, -2.088720
  0.602000, -2.074590
  0.604000, -2.050210
  0.606000, -2.000010
  0.608000, -1.921770
  0.610000, -1.816790
  0.612000, -1.693800
  0.614000, -1.562770
  0.616000, -1.453460
  0.618000, -1.383570
  0.620000, -1.357860
  0.622000, -1.371060
  0.624000, -1.431650
  0.626000, -1.505080
  0.628000, -1.583570
  0.630000, -1.644300
  0.632000, -1.672950
  0.634000, -1.671980
  0.636000, -1.659190
  0.638000, -1.640520
  0.640000, -1.633990
  0.642000, -1.664680
  0.644000, -1.724630
  0.646000, -1.812630
  0.648000, -1.917520
  0.650000, -2.033300
  0.652000, -2.151530
  0.654000, -2.250650
  0.656000, -2.359380
  0.658000, -2.449510
  0.660000, -2.534060
  0.662000, -2.605260
  0.664000, -2.677720
  0.666000, -2.737840
  0.668000, -2.796990
  0.670000, -2.860240
  0.672000, -2.922430
  0.674000, -2.989160
  0.676000, -3.056020
  0.678000, -3.122480
  0.680000, -3.186380
  0.682000, -3.236200
  0.684000, -3.273960
  0.686000, -3.283760
  0.688000, -3.268680
  0.690000, -3.235110
  0.692000, -3.183370
  0.694000, -3.127980
  0.696000, -3.073440
  0.698000, -3.024360
  0.700000, -2.986370
  0.702000, -2.958130
  0.704000, -2.915680
  0.706000, -2.860950
  0.708000, -2.785300
  0.710000, -2.688800
  0.712000, -2.593110
  0.714000, -2.500980
  0.716000, -2.429650
  0.718000, -2.379860
  0.720000, -2.345740
  0.722000, -2.319750
  0.724000, -2.287180
  0.726000, -2.247130
  0.728000, -2.190860
  0.730000, -2.126280
  0.732000, -2.054460
  0.734000, -1.975130
  0.736000, -1.905500
  0.738000, -1.837570
  0.740000, -1.770180
  0.742000, -1.704050
  0.744000, -1.640130
  0.746000, -1.581920
  0.748000, -1.515010
  0.750000, -1.447990
  0.752000, -1.376430
  0.754000, -1.310340
  0.756000, -1.240990
  0.758000, -1.177580
  0.760000, -1.120370
  0.762000, -1.057940
  0.764000, -1.007950
  0.766000, -0.955680
  0.768000, -0.909060
  0.770000, -0.860340
  0.772000, -0.805110
  0.774000, -0.747350
  0.776000, -0.700940
  0.778000, -0.656270
  0.780000, -0.613970
  0.782000, -0.583140
  0.784000, -0.569740
  0.786000, -0.564530
  0.788000, -0.550710
  0.790000, -0.525900
  0.792000, -0.482460
  0.794000, -0.428540
  0.796000, -0.366240
  0.798000, -0.316340
  0.800000, -0.288520
  0.802000, -0.290610
  0.804000, -0.313780
  0.806000, -0.361950
  0.808000, -0.412510
  0.810000, -0.463680
  0.812000, -0.507030
  0.814000, -0.538140
  0.816000, -0.549560
  0.818000, -0.545230
  0.820000, -0.525990
  0.822000, -0.497590
  0.824000, -0.463430
  0.826000, -0.431030
  0.828000, -0.397570
  0.830000, -0.373840
  0.832000, -0.352720
  0.834000, -0.338030
  0.836000, -0.328330
  0.838000, -0.314950
  0.840000, -0.303580
  0.842000, -0.285490
  0.844000, -0.261020
  0.846000, -0.226390
  0.848000, -0.200090
  0.850000, -0.178350
  0.852000, -0.156950
  0.854000, -0.139610
  0.856000, -0.122090
  0.858000, -0.113270
  0.860000, -0.098290
  0.862000, -0.080830
  0.864000, -0.051950
  0.866000, -0.030420
  0.868000, -0.008270
  0.870000,  0.007770
  0.872000,  0.014790
  0.874000,  0.026970
  0.876000,  0.015420
  0.878000,  0.005020
  0.880000, -0.009550
  0.882000, -0.015470
  0.884000, -0.008820
  0.886000,  0.008800
  0.888000,  0.040210
  0.890000,  0.082400
  0.892000,  0.126260
  0.894000,  0.165770
  0.896000,  0.192060
  0.898000,  0.202010
  0.900000,  0.202830
  0.902000,  0.175830
  0.904000,  0.150120
  0.906000,  0.116430
  0.908000,  0.081240
  0.910000,  0.042890
  0.912000,  0.011250
  0.914000, -0.010510
  0.916000, -0.017340
  0.918000, -0.014640
  0.920000,  0.007190
  0.922000,  0.036150
  0.924000,  0.065510
  0.926000,  0.097280
  0.928000,  0.113240
  0.930000,  0.119810
  0.932000,  0.114170
  0.934000,  0.109240
  0.936000,  0.093590
  0.938000,  0.084860
  0.940000,  0.073350
  0.942000,  0.067840
  0.944000,  0.068640
  0.946000,  0.072590
  0.948000,  0.081980
  0.950000,  0.089440
  0.952000,  0.094180
  0.954000,  0.096680
  0.956000,  0.082030
  0.958000,  0.072070
  0.960000,  0.054420
  0.962000,  0.039100
  0.964000,  0.026970
  0.966000,  0.024560
  0.968000,  0.023180
  0.970000,  0.028140
  0.972000,  0.026200
  0.974000,  0.019810
  0.976000,  0.016150
  0.978000, -0.001310
  0.980000, -0.038560
  0.982000, -0.076880
  0.984000, -0.118600
  0.986000, -0.163460
  0.988000, -0.202700
  0.990000, -0.236610
  0.992000, -0.272730
  0.994000, -0.297900
  0.996000, -0.322350
  0.998000, -0.339470
  1.000000, -0.363080
