# z (nm)   (kJ/mol)
  0.064000,271.158640
  0.066000,268.819110
  0.068000,265.887450
  0.070000,263.577510
  0.072000,260.914840
  0.074000,258.548770
  0.076000,256.138160
  0.078000,253.763700
  0.080000,251.355480
  0.082000,248.902370
  0.084000,246.412980
  0.086000,243.853060
  0.088000,241.211940
  0.090000,238.462950
  0.092000,235.588390
  0.094000,232.572570
  0.096000,229.404060
  0.098000,226.067960
  0.100000,222.570510
  0.102000,218.912330
  0.104000,215.096650
  0.106000,211.137350
  0.108000,207.050250
  0.110000,202.843520
  0.112000,198.543710
  0.114000,194.176980
  0.116000,189.773540
  0.118000,185.363660
  0.120000,180.995300
  0.122000,176.704180
  0.124000,172.520190
  0.126000,168.467060
  0.128000,164.562200
  0.130000,160.802490
  0.132000,157.197730
  0.134000,153.734880
  0.136000,150.396530
  0.138000,147.156530
  0.140000,143.989660
  0.142000,140.872030
  0.144000,137.777440
  0.146000,134.689090
  0.148000,131.594650
  0.150000,128.495460
  0.152000,125.401490
  0.154000,122.331160
  0.156000,119.303180
  0.158000,116.334000
  0.160000,113.438890
  0.162000,110.619830
  0.164000,107.865620
  0.166000,105.158050
  0.168000,102.469470
  0.170000, 99.779220
  0.172000, 97.059070
  0.174000, 94.309420
  0.176000, 91.532940
  0.178000, 88.750940
  0.180000, 86.001600
  0.182000, 83.328010
  0.184000, 80.772870
  0.186000, 78.349610
  0.188000, 76.057840
  0.190000, 73.873550
  0.192000, 71.764680
  0.194000, 69.695400
  0.196000, 67.641140
  0.198000, 65.591540
  0.200000, 63.551890
  0.202000, 61.533480
  0.204000, 59.555410
  0.206000, 57.627280
  0.208000, 55.748200
  0.210000, 53.921570
  0.212000, 52.139450
  0.214000, 50.402220
  0.216000, 48.709590
  0.218000, 47.054200
  0.220000, 45.433110
  0.222000, 43.864790
  0.224000, 42.338040
  0.226000, 40.851080
  0.228000, 39.395440
  0.230000, 37.968190
  0.232000, 36.579890
  0.234000, 35.232420
  0.236000, 33.947240
  0.238000, 32.717840
  0.240000, 31.539230
  0.242000, 30.408530
  0.244000, 29.298330
  0.246000, 28.209250
  0.248000, 27.121210
  0.250000, 26.039880
  0.252000, 24.972820
  0.254000, 23.939870
  0.256000, 22.960800
  0.258000, 22.040890
  0.260000, 21.189800
  0.262000, 20.402380
  0.264000, 19.661760
  0.266000, 18.963700
  0.268000, 18.291080
  0.270000, 17.636760
  0.272000, 16.990850
  0.274000, 16.351910
  0.276000, 15.728260
  0.278000, 15.113200
  0.280000, 14.521340
  0.282000, 13.945230
  0.284000, 13.389690
  0.286000, 12.863340
  0.288000, 12.375950
  0.290000, 11.930160
  0.292000, 11.512760
  0.294000, 11.123760
  0.296000, 10.764950
  0.298000, 10.424470
  0.300000, 10.102390
  0.302000,  9.791740
  0.304000,  9.486290
  0.306000,  9.190400
  0.308000,  8.902550
  0.310000,  8.619630
  0.312000,  8.341970
  0.314000,  8.084480
  0.316000,  7.846470
  0.318000,  7.627490
  0.320000,  7.419870
  0.322000,  7.217690
  0.324000,  7.023310
  0.326000,  6.836480
  0.328000,  6.650060
  0.330000,  6.461450
  0.332000,  6.278520
  0.334000,  6.097840
  0.336000,  5.915440
  0.338000,  5.737500
  0.340000,  5.562190
  0.342000,  5.395000
  0.344000,  5.228830
  0.346000,  5.065870
  0.348000,  4.897310
  0.350000,  4.728360
  0.352000,  4.562450
  0.354000,  4.398380
  0.356000,  4.241440
  0.358000,  4.091250
  0.360000,  3.944380
  0.362000,  3.803990
  0.364000,  3.673550
  0.366000,  3.545480
  0.368000,  3.424570
  0.370000,  3.307060
  0.372000,  3.190720
  0.374000,  3.076950
  0.376000,  2.953740
  0.378000,  2.836910
  0.380000,  2.725100
  0.382000,  2.620100
  0.384000,  2.521440
  0.386000,  2.439390
  0.388000,  2.362280
  0.390000,  2.300890
  0.392000,  2.257110
  0.394000,  2.224620
  0.396000,  2.202210
  0.398000,  2.179740
  0.400000,  2.149710
  0.402000,  2.104950
  0.404000,  2.041470
  0.406000,  1.964950
  0.408000,  1.879520
  0.410000,  1.776830
  0.412000,  1.677050
  0.414000,  1.593200
  0.416000,  1.518700
  0.418000,  1.466540
  0.420000,  1.434790
  0.422000,  1.412940
  0.424000,  1.409400
  0.426000,  1.400910
  0.428000,  1.385880
  0.430000,  1.361720
  0.432000,  1.325080
  0.434000,  1.266720
  0.436000,  1.198370
  0.438000,  1.123430
  0.440000,  1.038810
  0.442000,  0.952230
  0.444000,  0.865770
  0.446000,  0.779850
  0.448000,  0.698420
  0.450000,  0.625460
  0.452000,  0.555640
  0.454000,  0.489230
  0.456000,  0.422840
  0.458000,  0.364620
  0.460000,  0.311740
  0.462000,  0.261920
  0.464000,  0.217550
  0.466000,  0.183210
  0.468000,  0.150970
  0.470000,  0.125570
  0.472000,  0.105530
  0.474000,  0.090100
  0.476000,  0.068590
  0.478000,  0.048380
  0.480000,  0.027650
  0.482000,  0.025130
  0.484000,  0.038690
  0.486000,  0.069750
  0.488000,  0.114040
  0.490000,  0.171080
  0.492000,  0.237080
  0.494000,  0.308230
  0.496000,  0.369340
  0.498000,  0.432800
  0.500000,  0.493630
  0.502000,  0.556580
  0.504000,  0.634840
  0.506000,  0.712480
  0.508000,  0.805520
  0.510000,  0.907650
  0.512000,  1.012380
  0.514000,  1.113470
  0.516000,  1.202000
  0.518000,  1.276540
  0.520000,  1.337250
  0.522000,  1.385940
  0.524000,  1.429690
  0.526000,  1.478030
  0.528000,  1.519930
  0.530000,  1.547050
  0.532000,  1.544560
  0.534000,  1.501260
  0.536000,  1.417490
  0.538000,  1.314200
  0.540000,  1.182810
  0.542000,  1.041960
  0.544000,  0.910700
  0.546000,  0.793990
  0.548000,  0.689030
  0.550000,  0.591730
  0.552000,  0.502140
  0.554000,  0.404400
  0.556000,  0.299560
  0.558000,  0.184090
  0.560000,  0.063770
  0.562000, -0.069290
  0.564000, -0.211630
  0.566000, -0.348360
  0.568000, -0.493980
  0.570000, -0.633500
  0.572000, -0.762280
  0.574000, -0.868670
  0.576000, -0.973580
  0.578000, -1.056960
  0.580000, -1.133780
  0.582000, -1.207170
  0.584000, -1.279660
  0.586000, -1.360810
  0.588000, -1.449410
  0.590000, -1.543310
  0.592000, -1.636470
  0.594000, -1.727470
  0.596000, -1.810450
  0.598000, -1.875630
  0.600000, -1.929460
  0.602000, -1.958310
  0.604000, -1.973560
  0.606000, -1.978810
  0.608000, -1.977820
  0.610000, -1.978960
  0.612000, -1.983200
  0.614000, -1.995330
  0.616000, -2.016430
  0.618000, -2.045280
  0.620000, -2.071680
  0.622000, -2.106290
  0.624000, -2.129610
  0.626000, -2.145880
  0.628000, -2.151870
  0.630000, -2.146210
  0.632000, -2.131880
  0.634000, -2.103290
  0.636000, -2.075350
  0.638000, -2.040420
  0.640000, -2.007360
  0.642000, -1.980860
  0.644000, -1.953410
  0.646000, -1.945370
  0.648000, -1.932470
  0.650000, -1.931300
  0.652000, -1.929230
  0.654000, -1.937270
  0.656000, -1.943780
  0.658000, -1.942710
  0.660000, -1.929850
  0.662000, -1.908130
  0.664000, -1.875410
  0.666000, -1.831440
  0.668000, -1.789180
  0.670000, -1.750260
  0.672000, -1.714910
  0.674000, -1.681720
  0.676000, -1.662230
  0.678000, -1.637230
  0.680000, -1.613560
  0.682000, -1.581810
  0.684000, -1.540030
  0.686000, -1.491240
  0.688000, -1.438020
  0.690000, -1.382400
  0.692000, -1.334310
  0.694000, -1.275630
  0.696000, -1.228890
  0.698000, -1.180990
  0.700000, -1.138280
  0.702000, -1.100450
  0.704000, -1.065720
  0.706000, -1.028010
  0.708000, -1.001550
  0.710000, -0.970590
  0.712000, -0.934370
  0.714000, -0.887700
  0.716000, -0.838540
  0.718000, -0.782520
  0.720000, -0.724070
  0.722000, -0.663770
  0.724000, -0.615230
  0.726000, -0.572770
  0.728000, -0.535640
  0.730000, -0.518530
  0.732000, -0.506430
  0.734000, -0.494870
  0.736000, -0.483600
  0.738000, -0.472240
  0.740000, -0.451800
  0.742000, -0.421470
  0.744000, -0.388500
  0.746000, -0.353680
  0.748000, -0.322430
  0.750000, -0.290150
  0.752000, -0.264730
  0.754000, -0.240820
  0.756000, -0.221660
  0.758000, -0.196710
  0.760000, -0.171430
  0.762000, -0.150140
  0.764000, -0.118420
  0.766000, -0.088630
  0.768000, -0.066070
  0.770000, -0.044080
  0.772000, -0.024690
  0.774000, -0.005750
  0.776000,  0.004820
  0.778000,  0.005430
  0.780000,  0.008300
  0.782000, -0.002150
  0.784000, -0.013770
  0.786000, -0.021130
  0.788000, -0.031420
  0.790000, -0.035240
  0.792000, -0.032430
  0.794000, -0.022910
  0.796000, -0.011940
  0.798000,  0.009390
  0.800000,  0.025740
  0.802000,  0.042900
  0.804000,  0.062140
  0.806000,  0.068220
  0.808000,  0.075770
  0.810000,  0.069290
  0.812000,  0.057550
  0.814000,  0.040590
  0.816000,  0.016660
  0.818000,  0.001270
  0.820000, -0.002250
  0.822000,  0.003900
  0.824000,  0.018240
  0.826000,  0.044660
  0.828000,  0.067570
  0.830000,  0.098380
  0.832000,  0.124540
  0.834000,  0.136630
  0.836000,  0.151850
  0.838000,  0.148700
  0.840000,  0.136840
  0.842000,  0.117210
  0.844000,  0.094430
  0.846000,  0.070290
  0.848000,  0.042080
  0.850000,  0.006860
  0.852000, -0.027290
  0.854000, -0.053680
  0.856000, -0.081200
  0.858000, -0.106120
  0.860000, -0.116170
  0.862000, -0.127050
  0.864000, -0.122840
  0.866000, -0.125030
  0.868000, -0.119650
  0.870000, -0.099190
  0.872000, -0.082290
  0.874000, -0.072350
  0.876000, -0.068980
  0.878000, -0.064940
  0.880000, -0.059750
  0.882000, -0.063160
  0.884000, -0.067890
  0.886000, -0.070920
  0.888000, -0.066270
  0.890000, -0.053700
  0.892000, -0.050630
  0.894000, -0.042050
  0.896000, -0.034470
  0.898000, -0.028530
  0.900000, -0.020670
  0.902000, -0.013430
  0.904000, -0.006360
  0.906000, -0.001970
  0.908000,  0.013620
  0.910000,  0.027290
  0.912000,  0.040470
  0.914000,  0.058400
  0.916000,  0.076580
  0.918000,  0.090470
  0.920000,  0.095120
  0.922000,  0.096660
  0.924000,  0.092870
  0.926000,  0.086190
  0.928000,  0.072810
  0.930000,  0.065840
  0.932000,  0.059020
  0.934000,  0.052680
  0.936000,  0.046540
  0.938000,  0.048370
  0.940000,  0.053560
  0.942000,  0.051150
  0.944000,  0.044060
  0.946000,  0.034910
  0.948000,  0.024870
  0.950000,  0.009030
  0.952000, -0.004390
  0.954000, -0.024210
  0.956000, -0.042240
  0.958000, -0.064140
  0.960000, -0.078410
  0.962000, -0.092910
  0.964000, -0.093840
  0.966000, -0.103090
  0.968000, -0.101820
  0.970000, -0.099200
  0.972000, -0.094200
  0.974000, -0.091590
  0.976000, -0.082740
  0.978000, -0.069340
  0.980000, -0.058210
  0.982000, -0.040000
  0.984000, -0.028110
  0.986000, -0.015440
  0.988000, -0.006470
  0.990000,  0.003560
  0.992000,  0.002400
  0.994000, -0.000050
  0.996000, -0.000960
  0.998000, -0.014670
  1.000000, -0.018690
