# z (nm)   (kJ/mol)
  0.074000,270.533770
  0.076000,268.010070
  0.078000,265.510660
  0.080000,262.765090
  0.082000,260.267070
  0.084000,257.768860
  0.086000,255.224850
  0.088000,252.416880
  0.090000,249.694730
  0.092000,246.934810
  0.094000,244.114840
  0.096000,241.223090
  0.098000,238.262400
  0.100000,235.202760
  0.102000,232.049350
  0.104000,228.808200
  0.106000,225.480630
  0.108000,222.060590
  0.110000,218.556820
  0.112000,214.974350
  0.114000,211.304070
  0.116000,207.554150
  0.118000,203.729500
  0.120000,199.839910
  0.122000,195.897470
  0.124000,191.920020
  0.126000,187.939900
  0.128000,183.990190
  0.130000,180.098110
  0.132000,176.283200
  0.134000,172.567860
  0.136000,168.953110
  0.138000,165.444460
  0.140000,162.027730
  0.142000,158.697950
  0.144000,155.438530
  0.146000,152.241740
  0.148000,149.093650
  0.150000,145.989070
  0.152000,142.916020
  0.154000,139.867100
  0.156000,136.846340
  0.158000,133.857900
  0.160000,130.913100
  0.162000,128.018510
  0.164000,125.189090
  0.166000,122.434950
  0.168000,119.745960
  0.170000,117.117930
  0.172000,114.537720
  0.174000,111.989280
  0.176000,109.456590
  0.178000,106.930580
  0.180000,104.406510
  0.182000,101.869860
  0.184000, 99.334070
  0.186000, 96.794730
  0.188000, 94.264750
  0.190000, 91.759890
  0.192000, 89.294360
  0.194000, 86.874980
  0.196000, 84.511110
  0.198000, 82.206230
  0.200000, 79.964980
  0.202000, 77.794980
  0.204000, 75.680760
  0.206000, 73.625780
  0.208000, 71.618640
  0.210000, 69.647740
  0.212000, 67.714090
  0.214000, 65.799890
  0.216000, 63.903160
  0.218000, 62.016600
  0.220000, 60.144540
  0.222000, 58.288480
  0.224000, 56.465730
  0.226000, 54.674770
  0.228000, 52.938450
  0.230000, 51.255890
  0.232000, 49.635600
  0.234000, 48.070100
  0.236000, 46.557230
  0.238000, 45.088800
  0.240000, 43.656860
  0.242000, 42.253500
  0.244000, 40.866630
  0.246000, 39.498720
  0.248000, 38.150060
  0.250000, 36.828400
  0.252000, 35.536530
  0.254000, 34.267630
  0.256000, 33.034240
  0.258000, 31.835390
  0.260000, 30.674430
  0.262000, 29.567190
  0.264000, 28.512060
  0.266000, 27.518620
  0.268000, 26.581880
  0.270000, 25.698080
  0.272000, 24.866560
  0.274000, 24.073250
  0.276000, 23.316520
  0.278000, 22.582010
  0.280000, 21.861140
  0.282000, 21.140710
  0.284000, 20.418800
  0.286000, 19.696980
  0.288000, 18.984940
  0.290000, 18.285260
  0.292000, 17.598320
  0.294000, 16.952480
  0.296000, 16.343730
  0.298000, 15.784610
  0.300000, 15.272580
  0.302000, 14.805950
  0.304000, 14.375400
  0.306000, 13.976440
  0.308000, 13.594550
  0.310000, 13.221840
  0.312000, 12.853160
  0.314000, 12.482920
  0.316000, 12.110800
  0.318000, 11.747740
  0.320000, 11.389100
  0.322000, 11.037540
  0.324000, 10.702310
  0.326000, 10.376630
  0.328000, 10.061050
  0.330000,  9.756100
  0.332000,  9.459700
  0.334000,  9.168410
  0.336000,  8.882430
  0.338000,  8.587110
  0.340000,  8.283770
  0.342000,  7.975880
  0.344000,  7.674920
  0.346000,  7.369330
  0.348000,  7.053300
  0.350000,  6.743010
  0.352000,  6.428250
  0.354000,  6.111810
  0.356000,  5.792130
  0.358000,  5.466380
  0.360000,  5.140920
  0.362000,  4.800410
  0.364000,  4.459020
  0.366000,  4.111290
  0.368000,  3.767090
  0.370000,  3.423810
  0.372000,  3.092570
  0.374000,  2.770660
  0.376000,  2.462290
  0.378000,  2.164940
  0.380000,  1.876240
  0.382000,  1.587800
  0.384000,  1.304720
  0.386000,  1.023290
  0.388000,  0.752530
  0.390000,  0.480250
  0.392000,  0.217800
  0.394000, -0.036390
  0.396000, -0.278150
  0.398000, -0.510930
  0.400000, -0.734360
  0.402000, -0.948580
  0.404000, -1.153370
  0.406000, -1.355120
  0.408000, -1.550210
  0.410000, -1.732090
  0.412000, -1.897060
  0.414000, -2.045310
  0.416000, -2.161240
  0.418000, -2.254860
  0.420000, -2.320210
  0.422000, -2.365340
  0.424000, -2.379240
  0.426000, -2.374140
  0.428000, -2.363800
  0.430000, -2.350500
  0.432000, -2.332620
  0.434000, -2.313000
  0.436000, -2.294660
  0.438000, -2.270190
  0.440000, -2.231600
  0.442000, -2.186770
  0.444000, -2.124180
  0.446000, -2.042160
  0.448000, -1.953170
  0.450000, -1.838010
  0.452000, -1.714450
  0.454000, -1.580320
  0.456000, -1.447390
  0.458000, -1.313040
  0.460000, -1.174760
  0.462000, -1.047220
  0.464000, -0.934340
  0.466000, -0.838390
  0.468000, -0.754610
  0.470000, -0.671950
  0.472000, -0.608460
  0.474000, -0.546070
  0.476000, -0.483600
  0.478000, -0.426090
  0.480000, -0.362270
  0.482000, -0.301570
  0.484000, -0.242450
  0.486000, -0.183480
  0.488000, -0.130690
  0.490000, -0.094570
  0.492000, -0.066160
  0.494000, -0.053830
  0.496000, -0.062570
  0.498000, -0.094240
  0.500000, -0.140650
  0.502000, -0.206180
  0.504000, -0.279140
  0.506000, -0.368610
  0.508000, -0.471160
  0.510000, -0.595490
  0.512000, -0.728490
  0.514000, -0.871940
  0.516000, -1.022190
  0.518000, -1.187010
  0.520000, -1.353740
  0.522000, -1.531430
  0.524000, -1.702540
  0.526000, -1.878920
  0.528000, -2.052320
  0.530000, -2.219670
  0.532000, -2.381600
  0.534000, -2.530810
  0.536000, -2.674900
  0.538000, -2.818490
  0.540000, -2.968970
  0.542000, -3.120530
  0.544000, -3.273350
  0.546000, -3.426560
  0.548000, -3.577180
  0.550000, -3.727820
  0.552000, -3.868830
  0.554000, -3.997370
  0.556000, -4.120580
  0.558000, -4.233790
  0.560000, -4.327500
  0.562000, -4.416420
  0.564000, -4.497230
  0.566000, -4.568080
  0.568000, -4.627750
  0.570000, -4.680010
  0.572000, -4.726550
  0.574000, -4.766640
  0.576000, -4.799250
  0.578000, -4.832380
  0.580000, -4.855500
  0.582000, -4.873560
  0.584000, -4.887970
  0.586000, -4.901720
  0.588000, -4.915370
  0.590000, -4.916260
  0.592000, -4.902720
  0.594000, -4.874640
  0.596000, -4.838390
  0.598000, -4.785550
  0.600000, -4.738480
  0.602000, -4.697900
  0.604000, -4.649950
  0.606000, -4.608070
  0.608000, -4.565500
  0.610000, -4.521480
  0.612000, -4.474760
  0.614000, -4.419520
  0.616000, -4.358440
  0.618000, -4.300970
  0.620000, -4.238570
  0.622000, -4.170880
  0.624000, -4.103980
  0.626000, -4.033360
  0.628000, -3.972000
  0.630000, -3.907830
  0.632000, -3.837700
  0.634000, -3.769960
  0.636000, -3.698540
  0.638000, -3.622060
  0.640000, -3.542600
  0.642000, -3.459310
  0.644000, -3.365260
  0.646000, -3.267300
  0.648000, -3.163560
  0.650000, -3.045230
  0.652000, -2.931020
  0.654000, -2.810210
  0.656000, -2.693710
  0.658000, -2.586050
  0.660000, -2.489380
  0.662000, -2.407000
  0.664000, -2.331480
  0.666000, -2.271950
  0.668000, -2.216620
  0.670000, -2.158520
  0.672000, -2.097590
  0.674000, -2.022910
  0.676000, -1.930810
  0.678000, -1.826200
  0.680000, -1.715790
  0.682000, -1.601280
  0.684000, -1.494740
  0.686000, -1.397850
  0.688000, -1.314500
  0.690000, -1.247330
  0.692000, -1.187970
  0.694000, -1.134150
  0.696000, -1.088890
  0.698000, -1.036050
  0.700000, -0.980540
  0.702000, -0.923210
  0.704000, -0.861240
  0.706000, -0.795850
  0.708000, -0.725180
  0.710000, -0.663910
  0.712000, -0.602780
  0.714000, -0.555020
  0.716000, -0.508380
  0.718000, -0.466030
  0.720000, -0.423450
  0.722000, -0.400190
  0.724000, -0.365760
  0.726000, -0.339100
  0.728000, -0.311580
  0.730000, -0.283460
  0.732000, -0.247730
  0.734000, -0.205510
  0.736000, -0.173160
  0.738000, -0.140070
  0.740000, -0.112350
  0.742000, -0.080550
  0.744000, -0.049310
  0.746000, -0.016740
  0.748000,  0.010850
  0.750000,  0.036070
  0.752000,  0.063370
  0.754000,  0.088320
  0.756000,  0.101030
  0.758000,  0.107780
  0.760000,  0.102970
  0.762000,  0.094150
  0.764000,  0.086760
  0.766000,  0.069730
  0.768000,  0.055570
  0.770000,  0.048220
  0.772000,  0.041310
  0.774000,  0.038550
  0.776000,  0.035440
  0.778000,  0.035280
  0.780000,  0.041230
  0.782000,  0.048440
  0.784000,  0.044280
  0.786000,  0.046790
  0.788000,  0.041520
  0.790000,  0.030860
  0.792000,  0.018120
  0.794000,  0.008320
  0.796000, -0.010750
  0.798000, -0.031360
  0.800000, -0.052330
  0.802000, -0.072660
  0.804000, -0.096190
  0.806000, -0.127260
  0.808000, -0.161800
  0.810000, -0.192670
  0.812000, -0.224180
  0.814000, -0.240300
  0.816000, -0.254910
  0.818000, -0.254840
  0.820000, -0.243290
  0.822000, -0.219020
  0.824000, -0.180320
  0.826000, -0.140480
  0.828000, -0.101890
  0.830000, -0.067810
  0.832000, -0.046770
  0.834000, -0.037770
  0.836000, -0.041330
  0.838000, -0.067940
  0.840000, -0.097790
  0.842000, -0.132600
  0.844000, -0.175120
  0.846000, -0.209320
  0.848000, -0.241380
  0.850000, -0.268230
  0.852000, -0.278940
  0.854000, -0.275300
  0.856000, -0.256010
  0.858000, -0.228190
  0.860000, -0.191980
  0.862000, -0.160100
  0.864000, -0.134180
  0.866000, -0.106100
  0.868000, -0.091000
  0.870000, -0.084200
  0.872000, -0.089980
  0.874000, -0.096410
  0.876000, -0.112540
  0.878000, -0.130080
  0.880000, -0.147920
  0.882000, -0.162520
  0.884000, -0.173350
  0.886000, -0.178300
  0.888000, -0.172080
  0.890000, -0.153880
  0.892000, -0.136540
  0.894000, -0.118550
  0.896000, -0.099460
  0.898000, -0.084570
  0.900000, -0.069270
  0.902000, -0.062630
  0.904000, -0.056980
  0.906000, -0.058470
  0.908000, -0.064710
  0.910000, -0.074500
  0.912000, -0.080650
  0.914000, -0.086750
  0.916000, -0.092670
  0.918000, -0.096340
  0.920000, -0.096670
  0.922000, -0.094740
  0.924000, -0.085400
  0.926000, -0.067690
  0.928000, -0.052020
  0.930000, -0.033430
  0.932000, -0.019390
  0.934000,  0.003910
  0.936000,  0.020020
  0.938000,  0.032960
  0.940000,  0.048710
  0.942000,  0.060400
  0.944000,  0.064930
  0.946000,  0.065040
  0.948000,  0.058270
  0.950000,  0.047490
  0.952000,  0.034060
  0.954000,  0.024020
  0.956000,  0.003240
  0.958000, -0.011360
  0.960000, -0.021490
  0.962000, -0.031530
  0.964000, -0.025760
  0.966000, -0.009520
  0.968000,  0.010700
  0.970000,  0.034760
  0.972000,  0.062990
  0.974000,  0.093980
  0.976000,  0.126420
  0.978000,  0.142720
  0.980000,  0.147120
  0.982000,  0.133470
  0.984000,  0.108240
  0.986000,  0.077500
  0.988000,  0.041970
  0.990000,  0.006340
  0.992000, -0.028180
  0.994000, -0.051940
  0.996000, -0.062250
  0.998000, -0.054450
  1.000000, -0.029700
