# z (nm)   (kJ/mol)
  0.052000,281.643820
  0.054000,276.944930
  0.056000,274.292240
  0.058000,271.404490
  0.060000,268.742610
  0.062000,266.030810
  0.064000,263.257960
  0.066000,260.476060
  0.068000,257.669750
  0.070000,254.843140
  0.072000,251.976090
  0.074000,249.050880
  0.076000,246.063200
  0.078000,243.004140
  0.080000,239.867480
  0.082000,236.649670
  0.084000,233.340840
  0.086000,229.936910
  0.088000,226.433510
  0.090000,222.822770
  0.092000,219.102490
  0.094000,215.265250
  0.096000,211.320700
  0.098000,207.280280
  0.100000,203.162420
  0.102000,198.998110
  0.104000,194.828930
  0.106000,190.682590
  0.108000,186.580920
  0.110000,182.536370
  0.112000,178.553550
  0.114000,174.632160
  0.116000,170.771240
  0.118000,166.966650
  0.120000,163.231150
  0.122000,159.560430
  0.124000,155.955830
  0.126000,152.423320
  0.128000,148.950310
  0.130000,145.541450
  0.132000,142.190790
  0.134000,138.899760
  0.136000,135.676910
  0.138000,132.522900
  0.140000,129.445070
  0.142000,126.431320
  0.144000,123.478530
  0.146000,120.557450
  0.148000,117.652480
  0.150000,114.737050
  0.152000,111.800370
  0.154000,108.836500
  0.156000,105.849670
  0.158000,102.853710
  0.160000, 99.871490
  0.162000, 96.922440
  0.164000, 94.032070
  0.166000, 91.212690
  0.168000, 88.476070
  0.170000, 85.827490
  0.172000, 83.255200
  0.174000, 80.749190
  0.176000, 78.296920
  0.178000, 75.882320
  0.180000, 73.502150
  0.182000, 71.155990
  0.184000, 68.840450
  0.186000, 66.559330
  0.188000, 64.324160
  0.190000, 62.131770
  0.192000, 59.975320
  0.194000, 57.852330
  0.196000, 55.745070
  0.198000, 53.657100
  0.200000, 51.590270
  0.202000, 49.548730
  0.204000, 47.539290
  0.206000, 45.573250
  0.208000, 43.672140
  0.210000, 41.842040
  0.212000, 40.091610
  0.214000, 38.414350
  0.216000, 36.798560
  0.218000, 35.227180
  0.220000, 33.688270
  0.222000, 32.161290
  0.224000, 30.645170
  0.226000, 29.137750
  0.228000, 27.645460
  0.230000, 26.178520
  0.232000, 24.758130
  0.234000, 23.403680
  0.236000, 22.121560
  0.238000, 20.922730
  0.240000, 19.809950
  0.242000, 18.769800
  0.244000, 17.783030
  0.246000, 16.814150
  0.248000, 15.847040
  0.250000, 14.850980
  0.252000, 13.835920
  0.254000, 12.819190
  0.256000, 11.846230
  0.258000, 10.944390
  0.260000, 10.144830
  0.262000,  9.443600
  0.264000,  8.818470
  0.266000,  8.236740
  0.268000,  7.673180
  0.270000,  7.096760
  0.272000,  6.514000
  0.274000,  5.927010
  0.276000,  5.352900
  0.278000,  4.798220
  0.280000,  4.282550
  0.282000,  3.804530
  0.284000,  3.366170
  0.286000,  2.958630
  0.288000,  2.589490
  0.290000,  2.250680
  0.292000,  1.927760
  0.294000,  1.624250
  0.296000,  1.327020
  0.298000,  1.044370
  0.300000,  0.777840
  0.302000,  0.527690
  0.304000,  0.291070
  0.306000,  0.069510
  0.308000, -0.131970
  0.310000, -0.305320
  0.312000, -0.464530
  0.314000, -0.609730
  0.316000, -0.736620
  0.318000, -0.858940
  0.320000, -0.978780
  0.322000, -1.101830
  0.324000, -1.225350
  0.326000, -1.353930
  0.328000, -1.479850
  0.330000, -1.608500
  0.332000, -1.731790
  0.334000, -1.847580
  0.336000, -1.947190
  0.338000, -2.031940
  0.340000, -2.098790
  0.342000, -2.152490
  0.344000, -2.189190
  0.346000, -2.220260
  0.348000, -2.246910
  0.350000, -2.262940
  0.352000, -2.280040
  0.354000, -2.300250
  0.356000, -2.314700
  0.358000, -2.329980
  0.360000, -2.344020
  0.362000, -2.348970
  0.364000, -2.350600
  0.366000, -2.346290
  0.368000, -2.333060
  0.370000, -2.313460
  0.372000, -2.279900
  0.374000, -2.240300
  0.376000, -2.191400
  0.378000, -2.137790
  0.380000, -2.075590
  0.382000, -2.013490
  0.384000, -1.949850
  0.386000, -1.884580
  0.388000, -1.823770
  0.390000, -1.759300
  0.392000, -1.695480
  0.394000, -1.634500
  0.396000, -1.568960
  0.398000, -1.506800
  0.400000, -1.435810
  0.402000, -1.371130
  0.404000, -1.304900
  0.406000, -1.234720
  0.408000, -1.161760
  0.410000, -1.083190
  0.412000, -1.006420
  0.414000, -0.926280
  0.416000, -0.843220
  0.418000, -0.759980
  0.420000, -0.677020
  0.422000, -0.603160
  0.424000, -0.529710
  0.426000, -0.453450
  0.428000, -0.384690
  0.430000, -0.322310
  0.432000, -0.264400
  0.434000, -0.209160
  0.436000, -0.161130
  0.438000, -0.103230
  0.440000, -0.043820
  0.442000,  0.026460
  0.444000,  0.104060
  0.446000,  0.185650
  0.448000,  0.275490
  0.450000,  0.368860
  0.452000,  0.468150
  0.454000,  0.569210
  0.456000,  0.670530
  0.458000,  0.770630
  0.460000,  0.870130
  0.462000,  0.967680
  0.464000,  1.068630
  0.466000,  1.164410
  0.468000,  1.266620
  0.470000,  1.364550
  0.472000,  1.463770
  0.474000,  1.564760
  0.476000,  1.672550
  0.478000,  1.781790
  0.480000,  1.891610
  0.482000,  2.004210
  0.484000,  2.127200
  0.486000,  2.249420
  0.488000,  2.385660
  0.490000,  2.518560
  0.492000,  2.661270
  0.494000,  2.807050
  0.496000,  2.952880
  0.498000,  3.096830
  0.500000,  3.239970
  0.502000,  3.378750
  0.504000,  3.513980
  0.506000,  3.640340
  0.508000,  3.760970
  0.510000,  3.870300
  0.512000,  3.974980
  0.514000,  4.069160
  0.516000,  4.160690
  0.518000,  4.248790
  0.520000,  4.337630
  0.522000,  4.427540
  0.524000,  4.520980
  0.526000,  4.612790
  0.528000,  4.709730
  0.530000,  4.798860
  0.532000,  4.882130
  0.534000,  4.951970
  0.536000,  5.006040
  0.538000,  5.038790
  0.540000,  5.057500
  0.542000,  5.059250
  0.544000,  5.049870
  0.546000,  5.025520
  0.548000,  4.993700
  0.550000,  4.954850
  0.552000,  4.914190
  0.554000,  4.869760
  0.556000,  4.824110
  0.558000,  4.774510
  0.560000,  4.723000
  0.562000,  4.666790
  0.564000,  4.604310
  0.566000,  4.539070
  0.568000,  4.465400
  0.570000,  4.384920
  0.572000,  4.300770
  0.574000,  4.209150
  0.576000,  4.114120
  0.578000,  4.018910
  0.580000,  3.915810
  0.582000,  3.810220
  0.584000,  3.699770
  0.586000,  3.588110
  0.588000,  3.476980
  0.590000,  3.364240
  0.592000,  3.253010
  0.594000,  3.140600
  0.596000,  3.021540
  0.598000,  2.908500
  0.600000,  2.789760
  0.602000,  2.666760
  0.604000,  2.548310
  0.606000,  2.432200
  0.608000,  2.320070
  0.610000,  2.215560
  0.612000,  2.115600
  0.614000,  2.020890
  0.616000,  1.935390
  0.618000,  1.861890
  0.620000,  1.789510
  0.622000,  1.713580
  0.624000,  1.640650
  0.626000,  1.571100
  0.628000,  1.499460
  0.630000,  1.421960
  0.632000,  1.344020
  0.634000,  1.266050
  0.636000,  1.191610
  0.638000,  1.111510
  0.640000,  1.038520
  0.642000,  0.968730
  0.644000,  0.906320
  0.646000,  0.853680
  0.648000,  0.798790
  0.650000,  0.753280
  0.652000,  0.716420
  0.654000,  0.684050
  0.656000,  0.658350
  0.658000,  0.631210
  0.660000,  0.602240
  0.662000,  0.578050
  0.664000,  0.549920
  0.666000,  0.522610
  0.668000,  0.490070
  0.670000,  0.455460
  0.672000,  0.418360
  0.674000,  0.387450
  0.676000,  0.359350
  0.678000,  0.343670
  0.680000,  0.328700
  0.682000,  0.324530
  0.684000,  0.317580
  0.686000,  0.323040
  0.688000,  0.329440
  0.690000,  0.336330
  0.692000,  0.339780
  0.694000,  0.344130
  0.696000,  0.343320
  0.698000,  0.338870
  0.700000,  0.329560
  0.702000,  0.316670
  0.704000,  0.308290
  0.706000,  0.297590
  0.708000,  0.285620
  0.710000,  0.278770
  0.712000,  0.271490
  0.714000,  0.275100
  0.716000,  0.274620
  0.718000,  0.281380
  0.720000,  0.284100
  0.722000,  0.288860
  0.724000,  0.295920
  0.726000,  0.302650
  0.728000,  0.310890
  0.730000,  0.321540
  0.732000,  0.332990
  0.734000,  0.346710
  0.736000,  0.361550
  0.738000,  0.376810
  0.740000,  0.396470
  0.742000,  0.413370
  0.744000,  0.428840
  0.746000,  0.440590
  0.748000,  0.448930
  0.750000,  0.451790
  0.752000,  0.457740
  0.754000,  0.465340
  0.756000,  0.469210
  0.758000,  0.471100
  0.760000,  0.469690
  0.762000,  0.476190
  0.764000,  0.488500
  0.766000,  0.506110
  0.768000,  0.525860
  0.770000,  0.550990
  0.772000,  0.580700
  0.774000,  0.612910
  0.776000,  0.644210
  0.778000,  0.677470
  0.780000,  0.707260
  0.782000,  0.734640
  0.784000,  0.756480
  0.786000,  0.772170
  0.788000,  0.782400
  0.790000,  0.784560
  0.792000,  0.787240
  0.794000,  0.779270
  0.796000,  0.772080
  0.798000,  0.757710
  0.800000,  0.749580
  0.802000,  0.734720
  0.804000,  0.731730
  0.806000,  0.736970
  0.808000,  0.743810
  0.810000,  0.753960
  0.812000,  0.776010
  0.814000,  0.794090
  0.816000,  0.810790
  0.818000,  0.829780
  0.820000,  0.847130
  0.822000,  0.862700
  0.824000,  0.871290
  0.826000,  0.877800
  0.828000,  0.873660
  0.830000,  0.868180
  0.832000,  0.852690
  0.834000,  0.836170
  0.836000,  0.823320
  0.838000,  0.801710
  0.840000,  0.782680
  0.842000,  0.760490
  0.844000,  0.738760
  0.846000,  0.715410
  0.848000,  0.695640
  0.850000,  0.679310
  0.852000,  0.667720
  0.854000,  0.652990
  0.856000,  0.638860
  0.858000,  0.630540
  0.860000,  0.623490
  0.862000,  0.613110
  0.864000,  0.597420
  0.866000,  0.583430
  0.868000,  0.568590
  0.870000,  0.549130
  0.872000,  0.529640
  0.874000,  0.510530
  0.876000,  0.490240
  0.878000,  0.472380
  0.880000,  0.452200
  0.882000,  0.435810
  0.884000,  0.425180
  0.886000,  0.409180
  0.888000,  0.390400
  0.890000,  0.376500
  0.892000,  0.359380
  0.894000,  0.351450
  0.896000,  0.339590
  0.898000,  0.331200
  0.900000,  0.318400
  0.902000,  0.307610
  0.904000,  0.299680
  0.906000,  0.289360
  0.908000,  0.281290
  0.910000,  0.272420
  0.912000,  0.262730
  0.914000,  0.250890
  0.916000,  0.234930
  0.918000,  0.224030
  0.920000,  0.209240
  0.922000,  0.197080
  0.924000,  0.177200
  0.926000,  0.151250
  0.928000,  0.127940
  0.930000,  0.099060
  0.932000,  0.070460
  0.934000,  0.042650
  0.936000,  0.014360
  0.938000, -0.015930
  0.940000, -0.044300
  0.942000, -0.070580
  0.944000, -0.096060
  0.946000, -0.115150
  0.948000, -0.127000
  0.950000, -0.135630
  0.952000, -0.145370
  0.954000, -0.146220
  0.956000, -0.140020
  0.958000, -0.134820
  0.960000, -0.127000
  0.962000, -0.114050
  0.964000, -0.103480
  0.966000, -0.094870
  0.968000, -0.091980
  0.970000, -0.090760
  0.972000, -0.088140
  0.974000, -0.090590
  0.976000, -0.095270
  0.978000, -0.102540
  0.980000, -0.106200
  0.982000, -0.108090
  0.984000, -0.115350
  0.986000, -0.116240
  0.988000, -0.119640
  0.990000, -0.127670
  0.992000, -0.125560
  0.994000, -0.131400
  0.996000, -0.133040
  0.998000, -0.127990
  1.000000, -0.131230
