# z (nm)   (kJ/mol)
  0.128000,253.774570
  0.130000,250.872110
  0.132000,248.306500
  0.134000,246.204940
  0.136000,244.131590
  0.138000,241.994230
  0.140000,239.879290
  0.142000,237.770830
  0.144000,235.590160
  0.146000,233.416510
  0.148000,231.177260
  0.150000,228.861950
  0.152000,226.457060
  0.154000,223.931580
  0.156000,221.269380
  0.158000,218.450100
  0.160000,215.449870
  0.162000,212.254570
  0.164000,208.857330
  0.166000,205.258210
  0.168000,201.480520
  0.170000,197.547970
  0.172000,193.498660
  0.174000,189.371200
  0.176000,185.194430
  0.178000,180.986630
  0.180000,176.773530
  0.182000,172.582120
  0.184000,168.436630
  0.186000,164.347830
  0.188000,160.301870
  0.190000,156.249300
  0.192000,152.163300
  0.194000,148.061660
  0.196000,143.998870
  0.198000,140.041480
  0.200000,136.223200
  0.202000,132.546530
  0.204000,129.002600
  0.206000,125.584920
  0.208000,122.286000
  0.210000,119.071290
  0.212000,115.889920
  0.214000,112.691830
  0.216000,109.448060
  0.218000,106.196070
  0.220000,102.981560
  0.222000, 99.863840
  0.224000, 96.872970
  0.226000, 94.007240
  0.228000, 91.255820
  0.230000, 88.598340
  0.232000, 86.008620
  0.234000, 83.468820
  0.236000, 80.959980
  0.238000, 78.470650
  0.240000, 76.013190
  0.242000, 73.612050
  0.244000, 71.273460
  0.246000, 69.013440
  0.248000, 66.818060
  0.250000, 64.658110
  0.252000, 62.499080
  0.254000, 60.317360
  0.256000, 58.138790
  0.258000, 56.014240
  0.260000, 54.006790
  0.262000, 52.146860
  0.264000, 50.415220
  0.266000, 48.744020
  0.268000, 47.083220
  0.270000, 45.409080
  0.272000, 43.771100
  0.274000, 42.217080
  0.276000, 40.754070
  0.278000, 39.370510
  0.280000, 38.016700
  0.282000, 36.651000
  0.284000, 35.269570
  0.286000, 33.870850
  0.288000, 32.458540
  0.290000, 31.068320
  0.292000, 29.723710
  0.294000, 28.450940
  0.296000, 27.248610
  0.298000, 26.059550
  0.300000, 24.844570
  0.302000, 23.532190
  0.304000, 22.121840
  0.306000, 20.632580
  0.308000, 19.114740
  0.310000, 17.627970
  0.312000, 16.208090
  0.314000, 14.879940
  0.316000, 13.633260
  0.318000, 12.413750
  0.320000, 11.166730
  0.322000,  9.852830
  0.324000,  8.476810
  0.326000,  7.052520
  0.328000,  5.654100
  0.330000,  4.315290
  0.332000,  3.065920
  0.334000,  1.888050
  0.336000,  0.758320
  0.338000, -0.348030
  0.340000, -1.451350
  0.342000, -2.543880
  0.344000, -3.629420
  0.346000, -4.700340
  0.348000, -5.742530
  0.350000, -6.755110
  0.352000, -7.744190
  0.354000, -8.705550
  0.356000, -9.634130
  0.358000,-10.549980
  0.360000,-11.434490
  0.362000,-12.278490
  0.364000,-13.085950
  0.366000,-13.850810
  0.368000,-14.595020
  0.370000,-15.336370
  0.372000,-16.069240
  0.374000,-16.808630
  0.376000,-17.518820
  0.378000,-18.172490
  0.380000,-18.763820
  0.382000,-19.282590
  0.384000,-19.737930
  0.386000,-20.170300
  0.388000,-20.589320
  0.390000,-21.029710
  0.392000,-21.498700
  0.394000,-21.984490
  0.396000,-22.477870
  0.398000,-22.944930
  0.400000,-23.359270
  0.402000,-23.713160
  0.404000,-24.026190
  0.406000,-24.329970
  0.408000,-24.669130
  0.410000,-25.066670
  0.412000,-25.497540
  0.414000,-25.925270
  0.416000,-26.316090
  0.418000,-26.667890
  0.420000,-26.983730
  0.422000,-27.292470
  0.424000,-27.613490
  0.426000,-27.941570
  0.428000,-28.262030
  0.430000,-28.560570
  0.432000,-28.838160
  0.434000,-29.105330
  0.436000,-29.368280
  0.438000,-29.635000
  0.440000,-29.891710
  0.442000,-30.106860
  0.444000,-30.257300
  0.446000,-30.362960
  0.448000,-30.444470
  0.450000,-30.543980
  0.452000,-30.649590
  0.454000,-30.745380
  0.456000,-30.808240
  0.458000,-30.826540
  0.460000,-30.811780
  0.462000,-30.776250
  0.464000,-30.743370
  0.466000,-30.698610
  0.468000,-30.637250
  0.470000,-30.554040
  0.472000,-30.448680
  0.474000,-30.336990
  0.476000,-30.218060
  0.478000,-30.090480
  0.480000,-29.954800
  0.482000,-29.800320
  0.484000,-29.623910
  0.486000,-29.444330
  0.488000,-29.269060
  0.490000,-29.100200
  0.492000,-28.941110
  0.494000,-28.770820
  0.496000,-28.571550
  0.498000,-28.350270
  0.500000,-28.118690
  0.502000,-27.890710
  0.504000,-27.668480
  0.506000,-27.465870
  0.508000,-27.275210
  0.510000,-27.082780
  0.512000,-26.878950
  0.514000,-26.662080
  0.516000,-26.440810
  0.518000,-26.227750
  0.520000,-26.032990
  0.522000,-25.872360
  0.524000,-25.716890
  0.526000,-25.555070
  0.528000,-25.372310
  0.530000,-25.155750
  0.532000,-24.917950
  0.534000,-24.687550
  0.536000,-24.474340
  0.538000,-24.281410
  0.540000,-24.099520
  0.542000,-23.910920
  0.544000,-23.691770
  0.546000,-23.468920
  0.548000,-23.248650
  0.550000,-23.041760
  0.552000,-22.834920
  0.554000,-22.630030
  0.556000,-22.406120
  0.558000,-22.156280
  0.560000,-21.866440
  0.562000,-21.587020
  0.564000,-21.343060
  0.566000,-21.153640
  0.568000,-21.013200
  0.570000,-20.883120
  0.572000,-20.739650
  0.574000,-20.553180
  0.576000,-20.333410
  0.578000,-20.113100
  0.580000,-19.928740
  0.582000,-19.791880
  0.584000,-19.688570
  0.586000,-19.609690
  0.588000,-19.513060
  0.590000,-19.401550
  0.592000,-19.257710
  0.594000,-19.103510
  0.596000,-18.958200
  0.598000,-18.848730
  0.600000,-18.803990
  0.602000,-18.815030
  0.604000,-18.862430
  0.606000,-18.905990
  0.608000,-18.922440
  0.610000,-18.884860
  0.612000,-18.807510
  0.614000,-18.720000
  0.616000,-18.661330
  0.618000,-18.650040
  0.620000,-18.679670
  0.622000,-18.755070
  0.624000,-18.830000
  0.626000,-18.887890
  0.628000,-18.921490
  0.630000,-18.936180
  0.632000,-18.941900
  0.634000,-18.953460
  0.636000,-18.961170
  0.638000,-18.968490
  0.640000,-18.975160
  0.642000,-18.978800
  0.644000,-18.989040
  0.646000,-19.015790
  0.648000,-19.052180
  0.650000,-19.099140
  0.652000,-19.139520
  0.654000,-19.173280
  0.656000,-19.196780
  0.658000,-19.185970
  0.660000,-19.158020
  0.662000,-19.116220
  0.664000,-19.066090
  0.666000,-19.023810
  0.668000,-18.983950
  0.670000,-18.961290
  0.672000,-18.927960
  0.674000,-18.889300
  0.676000,-18.815370
  0.678000,-18.696920
  0.680000,-18.547550
  0.682000,-18.377440
  0.684000,-18.197850
  0.686000,-18.021430
  0.688000,-17.857380
  0.690000,-17.714450
  0.692000,-17.579120
  0.694000,-17.436110
  0.696000,-17.274380
  0.698000,-17.079840
  0.700000,-16.862190
  0.702000,-16.612340
  0.704000,-16.359850
  0.706000,-16.096150
  0.708000,-15.837480
  0.710000,-15.576640
  0.712000,-15.301340
  0.714000,-14.991080
  0.716000,-14.645760
  0.718000,-14.263010
  0.720000,-13.866140
  0.722000,-13.470620
  0.724000,-13.091150
  0.726000,-12.728290
  0.728000,-12.359340
  0.730000,-11.964580
  0.732000,-11.532360
  0.734000,-11.054820
  0.736000,-10.532430
  0.738000, -9.974070
  0.740000, -9.389090
  0.742000, -8.799620
  0.744000, -8.215190
  0.746000, -7.647910
  0.748000, -7.109130
  0.750000, -6.592130
  0.752000, -6.093660
  0.754000, -5.603620
  0.756000, -5.133400
  0.758000, -4.682150
  0.760000, -4.272340
  0.762000, -3.918780
  0.764000, -3.626310
  0.766000, -3.384720
  0.768000, -3.189100
  0.770000, -3.008020
  0.772000, -2.839280
  0.774000, -2.665720
  0.776000, -2.489710
  0.778000, -2.330490
  0.780000, -2.206140
  0.782000, -2.106460
  0.784000, -2.046560
  0.786000, -2.008870
  0.788000, -1.987130
  0.790000, -1.977510
  0.792000, -1.968190
  0.794000, -1.943940
  0.796000, -1.897870
  0.798000, -1.833070
  0.800000, -1.755590
  0.802000, -1.673710
  0.804000, -1.584670
  0.806000, -1.503270
  0.808000, -1.423700
  0.810000, -1.355320
  0.812000, -1.293200
  0.814000, -1.232930
  0.816000, -1.166940
  0.818000, -1.100980
  0.820000, -1.027080
  0.822000, -0.942540
  0.824000, -0.856800
  0.826000, -0.779810
  0.828000, -0.713320
  0.830000, -0.663370
  0.832000, -0.624310
  0.834000, -0.586800
  0.836000, -0.547060
  0.838000, -0.501710
  0.840000, -0.462630
  0.842000, -0.419880
  0.844000, -0.377670
  0.846000, -0.330140
  0.848000, -0.264900
  0.850000, -0.185230
  0.852000, -0.094270
  0.854000, -0.016150
  0.856000,  0.036410
  0.858000,  0.053040
  0.860000,  0.039780
  0.862000,  0.004810
  0.864000, -0.020130
  0.866000, -0.030190
  0.868000, -0.002600
  0.870000,  0.051010
  0.872000,  0.109760
  0.874000,  0.174080
  0.876000,  0.216780
  0.878000,  0.245220
  0.880000,  0.259800
  0.882000,  0.272520
  0.884000,  0.296370
  0.886000,  0.329780
  0.888000,  0.351200
  0.890000,  0.367880
  0.892000,  0.373400
  0.894000,  0.361220
  0.896000,  0.338530
  0.898000,  0.308190
  0.900000,  0.281260
  0.902000,  0.264930
  0.904000,  0.255350
  0.906000,  0.263780
  0.908000,  0.284530
  0.910000,  0.299590
  0.912000,  0.307180
  0.914000,  0.293930
  0.916000,  0.266090
  0.918000,  0.218870
  0.920000,  0.152470
  0.922000,  0.079390
  0.924000,  0.014150
  0.926000, -0.045640
  0.928000, -0.078870
  0.930000, -0.082720
  0.932000, -0.057570
  0.934000, -0.016850
  0.936000,  0.030620
  0.938000,  0.077020
  0.940000,  0.091500
  0.942000,  0.087620
  0.944000,  0.062080
  0.946000,  0.017210
  0.948000, -0.032480
  0.950000, -0.074090
  0.952000, -0.100310
  0.954000, -0.112820
  0.956000, -0.112060
  0.958000, -0.099190
  0.960000, -0.073510
  0.962000, -0.041600
  0.964000, -0.011030
  0.966000,  0.011050
  0.968000,  0.023590
  0.970000,  0.018950
  0.972000,  0.002630
  0.974000, -0.023710
  0.976000, -0.049800
  0.978000, -0.070400
  0.980000, -0.084380
  0.982000, -0.098010
  0.984000, -0.109490
  0.986000, -0.128250
  0.988000, -0.156570
  0.990000, -0.187900
  0.992000, -0.215800
  0.994000, -0.239100
  0.996000, -0.263690
  0.998000, -0.276910
  1.000000, -0.279720
