# z (nm)   (kJ/mol)
  0.052000,276.731080
  0.054000,274.454030
  0.056000,272.228930
  0.058000,270.049690
  0.060000,267.750250
  0.062000,265.534390
  0.064000,263.361760
  0.066000,264.869100
  0.068000,261.993070
  0.070000,259.713860
  0.072000,257.360070
  0.074000,254.920370
  0.076000,252.488130
  0.078000,250.037940
  0.080000,247.530190
  0.082000,244.965680
  0.084000,242.300120
  0.086000,239.536000
  0.088000,236.641580
  0.090000,233.605430
  0.092000,230.407610
  0.094000,227.033220
  0.096000,223.473240
  0.098000,219.722740
  0.100000,215.786100
  0.102000,211.685520
  0.104000,207.436120
  0.106000,203.076370
  0.108000,198.645400
  0.110000,194.185020
  0.112000,189.731720
  0.114000,185.327350
  0.116000,181.002760
  0.118000,176.775800
  0.120000,172.652490
  0.122000,168.623670
  0.124000,164.689520
  0.126000,160.830270
  0.128000,157.026550
  0.130000,153.276290
  0.132000,149.561160
  0.134000,145.889880
  0.136000,142.266850
  0.138000,138.702580
  0.140000,135.215280
  0.142000,131.809670
  0.144000,128.493030
  0.146000,125.263710
  0.148000,122.108510
  0.150000,119.009410
  0.152000,115.948310
  0.154000,112.915260
  0.156000,109.891560
  0.158000,106.873970
  0.160000,103.867050
  0.162000,100.875840
  0.164000, 97.911860
  0.166000, 95.001160
  0.168000, 92.142790
  0.170000, 89.343080
  0.172000, 86.587900
  0.174000, 83.883080
  0.176000, 81.202270
  0.178000, 78.534150
  0.180000, 75.871500
  0.182000, 73.222900
  0.184000, 70.598280
  0.186000, 68.014290
  0.188000, 65.489800
  0.190000, 63.044970
  0.192000, 60.678220
  0.194000, 58.392230
  0.196000, 56.178180
  0.198000, 54.017360
  0.200000, 51.890230
  0.202000, 49.794310
  0.204000, 47.714010
  0.206000, 45.659210
  0.208000, 43.640580
  0.210000, 41.663600
  0.212000, 39.735860
  0.214000, 37.872810
  0.216000, 36.073500
  0.218000, 34.332540
  0.220000, 32.636440
  0.222000, 30.993360
  0.224000, 29.399650
  0.226000, 27.857770
  0.228000, 26.367860
  0.230000, 24.916160
  0.232000, 23.486820
  0.234000, 22.067210
  0.236000, 20.659730
  0.238000, 19.264780
  0.240000, 17.908040
  0.242000, 16.622270
  0.244000, 15.414470
  0.246000, 14.277740
  0.248000, 13.192230
  0.250000, 12.141250
  0.252000, 11.118420
  0.254000, 10.112370
  0.256000,  9.123600
  0.258000,  8.177880
  0.260000,  7.269410
  0.262000,  6.414280
  0.264000,  5.602280
  0.266000,  4.845500
  0.268000,  4.134000
  0.270000,  3.446280
  0.272000,  2.788810
  0.274000,  2.156680
  0.276000,  1.540200
  0.278000,  0.945540
  0.280000,  0.370500
  0.282000, -0.182480
  0.284000, -0.706420
  0.286000, -1.202840
  0.288000, -1.662960
  0.290000, -2.096330
  0.292000, -2.511050
  0.294000, -2.912400
  0.296000, -3.295190
  0.298000, -3.670430
  0.300000, -4.042650
  0.302000, -4.396560
  0.304000, -4.744910
  0.306000, -5.081040
  0.308000, -5.405470
  0.310000, -5.707270
  0.312000, -5.987310
  0.314000, -6.241160
  0.316000, -6.484680
  0.318000, -6.710460
  0.320000, -6.926310
  0.322000, -7.129270
  0.324000, -7.327460
  0.326000, -7.517090
  0.328000, -7.699670
  0.330000, -7.874130
  0.332000, -8.037980
  0.334000, -8.199430
  0.336000, -8.351780
  0.338000, -8.502480
  0.340000, -8.639240
  0.342000, -8.766400
  0.344000, -8.876600
  0.346000, -8.971670
  0.348000, -9.036010
  0.350000, -9.075080
  0.352000, -9.082580
  0.354000, -9.060370
  0.356000, -9.018860
  0.358000, -8.950530
  0.360000, -8.877530
  0.362000, -8.797550
  0.364000, -8.727900
  0.366000, -8.652300
  0.368000, -8.577150
  0.370000, -8.502290
  0.372000, -8.427080
  0.374000, -8.345380
  0.376000, -8.244300
  0.378000, -8.129830
  0.380000, -7.996750
  0.382000, -7.838020
  0.384000, -7.658710
  0.386000, -7.466490
  0.388000, -7.268050
  0.390000, -7.063700
  0.392000, -6.855520
  0.394000, -6.655230
  0.396000, -6.464020
  0.398000, -6.287640
  0.400000, -6.117590
  0.402000, -5.964020
  0.404000, -5.823160
  0.406000, -5.675220
  0.408000, -5.540850
  0.410000, -5.395390
  0.412000, -5.260420
  0.414000, -5.122740
  0.416000, -4.978340
  0.418000, -4.827500
  0.420000, -4.672340
  0.422000, -4.510420
  0.424000, -4.346600
  0.426000, -4.179670
  0.428000, -4.003570
  0.430000, -3.830750
  0.432000, -3.659100
  0.434000, -3.506720
  0.436000, -3.357610
  0.438000, -3.222880
  0.440000, -3.103800
  0.442000, -3.000690
  0.444000, -2.908100
  0.446000, -2.821290
  0.448000, -2.740750
  0.450000, -2.666140
  0.452000, -2.587090
  0.454000, -2.501580
  0.456000, -2.418120
  0.458000, -2.330370
  0.460000, -2.242260
  0.462000, -2.160690
  0.464000, -2.084780
  0.466000, -2.014630
  0.468000, -1.955830
  0.470000, -1.897450
  0.472000, -1.840180
  0.474000, -1.781160
  0.476000, -1.726600
  0.478000, -1.669290
  0.480000, -1.616350
  0.482000, -1.574030
  0.484000, -1.541760
  0.486000, -1.520190
  0.488000, -1.508750
  0.490000, -1.503230
  0.492000, -1.490380
  0.494000, -1.482310
  0.496000, -1.469810
  0.498000, -1.449140
  0.500000, -1.418980
  0.502000, -1.380060
  0.504000, -1.338040
  0.506000, -1.284670
  0.508000, -1.243130
  0.510000, -1.206940
  0.512000, -1.171010
  0.514000, -1.146480
  0.516000, -1.115210
  0.518000, -1.078570
  0.520000, -1.028300
  0.522000, -0.960710
  0.524000, -0.878910
  0.526000, -0.780590
  0.528000, -0.679030
  0.530000, -0.576950
  0.532000, -0.481020
  0.534000, -0.391640
  0.536000, -0.298890
  0.538000, -0.205990
  0.540000, -0.114220
  0.542000, -0.010540
  0.544000,  0.103670
  0.546000,  0.232770
  0.548000,  0.369680
  0.550000,  0.518840
  0.552000,  0.670910
  0.554000,  0.826060
  0.556000,  0.980940
  0.558000,  1.131380
  0.560000,  1.286500
  0.562000,  1.430970
  0.564000,  1.575660
  0.566000,  1.714350
  0.568000,  1.853720
  0.570000,  1.990850
  0.572000,  2.127310
  0.574000,  2.250970
  0.576000,  2.364140
  0.578000,  2.474020
  0.580000,  2.577860
  0.582000,  2.676350
  0.584000,  2.758340
  0.586000,  2.834620
  0.588000,  2.898210
  0.590000,  2.948130
  0.592000,  2.984820
  0.594000,  3.010200
  0.596000,  3.024890
  0.598000,  3.021430
  0.600000,  3.011380
  0.602000,  2.994040
  0.604000,  2.962360
  0.606000,  2.926070
  0.608000,  2.876140
  0.610000,  2.819030
  0.612000,  2.754050
  0.614000,  2.685040
  0.616000,  2.605650
  0.618000,  2.519980
  0.620000,  2.429490
  0.622000,  2.353640
  0.624000,  2.278250
  0.626000,  2.213620
  0.628000,  2.152610
  0.630000,  2.103980
  0.632000,  2.051220
  0.634000,  1.999180
  0.636000,  1.936750
  0.638000,  1.872700
  0.640000,  1.788820
  0.642000,  1.695770
  0.644000,  1.597150
  0.646000,  1.489150
  0.648000,  1.374490
  0.650000,  1.268360
  0.652000,  1.166890
  0.654000,  1.076670
  0.656000,  1.004530
  0.658000,  0.949740
  0.660000,  0.902180
  0.662000,  0.864920
  0.664000,  0.838030
  0.666000,  0.808270
  0.668000,  0.778270
  0.670000,  0.742490
  0.672000,  0.700530
  0.674000,  0.648460
  0.676000,  0.590940
  0.678000,  0.525190
  0.680000,  0.453110
  0.682000,  0.375650
  0.684000,  0.299770
  0.686000,  0.231500
  0.688000,  0.171720
  0.690000,  0.118560
  0.692000,  0.075080
  0.694000,  0.034880
  0.696000,  0.009450
  0.698000, -0.001080
  0.700000,  0.002100
  0.702000,  0.010820
  0.704000,  0.016260
  0.706000,  0.025730
  0.708000,  0.027590
  0.710000,  0.023500
  0.712000,  0.011330
  0.714000, -0.008300
  0.716000, -0.036310
  0.718000, -0.071040
  0.720000, -0.108070
  0.722000, -0.145470
  0.724000, -0.180530
  0.726000, -0.203440
  0.728000, -0.213810
  0.730000, -0.210950
  0.732000, -0.204150
  0.734000, -0.195330
  0.736000, -0.198760
  0.738000, -0.210290
  0.740000, -0.243860
  0.742000, -0.300240
  0.744000, -0.364440
  0.746000, -0.421910
  0.748000, -0.464210
  0.750000, -0.478270
  0.752000, -0.459090
  0.754000, -0.420160
  0.756000, -0.373890
  0.758000, -0.332820
  0.760000, -0.298800
  0.762000, -0.285470
  0.764000, -0.273800
  0.766000, -0.270860
  0.768000, -0.278620
  0.770000, -0.288250
  0.772000, -0.300300
  0.774000, -0.316680
  0.776000, -0.335350
  0.778000, -0.351460
  0.780000, -0.366230
  0.782000, -0.383180
  0.784000, -0.391690
  0.786000, -0.397340
  0.788000, -0.389230
  0.790000, -0.369790
  0.792000, -0.354250
  0.794000, -0.323760
  0.796000, -0.292660
  0.798000, -0.262840
  0.800000, -0.233220
  0.802000, -0.205590
  0.804000, -0.183810
  0.806000, -0.166080
  0.808000, -0.149270
  0.810000, -0.143370
  0.812000, -0.134370
  0.814000, -0.128250
  0.816000, -0.119200
  0.818000, -0.114050
  0.820000, -0.100960
  0.822000, -0.093060
  0.824000, -0.085780
  0.826000, -0.070360
  0.828000, -0.056930
  0.830000, -0.040220
  0.832000, -0.021020
  0.834000,  0.001890
  0.836000,  0.022550
  0.838000,  0.043150
  0.840000,  0.062390
  0.842000,  0.077100
  0.844000,  0.083200
  0.846000,  0.084230
  0.848000,  0.079540
  0.850000,  0.073500
  0.852000,  0.056620
  0.854000,  0.044650
  0.856000,  0.028640
  0.858000,  0.020300
  0.860000,  0.014330
  0.862000,  0.016190
  0.864000,  0.023600
  0.866000,  0.043730
  0.868000,  0.062690
  0.870000,  0.091030
  0.872000,  0.120800
  0.874000,  0.141140
  0.876000,  0.162940
  0.878000,  0.178460
  0.880000,  0.182910
  0.882000,  0.181930
  0.884000,  0.174730
  0.886000,  0.165940
  0.888000,  0.156010
  0.890000,  0.144230
  0.892000,  0.128680
  0.894000,  0.117670
  0.896000,  0.112550
  0.898000,  0.107700
  0.900000,  0.103270
  0.902000,  0.107540
  0.904000,  0.108640
  0.906000,  0.116480
  0.908000,  0.126920
  0.910000,  0.135430
  0.912000,  0.142350
  0.914000,  0.139160
  0.916000,  0.135240
  0.918000,  0.125990
  0.920000,  0.118150
  0.922000,  0.108060
  0.924000,  0.091870
  0.926000,  0.074320
  0.928000,  0.058250
  0.930000,  0.037000
  0.932000,  0.016340
  0.934000, -0.001070
  0.936000, -0.008910
  0.938000, -0.014060
  0.940000, -0.012310
  0.942000, -0.006590
  0.944000, -0.002660
  0.946000,  0.010980
  0.948000,  0.024350
  0.950000,  0.031490
  0.952000,  0.040310
  0.954000,  0.046970
  0.956000,  0.049420
  0.958000,  0.049780
  0.960000,  0.044170
  0.962000,  0.032350
  0.964000,  0.017260
  0.966000,  0.006790
  0.968000, -0.009270
  0.970000, -0.027170
  0.972000, -0.041940
  0.974000, -0.055910
  0.976000, -0.068100
  0.978000, -0.078990
  0.980000, -0.090510
  0.982000, -0.096340
  0.984000, -0.106890
  0.986000, -0.120130
  0.988000, -0.133460
  0.990000, -0.147610
  0.992000, -0.163950
  0.994000, -0.181760
  0.996000, -0.193700
  0.998000, -0.209870
  1.000000, -0.224390
