# z (nm)   (kJ/mol)
  0.076000,268.089980
  0.078000,265.676320
  0.080000,262.842510
  0.082000,260.185050
  0.084000,257.565040
  0.086000,255.154790
  0.088000,252.667360
  0.090000,250.186830
  0.092000,247.638250
  0.094000,245.050440
  0.096000,242.405330
  0.098000,239.668730
  0.100000,236.841830
  0.102000,233.902250
  0.104000,230.850890
  0.106000,227.671080
  0.108000,224.369110
  0.110000,220.943060
  0.112000,217.398140
  0.114000,213.739450
  0.116000,209.964650
  0.118000,206.088460
  0.120000,202.117130
  0.122000,198.066550
  0.124000,193.952080
  0.126000,189.794080
  0.128000,185.613230
  0.130000,181.437810
  0.132000,177.287290
  0.134000,173.183430
  0.136000,169.143350
  0.138000,165.186520
  0.140000,161.315350
  0.142000,157.534180
  0.144000,153.844800
  0.146000,150.243660
  0.148000,146.719280
  0.150000,143.270250
  0.152000,139.890600
  0.154000,136.583120
  0.156000,133.362570
  0.158000,130.237670
  0.160000,127.213150
  0.162000,124.287280
  0.164000,121.449170
  0.166000,118.675030
  0.168000,115.939970
  0.170000,113.215360
  0.172000,110.482710
  0.174000,107.738610
  0.176000,104.984560
  0.178000,102.244800
  0.180000, 99.537500
  0.182000, 96.873230
  0.184000, 94.265290
  0.186000, 91.715710
  0.188000, 89.209070
  0.190000, 86.736000
  0.192000, 84.281770
  0.194000, 81.845060
  0.196000, 79.436770
  0.198000, 77.081010
  0.200000, 74.799230
  0.202000, 72.604520
  0.204000, 70.498260
  0.206000, 68.457590
  0.208000, 66.446500
  0.210000, 64.437130
  0.212000, 62.408830
  0.214000, 60.373780
  0.216000, 58.347260
  0.218000, 56.357370
  0.220000, 54.435000
  0.222000, 52.587960
  0.224000, 50.799590
  0.226000, 49.063500
  0.228000, 47.354370
  0.230000, 45.657650
  0.232000, 43.989520
  0.234000, 42.351950
  0.236000, 40.783360
  0.238000, 39.301450
  0.240000, 37.899020
  0.242000, 36.583160
  0.244000, 35.325920
  0.246000, 34.094930
  0.248000, 32.878360
  0.250000, 31.631120
  0.252000, 30.350490
  0.254000, 29.037240
  0.256000, 27.710090
  0.258000, 26.401160
  0.260000, 25.178940
  0.262000, 24.081220
  0.264000, 23.143170
  0.266000, 22.361440
  0.268000, 21.678520
  0.270000, 21.035540
  0.272000, 20.358590
  0.274000, 19.614440
  0.276000, 18.766420
  0.278000, 17.866640
  0.280000, 16.957960
  0.282000, 16.088660
  0.284000, 15.298620
  0.286000, 14.596190
  0.288000, 13.973020
  0.290000, 13.412420
  0.292000, 12.894500
  0.294000, 12.400220
  0.296000, 11.894110
  0.298000, 11.392630
  0.300000, 10.877860
  0.302000, 10.357090
  0.304000,  9.834960
  0.306000,  9.336010
  0.308000,  8.873550
  0.310000,  8.435740
  0.312000,  8.051300
  0.314000,  7.689870
  0.316000,  7.352720
  0.318000,  7.029110
  0.320000,  6.709130
  0.322000,  6.393970
  0.324000,  6.081890
  0.326000,  5.777490
  0.328000,  5.483320
  0.330000,  5.220970
  0.332000,  4.999000
  0.334000,  4.807710
  0.336000,  4.637450
  0.338000,  4.482350
  0.340000,  4.340150
  0.342000,  4.193590
  0.344000,  4.032100
  0.346000,  3.862000
  0.348000,  3.685190
  0.350000,  3.500970
  0.352000,  3.330750
  0.354000,  3.161370
  0.356000,  3.003870
  0.358000,  2.863550
  0.360000,  2.723510
  0.362000,  2.592330
  0.364000,  2.458140
  0.366000,  2.321430
  0.368000,  2.179720
  0.370000,  2.023980
  0.372000,  1.875680
  0.374000,  1.721360
  0.376000,  1.567890
  0.378000,  1.416970
  0.380000,  1.273990
  0.382000,  1.134990
  0.384000,  1.005090
  0.386000,  0.878480
  0.388000,  0.762910
  0.390000,  0.659640
  0.392000,  0.559110
  0.394000,  0.453650
  0.396000,  0.343570
  0.398000,  0.233810
  0.400000,  0.126340
  0.402000,  0.019340
  0.404000, -0.080510
  0.406000, -0.167120
  0.408000, -0.254850
  0.410000, -0.327850
  0.412000, -0.390860
  0.414000, -0.454970
  0.416000, -0.519020
  0.418000, -0.581580
  0.420000, -0.655390
  0.422000, -0.736450
  0.424000, -0.816370
  0.426000, -0.900880
  0.428000, -0.985060
  0.430000, -1.060650
  0.432000, -1.119390
  0.434000, -1.165980
  0.436000, -1.191180
  0.438000, -1.201740
  0.440000, -1.205440
  0.442000, -1.210090
  0.444000, -1.217290
  0.446000, -1.231460
  0.448000, -1.255140
  0.450000, -1.281120
  0.452000, -1.306860
  0.454000, -1.328840
  0.456000, -1.336300
  0.458000, -1.335630
  0.460000, -1.320870
  0.462000, -1.289660
  0.464000, -1.245550
  0.466000, -1.195120
  0.468000, -1.147670
  0.470000, -1.108820
  0.472000, -1.072230
  0.474000, -1.045340
  0.476000, -1.015730
  0.478000, -0.989700
  0.480000, -0.961900
  0.482000, -0.920150
  0.484000, -0.865750
  0.486000, -0.800340
  0.488000, -0.731940
  0.490000, -0.648260
  0.492000, -0.555260
  0.494000, -0.456610
  0.496000, -0.356490
  0.498000, -0.244270
  0.500000, -0.142530
  0.502000, -0.048330
  0.504000,  0.037560
  0.506000,  0.109190
  0.508000,  0.164330
  0.510000,  0.210070
  0.512000,  0.242660
  0.514000,  0.271570
  0.516000,  0.310040
  0.518000,  0.354910
  0.520000,  0.413060
  0.522000,  0.488450
  0.524000,  0.579610
  0.526000,  0.691130
  0.528000,  0.809100
  0.530000,  0.920280
  0.532000,  1.024860
  0.534000,  1.117120
  0.536000,  1.184270
  0.538000,  1.236910
  0.540000,  1.276460
  0.542000,  1.316580
  0.544000,  1.362980
  0.546000,  1.421440
  0.548000,  1.497940
  0.550000,  1.589720
  0.552000,  1.668660
  0.554000,  1.733100
  0.556000,  1.761500
  0.558000,  1.762810
  0.560000,  1.714940
  0.562000,  1.635660
  0.564000,  1.529450
  0.566000,  1.415970
  0.568000,  1.310640
  0.570000,  1.215700
  0.572000,  1.139710
  0.574000,  1.069250
  0.576000,  1.011670
  0.578000,  0.940430
  0.580000,  0.857630
  0.582000,  0.755610
  0.584000,  0.622800
  0.586000,  0.471300
  0.588000,  0.295980
  0.590000,  0.116090
  0.592000, -0.072070
  0.594000, -0.255320
  0.596000, -0.438740
  0.598000, -0.612680
  0.600000, -0.781730
  0.602000, -0.935060
  0.604000, -1.074570
  0.606000, -1.203340
  0.608000, -1.318280
  0.610000, -1.430660
  0.612000, -1.547010
  0.614000, -1.665570
  0.616000, -1.783890
  0.618000, -1.903340
  0.620000, -2.028920
  0.622000, -2.146700
  0.624000, -2.261410
  0.626000, -2.363600
  0.628000, -2.451570
  0.630000, -2.515560
  0.632000, -2.562730
  0.634000, -2.587500
  0.636000, -2.592210
  0.638000, -2.571590
  0.640000, -2.540150
  0.642000, -2.502310
  0.644000, -2.457730
  0.646000, -2.418060
  0.648000, -2.386460
  0.650000, -2.370220
  0.652000, -2.349730
  0.654000, -2.333110
  0.656000, -2.310330
  0.658000, -2.269200
  0.660000, -2.217660
  0.662000, -2.139640
  0.664000, -2.047960
  0.666000, -1.941840
  0.668000, -1.821110
  0.670000, -1.714840
  0.672000, -1.616820
  0.674000, -1.525390
  0.676000, -1.447980
  0.678000, -1.382450
  0.680000, -1.324400
  0.682000, -1.264300
  0.684000, -1.197700
  0.686000, -1.130950
  0.688000, -1.059420
  0.690000, -0.976020
  0.692000, -0.886480
  0.694000, -0.792560
  0.696000, -0.708590
  0.698000, -0.624940
  0.700000, -0.554610
  0.702000, -0.493250
  0.704000, -0.435730
  0.706000, -0.389260
  0.708000, -0.350200
  0.710000, -0.312030
  0.712000, -0.281190
  0.714000, -0.269170
  0.716000, -0.257110
  0.718000, -0.246820
  0.720000, -0.227250
  0.722000, -0.193140
  0.724000, -0.149850
  0.726000, -0.095370
  0.728000, -0.032140
  0.730000,  0.032730
  0.732000,  0.097960
  0.734000,  0.154640
  0.736000,  0.203610
  0.738000,  0.250860
  0.740000,  0.278050
  0.742000,  0.306400
  0.744000,  0.332660
  0.746000,  0.361340
  0.748000,  0.390500
  0.750000,  0.416710
  0.752000,  0.434650
  0.754000,  0.456840
  0.756000,  0.470660
  0.758000,  0.483240
  0.760000,  0.485300
  0.762000,  0.486710
  0.764000,  0.490780
  0.766000,  0.495250
  0.768000,  0.505060
  0.770000,  0.523260
  0.772000,  0.548670
  0.774000,  0.577930
  0.776000,  0.604290
  0.778000,  0.638400
  0.780000,  0.671030
  0.782000,  0.702180
  0.784000,  0.732950
  0.786000,  0.750870
  0.788000,  0.760730
  0.790000,  0.762900
  0.792000,  0.754550
  0.794000,  0.740250
  0.796000,  0.716640
  0.798000,  0.689260
  0.800000,  0.662760
  0.802000,  0.633350
  0.804000,  0.607350
  0.806000,  0.593140
  0.808000,  0.582740
  0.810000,  0.582440
  0.812000,  0.577580
  0.814000,  0.589880
  0.816000,  0.596430
  0.818000,  0.611140
  0.820000,  0.619560
  0.822000,  0.631240
  0.824000,  0.642150
  0.826000,  0.640530
  0.828000,  0.632090
  0.830000,  0.606870
  0.832000,  0.573570
  0.834000,  0.534930
  0.836000,  0.495110
  0.838000,  0.449300
  0.840000,  0.413370
  0.842000,  0.388410
  0.844000,  0.364070
  0.846000,  0.350540
  0.848000,  0.345980
  0.850000,  0.342010
  0.852000,  0.339100
  0.854000,  0.340090
  0.856000,  0.337730
  0.858000,  0.329200
  0.860000,  0.316190
  0.862000,  0.297820
  0.864000,  0.283710
  0.866000,  0.266940
  0.868000,  0.242240
  0.870000,  0.220070
  0.872000,  0.204500
  0.874000,  0.188690
  0.876000,  0.174200
  0.878000,  0.156950
  0.880000,  0.147400
  0.882000,  0.144050
  0.884000,  0.146280
  0.886000,  0.145350
  0.888000,  0.143290
  0.890000,  0.139020
  0.892000,  0.128650
  0.894000,  0.115590
  0.896000,  0.090920
  0.898000,  0.054670
  0.900000,  0.023700
  0.902000,  0.004720
  0.904000, -0.012040
  0.906000, -0.013800
  0.908000, -0.005140
  0.910000,  0.007040
  0.912000,  0.018640
  0.914000,  0.034570
  0.916000,  0.031620
  0.918000,  0.028590
  0.920000,  0.015020
  0.922000, -0.001130
  0.924000, -0.024850
  0.926000, -0.044810
  0.928000, -0.054630
  0.930000, -0.058170
  0.932000, -0.056750
  0.934000, -0.039460
  0.936000, -0.013340
  0.938000,  0.019140
  0.940000,  0.056980
  0.942000,  0.085820
  0.944000,  0.106560
  0.946000,  0.111360
  0.948000,  0.104070
  0.950000,  0.081690
  0.952000,  0.049040
  0.954000,  0.006650
  0.956000, -0.034520
  0.958000, -0.061780
  0.960000, -0.071200
  0.962000, -0.067000
  0.964000, -0.043280
  0.966000, -0.004220
  0.968000,  0.045490
  0.970000,  0.093390
  0.972000,  0.130750
  0.974000,  0.160040
  0.976000,  0.159150
  0.978000,  0.139610
  0.980000,  0.093370
  0.982000,  0.035220
  0.984000, -0.027740
  0.986000, -0.088170
  0.988000, -0.136400
  0.990000, -0.176260
  0.992000, -0.192550
  0.994000, -0.178040
  0.996000, -0.136080
  0.998000, -0.076560
  1.000000, -0.000610
