# z (nm)   (kJ/mol)
  0.068000,271.503050
  0.070000,266.145570
  0.072000,262.965240
  0.074000,260.075300
  0.076000,257.253570
  0.078000,254.522490
  0.080000,251.758440
  0.082000,248.973180
  0.084000,246.116750
  0.086000,243.175150
  0.088000,240.120600
  0.090000,236.927420
  0.092000,233.570310
  0.094000,230.034270
  0.096000,226.316600
  0.098000,222.423520
  0.100000,218.388380
  0.102000,214.257390
  0.104000,210.069880
  0.106000,205.866190
  0.108000,201.665440
  0.110000,197.451470
  0.112000,193.193840
  0.114000,188.861230
  0.116000,184.423680
  0.118000,179.882790
  0.120000,175.269330
  0.122000,170.650140
  0.124000,166.110120
  0.126000,161.727440
  0.128000,157.558200
  0.130000,153.621320
  0.132000,149.893380
  0.134000,146.320880
  0.136000,142.839060
  0.138000,139.376510
  0.140000,135.877980
  0.142000,132.315400
  0.144000,128.689650
  0.146000,125.056210
  0.148000,121.466840
  0.150000,117.985320
  0.152000,114.629880
  0.154000,111.402920
  0.156000,108.261950
  0.158000,105.156380
  0.160000,102.055800
  0.162000, 98.927970
  0.164000, 95.764820
  0.166000, 92.602150
  0.168000, 89.451900
  0.170000, 86.342050
  0.172000, 83.303510
  0.174000, 80.342960
  0.176000, 77.472710
  0.178000, 74.690930
  0.180000, 71.982730
  0.182000, 69.342460
  0.184000, 66.734530
  0.186000, 64.144900
  0.188000, 61.549930
  0.190000, 58.948450
  0.192000, 56.359290
  0.194000, 53.804130
  0.196000, 51.315780
  0.198000, 48.930200
  0.200000, 46.656490
  0.202000, 44.505800
  0.204000, 42.445000
  0.206000, 40.451090
  0.208000, 38.490490
  0.210000, 36.548300
  0.212000, 34.614000
  0.214000, 32.675190
  0.216000, 30.741140
  0.218000, 28.823890
  0.220000, 26.934560
  0.222000, 25.080730
  0.224000, 23.289490
  0.226000, 21.572980
  0.228000, 19.949910
  0.230000, 18.431050
  0.232000, 17.013250
  0.234000, 15.691750
  0.236000, 14.423850
  0.238000, 13.201080
  0.240000, 11.983650
  0.242000, 10.761140
  0.244000,  9.532640
  0.246000,  8.298180
  0.248000,  7.073710
  0.250000,  5.879340
  0.252000,  4.740930
  0.254000,  3.673570
  0.256000,  2.683150
  0.258000,  1.782420
  0.260000,  0.975820
  0.262000,  0.242630
  0.264000, -0.433250
  0.266000, -1.063830
  0.268000, -1.668030
  0.270000, -2.262360
  0.272000, -2.847810
  0.274000, -3.425340
  0.276000, -3.970090
  0.278000, -4.499450
  0.280000, -4.988780
  0.282000, -5.425830
  0.284000, -5.806020
  0.286000, -6.124400
  0.288000, -6.397670
  0.290000, -6.638570
  0.292000, -6.856790
  0.294000, -7.055770
  0.296000, -7.259010
  0.298000, -7.463310
  0.300000, -7.674360
  0.302000, -7.882350
  0.304000, -8.086140
  0.306000, -8.281620
  0.308000, -8.478950
  0.310000, -8.676400
  0.312000, -8.879960
  0.314000, -9.086830
  0.316000, -9.302120
  0.318000, -9.515920
  0.320000, -9.711720
  0.322000, -9.908130
  0.324000,-10.082000
  0.326000,-10.236610
  0.328000,-10.380880
  0.330000,-10.509750
  0.332000,-10.626050
  0.334000,-10.736750
  0.336000,-10.854930
  0.338000,-10.963190
  0.340000,-11.062740
  0.342000,-11.160950
  0.344000,-11.242190
  0.346000,-11.312690
  0.348000,-11.357940
  0.350000,-11.370780
  0.352000,-11.360570
  0.354000,-11.329440
  0.356000,-11.276930
  0.358000,-11.201250
  0.360000,-11.107860
  0.362000,-11.005070
  0.364000,-10.897250
  0.366000,-10.774920
  0.368000,-10.655790
  0.370000,-10.534510
  0.372000,-10.402960
  0.374000,-10.259960
  0.376000,-10.104170
  0.378000, -9.926900
  0.380000, -9.716530
  0.382000, -9.483030
  0.384000, -9.237500
  0.386000, -8.986420
  0.388000, -8.735770
  0.390000, -8.500780
  0.392000, -8.284300
  0.394000, -8.084330
  0.396000, -7.901630
  0.398000, -7.720860
  0.400000, -7.529700
  0.402000, -7.326950
  0.404000, -7.113710
  0.406000, -6.872530
  0.408000, -6.616100
  0.410000, -6.357820
  0.412000, -6.105260
  0.414000, -5.868030
  0.416000, -5.652470
  0.418000, -5.467260
  0.420000, -5.303630
  0.422000, -5.163730
  0.424000, -5.034610
  0.426000, -4.909520
  0.428000, -4.794860
  0.430000, -4.677820
  0.432000, -4.560340
  0.434000, -4.444530
  0.436000, -4.325600
  0.438000, -4.213070
  0.440000, -4.111160
  0.442000, -4.015860
  0.444000, -3.919620
  0.446000, -3.829090
  0.448000, -3.742970
  0.450000, -3.657290
  0.452000, -3.576110
  0.454000, -3.486390
  0.456000, -3.406330
  0.458000, -3.326770
  0.460000, -3.251390
  0.462000, -3.198640
  0.464000, -3.145660
  0.466000, -3.101440
  0.468000, -3.064500
  0.470000, -3.019830
  0.472000, -2.976600
  0.474000, -2.922210
  0.476000, -2.855300
  0.478000, -2.777960
  0.480000, -2.693390
  0.482000, -2.605840
  0.484000, -2.514200
  0.486000, -2.430040
  0.488000, -2.350000
  0.490000, -2.268410
  0.492000, -2.196750
  0.494000, -2.130280
  0.496000, -2.072390
  0.498000, -2.018510
  0.500000, -1.961290
  0.502000, -1.894290
  0.504000, -1.824820
  0.506000, -1.746770
  0.508000, -1.650450
  0.510000, -1.559040
  0.512000, -1.462540
  0.514000, -1.367200
  0.516000, -1.273370
  0.518000, -1.183200
  0.520000, -1.088490
  0.522000, -0.995630
  0.524000, -0.893510
  0.526000, -0.792080
  0.528000, -0.689080
  0.530000, -0.580690
  0.532000, -0.474460
  0.534000, -0.364660
  0.536000, -0.263040
  0.538000, -0.167800
  0.540000, -0.083410
  0.542000, -0.001370
  0.544000,  0.068270
  0.546000,  0.129000
  0.548000,  0.193600
  0.550000,  0.249080
  0.552000,  0.301800
  0.554000,  0.367720
  0.556000,  0.438760
  0.558000,  0.522160
  0.560000,  0.614770
  0.562000,  0.709560
  0.564000,  0.817650
  0.566000,  0.933020
  0.568000,  1.049800
  0.570000,  1.165120
  0.572000,  1.270360
  0.574000,  1.372330
  0.576000,  1.457410
  0.578000,  1.536670
  0.580000,  1.605630
  0.582000,  1.666360
  0.584000,  1.724450
  0.586000,  1.784810
  0.588000,  1.848870
  0.590000,  1.914600
  0.592000,  1.993660
  0.594000,  2.083980
  0.596000,  2.186540
  0.598000,  2.301440
  0.600000,  2.409590
  0.602000,  2.521300
  0.604000,  2.635040
  0.606000,  2.723030
  0.608000,  2.792430
  0.610000,  2.843870
  0.612000,  2.878250
  0.614000,  2.898570
  0.616000,  2.903400
  0.618000,  2.902020
  0.620000,  2.887110
  0.622000,  2.872160
  0.624000,  2.840250
  0.626000,  2.811230
  0.628000,  2.787330
  0.630000,  2.755590
  0.632000,  2.718060
  0.634000,  2.667880
  0.636000,  2.605920
  0.638000,  2.531280
  0.640000,  2.444940
  0.642000,  2.347540
  0.644000,  2.243700
  0.646000,  2.145370
  0.648000,  2.050680
  0.650000,  1.974670
  0.652000,  1.919100
  0.654000,  1.871570
  0.656000,  1.841290
  0.658000,  1.820800
  0.660000,  1.798760
  0.662000,  1.769240
  0.664000,  1.725710
  0.666000,  1.664600
  0.668000,  1.592100
  0.670000,  1.500790
  0.672000,  1.400430
  0.674000,  1.293020
  0.676000,  1.187250
  0.678000,  1.091050
  0.680000,  1.000480
  0.682000,  0.923080
  0.684000,  0.858180
  0.686000,  0.792500
  0.688000,  0.752140
  0.690000,  0.719200
  0.692000,  0.690830
  0.694000,  0.670450
  0.696000,  0.649810
  0.698000,  0.621590
  0.700000,  0.592180
  0.702000,  0.558740
  0.704000,  0.518300
  0.706000,  0.474130
  0.708000,  0.427940
  0.710000,  0.379420
  0.712000,  0.325460
  0.714000,  0.275400
  0.716000,  0.223860
  0.718000,  0.171500
  0.720000,  0.126200
  0.722000,  0.086700
  0.724000,  0.044990
  0.726000,  0.017500
  0.728000,  0.004250
  0.730000, -0.005610
  0.732000, -0.003430
  0.734000,  0.001370
  0.736000,  0.013790
  0.738000,  0.017120
  0.740000,  0.016780
  0.742000,  0.012200
  0.744000, -0.009010
  0.746000, -0.024770
  0.748000, -0.051300
  0.750000, -0.070490
  0.752000, -0.091240
  0.754000, -0.104430
  0.756000, -0.107720
  0.758000, -0.108880
  0.760000, -0.103790
  0.762000, -0.091230
  0.764000, -0.072660
  0.766000, -0.055570
  0.768000, -0.038700
  0.770000, -0.018620
  0.772000, -0.018200
  0.774000, -0.012720
  0.776000, -0.009250
  0.778000, -0.000190
  0.780000, -0.001340
  0.782000, -0.001750
  0.784000,  0.000160
  0.786000,  0.013070
  0.788000,  0.031100
  0.790000,  0.049500
  0.792000,  0.071130
  0.794000,  0.096040
  0.796000,  0.115860
  0.798000,  0.142550
  0.800000,  0.169040
  0.802000,  0.183420
  0.804000,  0.193400
  0.806000,  0.196160
  0.808000,  0.191860
  0.810000,  0.191970
  0.812000,  0.183060
  0.814000,  0.175540
  0.816000,  0.168390
  0.818000,  0.165730
  0.820000,  0.159870
  0.822000,  0.151750
  0.824000,  0.150360
  0.826000,  0.147890
  0.828000,  0.146790
  0.830000,  0.148730
  0.832000,  0.159690
  0.834000,  0.169870
  0.836000,  0.175870
  0.838000,  0.194560
  0.840000,  0.213580
  0.842000,  0.233300
  0.844000,  0.255900
  0.846000,  0.272230
  0.848000,  0.286420
  0.850000,  0.300830
  0.852000,  0.303520
  0.854000,  0.303940
  0.856000,  0.297270
  0.858000,  0.284990
  0.860000,  0.267610
  0.862000,  0.251950
  0.864000,  0.246080
  0.866000,  0.236800
  0.868000,  0.237370
  0.870000,  0.242750
  0.872000,  0.249580
  0.874000,  0.256480
  0.876000,  0.264840
  0.878000,  0.272960
  0.880000,  0.274800
  0.882000,  0.271260
  0.884000,  0.262930
  0.886000,  0.249780
  0.888000,  0.233560
  0.890000,  0.214430
  0.892000,  0.202430
  0.894000,  0.198610
  0.896000,  0.189670
  0.898000,  0.191910
  0.900000,  0.197400
  0.902000,  0.203030
  0.904000,  0.206150
  0.906000,  0.205190
  0.908000,  0.204810
  0.910000,  0.189890
  0.912000,  0.165490
  0.914000,  0.145110
  0.916000,  0.113020
  0.918000,  0.082870
  0.920000,  0.065460
  0.922000,  0.049260
  0.924000,  0.047230
  0.926000,  0.053100
  0.928000,  0.063070
  0.930000,  0.075000
  0.932000,  0.092390
  0.934000,  0.100310
  0.936000,  0.102580
  0.938000,  0.099520
  0.940000,  0.088770
  0.942000,  0.064850
  0.944000,  0.038370
  0.946000,  0.007530
  0.948000, -0.023910
  0.950000, -0.058780
  0.952000, -0.084900
  0.954000, -0.099030
  0.956000, -0.104410
  0.958000, -0.101710
  0.960000, -0.083930
  0.962000, -0.060620
  0.964000, -0.031880
  0.966000, -0.000180
  0.968000,  0.030060
  0.970000,  0.054060
  0.972000,  0.066770
  0.974000,  0.066240
  0.976000,  0.039810
  0.978000,  0.001990
  0.980000, -0.042540
  0.982000, -0.100070
  0.984000, -0.160820
  0.986000, -0.208480
  0.988000, -0.244910
  0.990000, -0.270500
  0.992000, -0.269980
  0.994000, -0.253680
  0.996000, -0.219570
  0.998000, -0.174860
  1.000000, -0.127190
