# z (nm)   (kJ/mol)
  0.064000,262.614400
  0.066000,258.332320
  0.068000,255.775660
  0.070000,252.734900
  0.072000,249.755690
  0.074000,246.790580
  0.076000,244.008880
  0.078000,241.189970
  0.080000,238.325980
  0.082000,235.401190
  0.084000,232.397360
  0.086000,229.313440
  0.088000,226.143530
  0.090000,222.873240
  0.092000,219.496010
  0.094000,216.001190
  0.096000,212.387860
  0.098000,208.639750
  0.100000,204.749460
  0.102000,200.707850
  0.104000,196.511840
  0.106000,192.166570
  0.108000,187.694430
  0.110000,183.131500
  0.112000,178.508000
  0.114000,173.869160
  0.116000,169.258480
  0.118000,164.700400
  0.120000,160.221710
  0.122000,155.849570
  0.124000,151.628940
  0.126000,147.599100
  0.128000,143.758720
  0.130000,140.050010
  0.132000,136.394480
  0.134000,132.742590
  0.136000,129.085450
  0.138000,125.442970
  0.140000,121.841010
  0.142000,118.258700
  0.144000,114.683280
  0.146000,111.077900
  0.148000,107.463170
  0.150000,103.876250
  0.152000,100.360230
  0.154000, 96.943110
  0.156000, 93.640270
  0.158000, 90.438170
  0.160000, 87.311810
  0.162000, 84.237260
  0.164000, 81.188750
  0.166000, 78.149890
  0.168000, 75.111640
  0.170000, 72.064650
  0.172000, 69.019540
  0.174000, 66.003470
  0.176000, 63.053180
  0.178000, 60.181670
  0.180000, 57.423070
  0.182000, 54.773090
  0.184000, 52.208180
  0.186000, 49.690190
  0.188000, 47.174300
  0.190000, 44.653570
  0.192000, 42.125870
  0.194000, 39.631340
  0.196000, 37.208740
  0.198000, 34.882470
  0.200000, 32.659670
  0.202000, 30.516910
  0.204000, 28.436980
  0.206000, 26.386850
  0.208000, 24.352430
  0.210000, 22.328130
  0.212000, 20.320130
  0.214000, 18.359470
  0.216000, 16.462490
  0.218000, 14.651190
  0.220000, 12.928790
  0.222000, 11.300780
  0.224000,  9.749020
  0.226000,  8.255450
  0.228000,  6.805030
  0.230000,  5.386930
  0.232000,  3.985120
  0.234000,  2.595420
  0.236000,  1.230150
  0.238000, -0.092860
  0.240000, -1.352880
  0.242000, -2.549990
  0.244000, -3.667210
  0.246000, -4.710300
  0.248000, -5.693320
  0.250000, -6.644100
  0.252000, -7.576320
  0.254000, -8.508890
  0.256000, -9.426420
  0.258000,-10.326560
  0.260000,-11.191650
  0.262000,-12.003580
  0.264000,-12.745640
  0.266000,-13.415750
  0.268000,-14.011750
  0.270000,-14.561990
  0.272000,-15.075750
  0.274000,-15.581830
  0.276000,-16.082640
  0.278000,-16.570330
  0.280000,-17.049140
  0.282000,-17.492340
  0.284000,-17.896790
  0.286000,-18.253710
  0.288000,-18.571180
  0.290000,-18.867100
  0.292000,-19.142430
  0.294000,-19.408940
  0.296000,-19.658040
  0.298000,-19.874540
  0.300000,-20.043360
  0.302000,-20.167340
  0.304000,-20.243150
  0.306000,-20.280490
  0.308000,-20.290200
  0.310000,-20.307140
  0.312000,-20.322210
  0.314000,-20.344390
  0.316000,-20.376050
  0.318000,-20.399620
  0.320000,-20.409590
  0.322000,-20.387650
  0.324000,-20.331330
  0.326000,-20.242860
  0.328000,-20.122520
  0.330000,-19.977700
  0.332000,-19.817260
  0.334000,-19.651180
  0.336000,-19.482230
  0.338000,-19.316590
  0.340000,-19.148540
  0.342000,-18.979070
  0.344000,-18.800540
  0.346000,-18.617200
  0.348000,-18.416570
  0.350000,-18.217050
  0.352000,-18.016460
  0.354000,-17.812280
  0.356000,-17.615640
  0.358000,-17.422850
  0.360000,-17.228790
  0.362000,-17.031270
  0.364000,-16.828470
  0.366000,-16.614470
  0.368000,-16.390450
  0.370000,-16.141000
  0.372000,-15.883010
  0.374000,-15.608780
  0.376000,-15.313440
  0.378000,-15.020470
  0.380000,-14.732320
  0.382000,-14.453280
  0.384000,-14.185730
  0.386000,-13.929960
  0.388000,-13.694450
  0.390000,-13.461710
  0.392000,-13.223930
  0.394000,-12.967660
  0.396000,-12.698360
  0.398000,-12.425200
  0.400000,-12.131550
  0.402000,-11.824840
  0.404000,-11.512970
  0.406000,-11.214240
  0.408000,-10.918580
  0.410000,-10.647110
  0.412000,-10.389710
  0.414000,-10.151040
  0.416000, -9.929530
  0.418000, -9.723590
  0.420000, -9.528350
  0.422000, -9.330120
  0.424000, -9.133640
  0.426000, -8.935650
  0.428000, -8.737010
  0.430000, -8.535950
  0.432000, -8.328460
  0.434000, -8.117870
  0.436000, -7.910770
  0.438000, -7.711110
  0.440000, -7.515920
  0.442000, -7.322740
  0.444000, -7.140880
  0.446000, -6.961480
  0.448000, -6.796470
  0.450000, -6.645800
  0.452000, -6.501760
  0.454000, -6.378290
  0.456000, -6.266080
  0.458000, -6.166210
  0.460000, -6.057180
  0.462000, -5.959770
  0.464000, -5.859470
  0.466000, -5.750380
  0.468000, -5.638620
  0.470000, -5.512380
  0.472000, -5.380820
  0.474000, -5.254700
  0.476000, -5.143580
  0.478000, -5.049910
  0.480000, -4.984580
  0.482000, -4.946670
  0.484000, -4.923290
  0.486000, -4.902890
  0.488000, -4.890220
  0.490000, -4.860310
  0.492000, -4.821670
  0.494000, -4.760120
  0.496000, -4.691640
  0.498000, -4.619360
  0.500000, -4.527430
  0.502000, -4.425560
  0.504000, -4.311160
  0.506000, -4.198840
  0.508000, -4.094300
  0.510000, -3.992340
  0.512000, -3.896320
  0.514000, -3.811350
  0.516000, -3.729290
  0.518000, -3.647540
  0.520000, -3.562120
  0.522000, -3.482710
  0.524000, -3.409470
  0.526000, -3.345370
  0.528000, -3.307270
  0.530000, -3.290560
  0.532000, -3.281440
  0.534000, -3.287150
  0.536000, -3.301090
  0.538000, -3.323790
  0.540000, -3.363780
  0.542000, -3.452340
  0.544000, -3.579850
  0.546000, -3.758830
  0.548000, -3.966290
  0.550000, -4.204450
  0.552000, -4.443730
  0.554000, -4.668890
  0.556000, -4.865770
  0.558000, -5.023900
  0.560000, -5.161040
  0.562000, -5.270260
  0.564000, -5.368070
  0.566000, -5.459770
  0.568000, -5.542790
  0.570000, -5.631070
  0.572000, -5.699440
  0.574000, -5.742580
  0.576000, -5.768570
  0.578000, -5.768090
  0.580000, -5.746140
  0.582000, -5.714120
  0.584000, -5.683180
  0.586000, -5.651060
  0.588000, -5.635010
  0.590000, -5.631480
  0.592000, -5.645730
  0.594000, -5.683410
  0.596000, -5.740950
  0.598000, -5.825600
  0.600000, -5.939040
  0.602000, -6.081850
  0.604000, -6.252440
  0.606000, -6.452340
  0.608000, -6.675260
  0.610000, -6.914600
  0.612000, -7.163940
  0.614000, -7.412300
  0.616000, -7.651700
  0.618000, -7.880620
  0.620000, -8.084910
  0.622000, -8.269240
  0.624000, -8.432770
  0.626000, -8.558830
  0.628000, -8.657390
  0.630000, -8.738050
  0.632000, -8.799100
  0.634000, -8.839220
  0.636000, -8.852740
  0.638000, -8.851010
  0.640000, -8.829710
  0.642000, -8.770580
  0.644000, -8.678100
  0.646000, -8.538180
  0.648000, -8.362120
  0.650000, -8.138210
  0.652000, -7.897810
  0.654000, -7.646760
  0.656000, -7.384820
  0.658000, -7.129040
  0.660000, -6.875600
  0.662000, -6.623190
  0.664000, -6.378470
  0.666000, -6.126100
  0.668000, -5.859640
  0.670000, -5.583210
  0.672000, -5.289590
  0.674000, -4.987050
  0.676000, -4.676140
  0.678000, -4.363250
  0.680000, -4.062370
  0.682000, -3.782950
  0.684000, -3.528850
  0.686000, -3.300250
  0.688000, -3.099830
  0.690000, -2.924140
  0.692000, -2.764180
  0.694000, -2.617740
  0.696000, -2.472620
  0.698000, -2.326870
  0.700000, -2.177580
  0.702000, -2.039840
  0.704000, -1.901780
  0.706000, -1.774620
  0.708000, -1.660980
  0.710000, -1.556830
  0.712000, -1.467520
  0.714000, -1.392010
  0.716000, -1.330030
  0.718000, -1.284230
  0.720000, -1.248960
  0.722000, -1.230890
  0.724000, -1.214570
  0.726000, -1.207830
  0.728000, -1.201700
  0.730000, -1.195020
  0.732000, -1.180220
  0.734000, -1.153850
  0.736000, -1.119950
  0.738000, -1.088350
  0.740000, -1.052880
  0.742000, -1.021230
  0.744000, -0.996960
  0.746000, -0.971100
  0.748000, -0.966160
  0.750000, -0.971550
  0.752000, -0.979050
  0.754000, -0.982940
  0.756000, -0.978300
  0.758000, -0.960920
  0.760000, -0.927470
  0.762000, -0.883860
  0.764000, -0.829240
  0.766000, -0.768570
  0.768000, -0.716100
  0.770000, -0.666380
  0.772000, -0.624330
  0.774000, -0.598730
  0.776000, -0.575120
  0.778000, -0.554230
  0.780000, -0.542370
  0.782000, -0.540160
  0.784000, -0.534460
  0.786000, -0.528600
  0.788000, -0.515010
  0.790000, -0.494320
  0.792000, -0.469400
  0.794000, -0.440840
  0.796000, -0.413290
  0.798000, -0.378160
  0.800000, -0.340310
  0.802000, -0.305660
  0.804000, -0.259150
  0.806000, -0.218310
  0.808000, -0.185690
  0.810000, -0.153090
  0.812000, -0.133240
  0.814000, -0.111200
  0.816000, -0.096620
  0.818000, -0.092960
  0.820000, -0.088210
  0.822000, -0.089090
  0.824000, -0.088420
  0.826000, -0.091600
  0.828000, -0.086320
  0.830000, -0.075780
  0.832000, -0.059620
  0.834000, -0.035140
  0.836000, -0.004700
  0.838000,  0.022340
  0.840000,  0.053690
  0.842000,  0.087190
  0.844000,  0.120960
  0.846000,  0.157290
  0.848000,  0.184460
  0.850000,  0.206340
  0.852000,  0.223050
  0.854000,  0.240060
  0.856000,  0.243610
  0.858000,  0.247380
  0.860000,  0.240030
  0.862000,  0.231460
  0.864000,  0.221270
  0.866000,  0.213970
  0.868000,  0.208590
  0.870000,  0.206380
  0.872000,  0.198120
  0.874000,  0.190570
  0.876000,  0.191200
  0.878000,  0.184920
  0.880000,  0.182420
  0.882000,  0.180840
  0.884000,  0.181300
  0.886000,  0.187700
  0.888000,  0.196680
  0.890000,  0.215340
  0.892000,  0.236340
  0.894000,  0.253260
  0.896000,  0.267230
  0.898000,  0.269970
  0.900000,  0.267610
  0.902000,  0.256500
  0.904000,  0.236490
  0.906000,  0.208600
  0.908000,  0.174470
  0.910000,  0.145370
  0.912000,  0.114570
  0.914000,  0.089820
  0.916000,  0.063490
  0.918000,  0.049280
  0.920000,  0.045370
  0.922000,  0.061160
  0.924000,  0.091980
  0.926000,  0.127260
  0.928000,  0.160340
  0.930000,  0.181940
  0.932000,  0.189490
  0.934000,  0.183130
  0.936000,  0.160350
  0.938000,  0.128740
  0.940000,  0.085850
  0.942000,  0.042410
  0.944000,  0.000340
  0.946000, -0.037390
  0.948000, -0.082130
  0.950000, -0.127230
  0.952000, -0.161460
  0.954000, -0.186470
  0.956000, -0.194100
  0.958000, -0.197430
  0.960000, -0.182040
  0.962000, -0.154660
  0.964000, -0.123820
  0.966000, -0.096450
  0.968000, -0.063350
  0.970000, -0.044990
  0.972000, -0.028140
  0.974000, -0.021610
  0.976000, -0.014480
  0.978000, -0.015630
  0.980000, -0.019340
  0.982000, -0.028930
  0.984000, -0.036800
  0.986000, -0.058130
  0.988000, -0.074050
  0.990000, -0.098500
  0.992000, -0.121840
  0.994000, -0.140510
  0.996000, -0.155440
  0.998000, -0.163980
  1.000000, -0.168040
