# z (nm)   (kJ/mol)
  0.078000,266.244810
  0.080000,264.067310
  0.082000,261.440150
  0.084000,259.311610
  0.086000,258.676560
  0.088000,256.481070
  0.090000,254.151290
  0.092000,252.460430
  0.094000,250.132730
  0.096000,247.808160
  0.098000,245.477340
  0.100000,243.096360
  0.102000,240.607160
  0.104000,238.045670
  0.106000,235.383790
  0.108000,232.585960
  0.110000,229.649080
  0.112000,226.557590
  0.114000,223.311520
  0.116000,219.910130
  0.118000,216.354500
  0.120000,212.653830
  0.122000,208.820170
  0.124000,204.873010
  0.126000,200.818790
  0.128000,196.674980
  0.130000,192.444920
  0.132000,188.139660
  0.134000,183.773100
  0.136000,179.351570
  0.138000,174.883640
  0.140000,170.403090
  0.142000,165.933960
  0.144000,161.525770
  0.146000,157.215040
  0.148000,153.041740
  0.150000,149.025830
  0.152000,145.176610
  0.154000,141.488620
  0.156000,137.926420
  0.158000,134.435610
  0.160000,130.949710
  0.162000,127.398000
  0.164000,123.768330
  0.166000,120.099960
  0.168000,116.470110
  0.170000,112.959440
  0.172000,109.614560
  0.174000,106.411470
  0.176000,103.296150
  0.178000,100.200110
  0.180000, 97.079170
  0.182000, 93.931390
  0.184000, 90.765590
  0.186000, 87.606850
  0.188000, 84.484010
  0.190000, 81.413600
  0.192000, 78.393460
  0.194000, 75.430770
  0.196000, 72.533640
  0.198000, 69.707370
  0.200000, 66.941160
  0.202000, 64.225410
  0.204000, 61.543580
  0.206000, 58.866860
  0.208000, 56.193350
  0.210000, 53.527640
  0.212000, 50.902740
  0.214000, 48.320830
  0.216000, 45.815020
  0.218000, 43.379770
  0.220000, 41.032840
  0.222000, 38.766020
  0.224000, 36.582510
  0.226000, 34.468360
  0.228000, 32.403210
  0.230000, 30.372820
  0.232000, 28.340030
  0.234000, 26.311130
  0.236000, 24.286450
  0.238000, 22.298420
  0.240000, 20.370300
  0.242000, 18.517340
  0.244000, 16.750620
  0.246000, 15.065090
  0.248000, 13.444320
  0.250000, 11.884980
  0.252000, 10.364700
  0.254000,  8.882960
  0.256000,  7.437770
  0.258000,  6.035040
  0.260000,  4.676620
  0.262000,  3.354980
  0.264000,  2.076380
  0.266000,  0.834270
  0.268000, -0.356450
  0.270000, -1.500110
  0.272000, -2.592860
  0.274000, -3.634460
  0.276000, -4.613520
  0.278000, -5.533060
  0.280000, -6.394990
  0.282000, -7.197840
  0.284000, -7.945700
  0.286000, -8.659580
  0.288000, -9.338540
  0.290000,-10.006770
  0.292000,-10.652480
  0.294000,-11.286260
  0.296000,-11.890380
  0.298000,-12.457100
  0.300000,-12.972030
  0.302000,-13.433290
  0.304000,-13.847780
  0.306000,-14.205610
  0.308000,-14.531060
  0.310000,-14.823180
  0.312000,-15.086260
  0.314000,-15.342420
  0.316000,-15.584810
  0.318000,-15.814890
  0.320000,-16.029610
  0.322000,-16.216860
  0.324000,-16.380540
  0.326000,-16.531060
  0.328000,-16.656170
  0.330000,-16.769020
  0.332000,-16.867980
  0.334000,-16.953250
  0.336000,-17.027980
  0.338000,-17.103000
  0.340000,-17.175180
  0.342000,-17.229620
  0.344000,-17.272330
  0.346000,-17.306900
  0.348000,-17.314700
  0.350000,-17.310000
  0.352000,-17.291940
  0.354000,-17.264200
  0.356000,-17.237100
  0.358000,-17.208050
  0.360000,-17.184280
  0.362000,-17.171470
  0.364000,-17.166600
  0.366000,-17.157110
  0.368000,-17.131120
  0.370000,-17.092070
  0.372000,-17.028230
  0.374000,-16.938940
  0.376000,-16.822880
  0.378000,-16.690850
  0.380000,-16.552430
  0.382000,-16.446140
  0.384000,-16.351980
  0.386000,-16.288330
  0.388000,-16.251330
  0.390000,-16.238970
  0.392000,-16.222440
  0.394000,-16.180720
  0.396000,-16.105930
  0.398000,-15.996120
  0.400000,-15.860040
  0.402000,-15.703170
  0.404000,-15.543700
  0.406000,-15.395780
  0.408000,-15.265330
  0.410000,-15.146300
  0.412000,-15.025570
  0.414000,-14.912160
  0.416000,-14.792170
  0.418000,-14.662030
  0.420000,-14.529040
  0.422000,-14.390660
  0.424000,-14.259150
  0.426000,-14.134580
  0.428000,-14.011940
  0.430000,-13.883380
  0.432000,-13.746840
  0.434000,-13.592970
  0.436000,-13.413440
  0.438000,-13.222200
  0.440000,-13.022320
  0.442000,-12.800980
  0.444000,-12.593800
  0.446000,-12.396220
  0.448000,-12.212150
  0.450000,-12.045420
  0.452000,-11.904720
  0.454000,-11.768450
  0.456000,-11.632690
  0.458000,-11.487590
  0.460000,-11.347910
  0.462000,-11.200690
  0.464000,-11.040360
  0.466000,-10.898340
  0.468000,-10.754780
  0.470000,-10.630200
  0.472000,-10.517830
  0.474000,-10.423370
  0.476000,-10.338500
  0.478000,-10.262400
  0.480000,-10.204020
  0.482000,-10.156150
  0.484000,-10.116280
  0.486000,-10.091980
  0.488000,-10.074710
  0.490000,-10.082940
  0.492000,-10.099640
  0.494000,-10.109500
  0.496000,-10.110870
  0.498000,-10.105980
  0.500000,-10.111220
  0.502000,-10.127570
  0.504000,-10.157840
  0.506000,-10.213180
  0.508000,-10.293200
  0.510000,-10.385530
  0.512000,-10.501490
  0.514000,-10.624240
  0.516000,-10.738190
  0.518000,-10.859000
  0.520000,-10.955070
  0.522000,-11.035710
  0.524000,-11.093070
  0.526000,-11.141310
  0.528000,-11.192010
  0.530000,-11.253180
  0.532000,-11.327330
  0.534000,-11.413860
  0.536000,-11.516070
  0.538000,-11.620610
  0.540000,-11.727920
  0.542000,-11.821240
  0.544000,-11.905220
  0.546000,-11.972280
  0.548000,-12.026770
  0.550000,-12.065190
  0.552000,-12.102890
  0.554000,-12.143740
  0.556000,-12.186250
  0.558000,-12.239400
  0.560000,-12.287760
  0.562000,-12.338140
  0.564000,-12.377030
  0.566000,-12.404020
  0.568000,-12.413810
  0.570000,-12.403260
  0.572000,-12.383640
  0.574000,-12.370080
  0.576000,-12.355110
  0.578000,-12.346700
  0.580000,-12.360450
  0.582000,-12.383270
  0.584000,-12.409460
  0.586000,-12.445180
  0.588000,-12.476200
  0.590000,-12.499210
  0.592000,-12.520350
  0.594000,-12.537270
  0.596000,-12.555550
  0.598000,-12.563400
  0.600000,-12.572390
  0.602000,-12.569690
  0.604000,-12.558680
  0.606000,-12.552380
  0.608000,-12.549640
  0.610000,-12.559370
  0.612000,-12.572200
  0.614000,-12.597210
  0.616000,-12.630220
  0.618000,-12.666630
  0.620000,-12.704150
  0.622000,-12.729910
  0.624000,-12.749170
  0.626000,-12.747380
  0.628000,-12.734920
  0.630000,-12.709330
  0.632000,-12.675980
  0.634000,-12.649720
  0.636000,-12.643180
  0.638000,-12.655880
  0.640000,-12.691940
  0.642000,-12.734120
  0.644000,-12.784490
  0.646000,-12.823590
  0.648000,-12.860140
  0.650000,-12.875390
  0.652000,-12.872130
  0.654000,-12.854870
  0.656000,-12.830140
  0.658000,-12.810680
  0.660000,-12.792310
  0.662000,-12.776130
  0.664000,-12.764130
  0.666000,-12.752930
  0.668000,-12.726370
  0.670000,-12.691490
  0.672000,-12.644530
  0.674000,-12.587360
  0.676000,-12.517730
  0.678000,-12.433170
  0.680000,-12.337980
  0.682000,-12.239340
  0.684000,-12.127400
  0.686000,-11.999350
  0.688000,-11.862720
  0.690000,-11.705430
  0.692000,-11.526030
  0.694000,-11.313930
  0.696000,-11.073930
  0.698000,-10.817210
  0.700000,-10.528340
  0.702000,-10.228610
  0.704000, -9.912810
  0.706000, -9.588270
  0.708000, -9.266780
  0.710000, -8.942470
  0.712000, -8.619560
  0.714000, -8.288720
  0.716000, -7.955090
  0.718000, -7.611820
  0.720000, -7.262540
  0.722000, -6.913800
  0.724000, -6.571500
  0.726000, -6.230490
  0.728000, -5.904650
  0.730000, -5.587800
  0.732000, -5.282960
  0.734000, -4.996950
  0.736000, -4.717440
  0.738000, -4.448340
  0.740000, -4.186050
  0.742000, -3.930220
  0.744000, -3.682730
  0.746000, -3.444100
  0.748000, -3.214300
  0.750000, -2.986170
  0.752000, -2.773770
  0.754000, -2.571850
  0.756000, -2.376000
  0.758000, -2.190140
  0.760000, -2.011490
  0.762000, -1.832560
  0.764000, -1.663530
  0.766000, -1.501570
  0.768000, -1.342280
  0.770000, -1.191020
  0.772000, -1.044020
  0.774000, -0.908740
  0.776000, -0.786900
  0.778000, -0.678760
  0.780000, -0.577120
  0.782000, -0.492740
  0.784000, -0.421640
  0.786000, -0.358010
  0.788000, -0.300900
  0.790000, -0.249230
  0.792000, -0.200130
  0.794000, -0.154830
  0.796000, -0.116120
  0.798000, -0.080770
  0.800000, -0.045570
  0.802000, -0.020110
  0.804000, -0.003890
  0.806000,  0.007950
  0.808000,  0.013570
  0.810000,  0.012350
  0.812000, -0.001230
  0.814000, -0.008540
  0.816000, -0.008390
  0.818000, -0.011860
  0.820000, -0.002550
  0.822000,  0.015120
  0.824000,  0.023540
  0.826000,  0.031620
  0.828000,  0.036000
  0.830000,  0.036970
  0.832000,  0.028080
  0.834000,  0.021030
  0.836000,  0.018110
  0.838000,  0.024020
  0.840000,  0.036860
  0.842000,  0.063050
  0.844000,  0.099240
  0.846000,  0.140600
  0.848000,  0.191280
  0.850000,  0.244050
  0.852000,  0.295650
  0.854000,  0.334600
  0.856000,  0.367440
  0.858000,  0.383270
  0.860000,  0.385420
  0.862000,  0.364300
  0.864000,  0.326990
  0.866000,  0.272030
  0.868000,  0.216150
  0.870000,  0.165560
  0.872000,  0.120480
  0.874000,  0.093270
  0.876000,  0.084960
  0.878000,  0.096630
  0.880000,  0.122590
  0.882000,  0.157080
  0.884000,  0.195420
  0.886000,  0.230670
  0.888000,  0.246640
  0.890000,  0.246470
  0.892000,  0.227880
  0.894000,  0.197240
  0.896000,  0.152320
  0.898000,  0.100980
  0.900000,  0.042760
  0.902000, -0.001460
  0.904000, -0.037940
  0.906000, -0.058630
  0.908000, -0.063190
  0.910000, -0.062780
  0.912000, -0.046450
  0.914000, -0.013160
  0.916000,  0.018040
  0.918000,  0.046590
  0.920000,  0.076310
  0.922000,  0.084060
  0.924000,  0.085520
  0.926000,  0.074050
  0.928000,  0.054330
  0.930000,  0.031730
  0.932000,  0.008870
  0.934000, -0.002520
  0.936000, -0.013180
  0.938000, -0.015780
  0.940000, -0.006560
  0.942000,  0.003610
  0.944000,  0.020740
  0.946000,  0.038170
  0.948000,  0.051650
  0.950000,  0.055460
  0.952000,  0.052560
  0.954000,  0.046630
  0.956000,  0.031820
  0.958000,  0.013670
  0.960000, -0.003760
  0.962000, -0.011910
  0.964000, -0.005580
  0.966000, -0.003250
  0.968000,  0.007030
  0.970000,  0.022330
  0.972000,  0.040430
  0.974000,  0.050940
  0.976000,  0.055820
  0.978000,  0.048030
  0.980000,  0.032490
  0.982000,  0.012650
  0.984000, -0.013310
  0.986000, -0.038820
  0.988000, -0.061390
  0.990000, -0.083180
  0.992000, -0.096660
  0.994000, -0.106870
  0.996000, -0.110360
  0.998000, -0.108590
  1.000000, -0.098230
