# z (nm)   (kJ/mol)
  0.066000,278.417780
  0.068000,276.145970
  0.070000,273.916460
  0.072000,271.726270
  0.074000,269.374880
  0.076000,267.211490
  0.078000,264.887820
  0.080000,262.688870
  0.082000,260.468880
  0.084000,258.239340
  0.086000,255.982100
  0.088000,253.680080
  0.090000,251.342210
  0.092000,248.936940
  0.094000,246.470480
  0.096000,243.920360
  0.098000,241.271280
  0.100000,238.510870
  0.102000,235.625640
  0.104000,232.601350
  0.106000,229.422660
  0.108000,226.079260
  0.110000,222.559500
  0.112000,218.860940
  0.114000,214.981330
  0.116000,210.937070
  0.118000,206.750660
  0.120000,202.456360
  0.122000,198.097640
  0.124000,193.718430
  0.126000,189.369100
  0.128000,185.083050
  0.130000,180.875580
  0.132000,176.756470
  0.134000,172.714980
  0.136000,168.753620
  0.138000,164.857320
  0.140000,161.026600
  0.142000,157.258070
  0.144000,153.544770
  0.146000,149.876850
  0.148000,146.255660
  0.150000,142.677480
  0.152000,139.149350
  0.154000,135.694920
  0.156000,132.325850
  0.158000,129.064340
  0.160000,125.911150
  0.162000,122.853910
  0.164000,119.871800
  0.166000,116.935420
  0.168000,114.011900
  0.170000,111.087060
  0.172000,108.142480
  0.174000,105.185740
  0.176000,102.222190
  0.178000, 99.271960
  0.180000, 96.351070
  0.182000, 93.476230
  0.184000, 90.665000
  0.186000, 87.917570
  0.188000, 85.228160
  0.190000, 82.596590
  0.192000, 80.003210
  0.194000, 77.434200
  0.196000, 74.874960
  0.198000, 72.337880
  0.200000, 69.834580
  0.202000, 67.375950
  0.204000, 64.981120
  0.206000, 62.677690
  0.208000, 60.462020
  0.210000, 58.331000
  0.212000, 56.266100
  0.214000, 54.245790
  0.216000, 52.259950
  0.218000, 50.279880
  0.220000, 48.316220
  0.222000, 46.356680
  0.224000, 44.415340
  0.226000, 42.486860
  0.228000, 40.593020
  0.230000, 38.738980
  0.232000, 36.938620
  0.234000, 35.198090
  0.236000, 33.535000
  0.238000, 31.943570
  0.240000, 30.427160
  0.242000, 28.979800
  0.244000, 27.588390
  0.246000, 26.230810
  0.248000, 24.901130
  0.250000, 23.586220
  0.252000, 22.271540
  0.254000, 20.965690
  0.256000, 19.667970
  0.258000, 18.387550
  0.260000, 17.139050
  0.262000, 15.935990
  0.264000, 14.792130
  0.266000, 13.719730
  0.268000, 12.714700
  0.270000, 11.778640
  0.272000, 10.902760
  0.274000, 10.075870
  0.276000,  9.290200
  0.278000,  8.537290
  0.280000,  7.798860
  0.282000,  7.072070
  0.284000,  6.349820
  0.286000,  5.643050
  0.288000,  4.950620
  0.290000,  4.274980
  0.292000,  3.649330
  0.294000,  3.068310
  0.296000,  2.547280
  0.298000,  2.075750
  0.300000,  1.644380
  0.302000,  1.242630
  0.304000,  0.854650
  0.306000,  0.479130
  0.308000,  0.108510
  0.310000, -0.260600
  0.312000, -0.623960
  0.314000, -0.975630
  0.316000, -1.320430
  0.318000, -1.648740
  0.320000, -1.958290
  0.322000, -2.256770
  0.324000, -2.528280
  0.326000, -2.789930
  0.328000, -3.027670
  0.330000, -3.253760
  0.332000, -3.469050
  0.334000, -3.683490
  0.336000, -3.913320
  0.338000, -4.153820
  0.340000, -4.404200
  0.342000, -4.657540
  0.344000, -4.899270
  0.346000, -5.131600
  0.348000, -5.345470
  0.350000, -5.542780
  0.352000, -5.718360
  0.354000, -5.869640
  0.356000, -6.002740
  0.358000, -6.112170
  0.360000, -6.205030
  0.362000, -6.284370
  0.364000, -6.360090
  0.366000, -6.434970
  0.368000, -6.504730
  0.370000, -6.578830
  0.372000, -6.654310
  0.374000, -6.733490
  0.376000, -6.806510
  0.378000, -6.875490
  0.380000, -6.920960
  0.382000, -6.944350
  0.384000, -6.948260
  0.386000, -6.922810
  0.388000, -6.875780
  0.390000, -6.815700
  0.392000, -6.745530
  0.394000, -6.666690
  0.396000, -6.594770
  0.398000, -6.532370
  0.400000, -6.473890
  0.402000, -6.432950
  0.404000, -6.406200
  0.406000, -6.387500
  0.408000, -6.366660
  0.410000, -6.347740
  0.412000, -6.316190
  0.414000, -6.274780
  0.416000, -6.205150
  0.418000, -6.126580
  0.420000, -6.029790
  0.422000, -5.914600
  0.424000, -5.783320
  0.426000, -5.637760
  0.428000, -5.486070
  0.430000, -5.335160
  0.432000, -5.189900
  0.434000, -5.047260
  0.436000, -4.925070
  0.438000, -4.808970
  0.440000, -4.712120
  0.442000, -4.616500
  0.444000, -4.535780
  0.446000, -4.458630
  0.448000, -4.365330
  0.450000, -4.270790
  0.452000, -4.162780
  0.454000, -4.041250
  0.456000, -3.910650
  0.458000, -3.766920
  0.460000, -3.617270
  0.462000, -3.470060
  0.464000, -3.335470
  0.466000, -3.205960
  0.468000, -3.082110
  0.470000, -2.971840
  0.472000, -2.863770
  0.474000, -2.767670
  0.476000, -2.681490
  0.478000, -2.597670
  0.480000, -2.527970
  0.482000, -2.459130
  0.484000, -2.389780
  0.486000, -2.326600
  0.488000, -2.254980
  0.490000, -2.171550
  0.492000, -2.081140
  0.494000, -1.985240
  0.496000, -1.890170
  0.498000, -1.792630
  0.500000, -1.698390
  0.502000, -1.608290
  0.504000, -1.523700
  0.506000, -1.440670
  0.508000, -1.363840
  0.510000, -1.291380
  0.512000, -1.213150
  0.514000, -1.140320
  0.516000, -1.059830
  0.518000, -0.978350
  0.520000, -0.895500
  0.522000, -0.811450
  0.524000, -0.727220
  0.526000, -0.648270
  0.528000, -0.568770
  0.530000, -0.493270
  0.532000, -0.416790
  0.534000, -0.346480
  0.536000, -0.272900
  0.538000, -0.205740
  0.540000, -0.124400
  0.542000, -0.036710
  0.544000,  0.057400
  0.546000,  0.158850
  0.548000,  0.263730
  0.550000,  0.376990
  0.552000,  0.489530
  0.554000,  0.608280
  0.556000,  0.719520
  0.558000,  0.824620
  0.560000,  0.934670
  0.562000,  1.044020
  0.564000,  1.144620
  0.566000,  1.243800
  0.568000,  1.347820
  0.570000,  1.456040
  0.572000,  1.571440
  0.574000,  1.693810
  0.576000,  1.826670
  0.578000,  1.963280
  0.580000,  2.105870
  0.582000,  2.246810
  0.584000,  2.390870
  0.586000,  2.528370
  0.588000,  2.655900
  0.590000,  2.772120
  0.592000,  2.879300
  0.594000,  2.978940
  0.596000,  3.070730
  0.598000,  3.158600
  0.600000,  3.233860
  0.602000,  3.308490
  0.604000,  3.379070
  0.606000,  3.440850
  0.608000,  3.494610
  0.610000,  3.545480
  0.612000,  3.587980
  0.614000,  3.633130
  0.616000,  3.666200
  0.618000,  3.703130
  0.620000,  3.734160
  0.622000,  3.762070
  0.624000,  3.788730
  0.626000,  3.795970
  0.628000,  3.792600
  0.630000,  3.772000
  0.632000,  3.737390
  0.634000,  3.678610
  0.636000,  3.607660
  0.638000,  3.525670
  0.640000,  3.437030
  0.642000,  3.342850
  0.644000,  3.243920
  0.646000,  3.146330
  0.648000,  3.047450
  0.650000,  2.954380
  0.652000,  2.863090
  0.654000,  2.780480
  0.656000,  2.699240
  0.658000,  2.625410
  0.660000,  2.555380
  0.662000,  2.490510
  0.664000,  2.428710
  0.666000,  2.367770
  0.668000,  2.313980
  0.670000,  2.256980
  0.672000,  2.188920
  0.674000,  2.113660
  0.676000,  2.027020
  0.678000,  1.936230
  0.680000,  1.836660
  0.682000,  1.727680
  0.684000,  1.613950
  0.686000,  1.506820
  0.688000,  1.406180
  0.690000,  1.320570
  0.692000,  1.246550
  0.694000,  1.191180
  0.696000,  1.145190
  0.698000,  1.116160
  0.700000,  1.091860
  0.702000,  1.079260
  0.704000,  1.065580
  0.706000,  1.049880
  0.708000,  1.031760
  0.710000,  0.999750
  0.712000,  0.963990
  0.714000,  0.925380
  0.716000,  0.877760
  0.718000,  0.824050
  0.720000,  0.769510
  0.722000,  0.718180
  0.724000,  0.673980
  0.726000,  0.632230
  0.728000,  0.599170
  0.730000,  0.570920
  0.732000,  0.550400
  0.734000,  0.532830
  0.736000,  0.516950
  0.738000,  0.504250
  0.740000,  0.493420
  0.742000,  0.477450
  0.744000,  0.464610
  0.746000,  0.448620
  0.748000,  0.438820
  0.750000,  0.424550
  0.752000,  0.412460
  0.754000,  0.403130
  0.756000,  0.390780
  0.758000,  0.376930
  0.760000,  0.365600
  0.762000,  0.352290
  0.764000,  0.333790
  0.766000,  0.319340
  0.768000,  0.301690
  0.770000,  0.283450
  0.772000,  0.263470
  0.774000,  0.238690
  0.776000,  0.220060
  0.778000,  0.204730
  0.780000,  0.195830
  0.782000,  0.191980
  0.784000,  0.193900
  0.786000,  0.193670
  0.788000,  0.203150
  0.790000,  0.207470
  0.792000,  0.207210
  0.794000,  0.210030
  0.796000,  0.219550
  0.798000,  0.218550
  0.800000,  0.221170
  0.802000,  0.217280
  0.804000,  0.212280
  0.806000,  0.209030
  0.808000,  0.191920
  0.810000,  0.177870
  0.812000,  0.157570
  0.814000,  0.126830
  0.816000,  0.099660
  0.818000,  0.074520
  0.820000,  0.059820
  0.822000,  0.049450
  0.824000,  0.045470
  0.826000,  0.052970
  0.828000,  0.059620
  0.830000,  0.080400
  0.832000,  0.106060
  0.834000,  0.133530
  0.836000,  0.159880
  0.838000,  0.171500
  0.840000,  0.182970
  0.842000,  0.196170
  0.844000,  0.204710
  0.846000,  0.208470
  0.848000,  0.214060
  0.850000,  0.221750
  0.852000,  0.234730
  0.854000,  0.252920
  0.856000,  0.271380
  0.858000,  0.288420
  0.860000,  0.305810
  0.862000,  0.317440
  0.864000,  0.330760
  0.866000,  0.336160
  0.868000,  0.343340
  0.870000,  0.345100
  0.872000,  0.346400
  0.874000,  0.350980
  0.876000,  0.354650
  0.878000,  0.360700
  0.880000,  0.365430
  0.882000,  0.368170
  0.884000,  0.366150
  0.886000,  0.364000
  0.888000,  0.347590
  0.890000,  0.332380
  0.892000,  0.317070
  0.894000,  0.294060
  0.896000,  0.273350
  0.898000,  0.256100
  0.900000,  0.239540
  0.902000,  0.232690
  0.904000,  0.226610
  0.906000,  0.225980
  0.908000,  0.223060
  0.910000,  0.224770
  0.912000,  0.228880
  0.914000,  0.227950
  0.916000,  0.227640
  0.918000,  0.218900
  0.920000,  0.210240
  0.922000,  0.201450
  0.924000,  0.190830
  0.926000,  0.176620
  0.928000,  0.166510
  0.930000,  0.152390
  0.932000,  0.135500
  0.934000,  0.118550
  0.936000,  0.106190
  0.938000,  0.089390
  0.940000,  0.078310
  0.942000,  0.068720
  0.944000,  0.061980
  0.946000,  0.062480
  0.948000,  0.066320
  0.950000,  0.071220
  0.952000,  0.076630
  0.954000,  0.080300
  0.956000,  0.082950
  0.958000,  0.075990
  0.960000,  0.062960
  0.962000,  0.040750
  0.964000,  0.006680
  0.966000, -0.029100
  0.968000, -0.070410
  0.970000, -0.116720
  0.972000, -0.162390
  0.974000, -0.207240
  0.976000, -0.241040
  0.978000, -0.264740
  0.980000, -0.281720
  0.982000, -0.294810
  0.984000, -0.302820
  0.986000, -0.293680
  0.988000, -0.295210
  0.990000, -0.291320
  0.992000, -0.294660
  0.994000, -0.297010
  0.996000, -0.305880
  0.998000, -0.322770
  1.000000, -0.347890
