# z (nm)   (kJ/mol)
  0.110000,267.672730
  0.112000,265.432040
  0.114000,263.236890
  0.116000,261.076570
  0.118000,265.709290
  0.120000,262.436100
  0.122000,259.112130
  0.124000,256.581050
  0.126000,254.085360
  0.128000,251.568530
  0.130000,248.974600
  0.132000,246.358350
  0.134000,243.685570
  0.136000,240.946610
  0.138000,238.109990
  0.140000,235.164380
  0.142000,232.103120
  0.144000,228.914970
  0.146000,225.592400
  0.148000,222.136190
  0.150000,218.536250
  0.152000,214.794130
  0.154000,210.901990
  0.156000,206.870940
  0.158000,202.703270
  0.160000,198.428930
  0.162000,194.081900
  0.164000,189.715150
  0.166000,185.383490
  0.168000,181.142200
  0.170000,177.022360
  0.172000,173.052110
  0.174000,169.223010
  0.176000,165.519080
  0.178000,161.920490
  0.180000,158.419840
  0.182000,155.022080
  0.184000,151.734240
  0.186000,148.586450
  0.188000,145.579750
  0.190000,142.704440
  0.192000,139.934080
  0.194000,137.223950
  0.196000,134.533750
  0.198000,131.839350
  0.200000,129.131840
  0.202000,126.424730
  0.204000,123.735810
  0.206000,121.084120
  0.208000,118.472620
  0.210000,115.891880
  0.212000,113.327990
  0.214000,110.765600
  0.216000,108.186710
  0.218000,105.599590
  0.220000,103.016380
  0.222000,100.457750
  0.224000, 97.945050
  0.226000, 95.522230
  0.228000, 93.212680
  0.230000, 91.030520
  0.232000, 88.961370
  0.234000, 86.973960
  0.236000, 85.025140
  0.238000, 83.051790
  0.240000, 81.033820
  0.242000, 78.977730
  0.244000, 76.933310
  0.246000, 74.947620
  0.248000, 73.051740
  0.250000, 71.250510
  0.252000, 69.512410
  0.254000, 67.822780
  0.256000, 66.164570
  0.258000, 64.547860
  0.260000, 62.956890
  0.262000, 61.372920
  0.264000, 59.804950
  0.266000, 58.238190
  0.268000, 56.674290
  0.270000, 55.096220
  0.272000, 53.530410
  0.274000, 51.984430
  0.276000, 50.477120
  0.278000, 48.999570
  0.280000, 47.539530
  0.282000, 46.065940
  0.284000, 44.548730
  0.286000, 42.999090
  0.288000, 41.424260
  0.290000, 39.857550
  0.292000, 38.350490
  0.294000, 36.915470
  0.296000, 35.560600
  0.298000, 34.263700
  0.300000, 33.003700
  0.302000, 31.740720
  0.304000, 30.475890
  0.306000, 29.208490
  0.308000, 27.950390
  0.310000, 26.719140
  0.312000, 25.532570
  0.314000, 24.401210
  0.316000, 23.327560
  0.318000, 22.297880
  0.320000, 21.318540
  0.322000, 20.381950
  0.324000, 19.465420
  0.326000, 18.562390
  0.328000, 17.673350
  0.330000, 16.795840
  0.332000, 15.930930
  0.334000, 15.085540
  0.336000, 14.258590
  0.338000, 13.458360
  0.340000, 12.679610
  0.342000, 11.945500
  0.344000, 11.255820
  0.346000, 10.622040
  0.348000, 10.060460
  0.350000,  9.537240
  0.352000,  9.036340
  0.354000,  8.521470
  0.356000,  7.988110
  0.358000,  7.424450
  0.360000,  6.849740
  0.362000,  6.264220
  0.364000,  5.703390
  0.366000,  5.169280
  0.368000,  4.678210
  0.370000,  4.229480
  0.372000,  3.808130
  0.374000,  3.414430
  0.376000,  3.022360
  0.378000,  2.639090
  0.380000,  2.266450
  0.382000,  1.890410
  0.384000,  1.508870
  0.386000,  1.110990
  0.388000,  0.713000
  0.390000,  0.308660
  0.392000, -0.080270
  0.394000, -0.450240
  0.396000, -0.783250
  0.398000, -1.071010
  0.400000, -1.326680
  0.402000, -1.549870
  0.404000, -1.737370
  0.406000, -1.913130
  0.408000, -2.073640
  0.410000, -2.219620
  0.412000, -2.359650
  0.414000, -2.494980
  0.416000, -2.639540
  0.418000, -2.786590
  0.420000, -2.936890
  0.422000, -3.074040
  0.424000, -3.193490
  0.426000, -3.286830
  0.428000, -3.343270
  0.430000, -3.354520
  0.432000, -3.326190
  0.434000, -3.280510
  0.436000, -3.233030
  0.438000, -3.204990
  0.440000, -3.212500
  0.442000, -3.263110
  0.444000, -3.348290
  0.446000, -3.454980
  0.448000, -3.541240
  0.450000, -3.600640
  0.452000, -3.625200
  0.454000, -3.612470
  0.456000, -3.589820
  0.458000, -3.577570
  0.460000, -3.600380
  0.462000, -3.675490
  0.464000, -3.804410
  0.466000, -3.976180
  0.468000, -4.176110
  0.470000, -4.395000
  0.472000, -4.601670
  0.474000, -4.782660
  0.476000, -4.931150
  0.478000, -5.035480
  0.480000, -5.105110
  0.482000, -5.154630
  0.484000, -5.206060
  0.486000, -5.270490
  0.488000, -5.353690
  0.490000, -5.451600
  0.492000, -5.554250
  0.494000, -5.641620
  0.496000, -5.706850
  0.498000, -5.735700
  0.500000, -5.750320
  0.502000, -5.758070
  0.504000, -5.764370
  0.506000, -5.776340
  0.508000, -5.803870
  0.510000, -5.841860
  0.512000, -5.876460
  0.514000, -5.912440
  0.516000, -5.925370
  0.518000, -5.922150
  0.520000, -5.901110
  0.522000, -5.859910
  0.524000, -5.803890
  0.526000, -5.749740
  0.528000, -5.695430
  0.530000, -5.648590
  0.532000, -5.614430
  0.534000, -5.582690
  0.536000, -5.561580
  0.538000, -5.542920
  0.540000, -5.513640
  0.542000, -5.465070
  0.544000, -5.401320
  0.546000, -5.330410
  0.548000, -5.258640
  0.550000, -5.202510
  0.552000, -5.173860
  0.554000, -5.152180
  0.556000, -5.134820
  0.558000, -5.102720
  0.560000, -5.045130
  0.562000, -4.968900
  0.564000, -4.866540
  0.566000, -4.767390
  0.568000, -4.671900
  0.570000, -4.593420
  0.572000, -4.532030
  0.574000, -4.483640
  0.576000, -4.448340
  0.578000, -4.408470
  0.580000, -4.355150
  0.582000, -4.288940
  0.584000, -4.208740
  0.586000, -4.109840
  0.588000, -4.012000
  0.590000, -3.903910
  0.592000, -3.795880
  0.594000, -3.696920
  0.596000, -3.593870
  0.598000, -3.484270
  0.600000, -3.363600
  0.602000, -3.227350
  0.604000, -3.081070
  0.606000, -2.927190
  0.608000, -2.766900
  0.610000, -2.617710
  0.612000, -2.477540
  0.614000, -2.340390
  0.616000, -2.206390
  0.618000, -2.061390
  0.620000, -1.910630
  0.622000, -1.750970
  0.624000, -1.581090
  0.626000, -1.406080
  0.628000, -1.241720
  0.630000, -1.096320
  0.632000, -0.971110
  0.634000, -0.867100
  0.636000, -0.778150
  0.638000, -0.697980
  0.640000, -0.622260
  0.642000, -0.552400
  0.644000, -0.484270
  0.646000, -0.412930
  0.648000, -0.350710
  0.650000, -0.297890
  0.652000, -0.259290
  0.654000, -0.242640
  0.656000, -0.252760
  0.658000, -0.298090
  0.660000, -0.374340
  0.662000, -0.477940
  0.664000, -0.589620
  0.666000, -0.698990
  0.668000, -0.801900
  0.670000, -0.879240
  0.672000, -0.928030
  0.674000, -0.963080
  0.676000, -0.995530
  0.678000, -1.026690
  0.680000, -1.080290
  0.682000, -1.164550
  0.684000, -1.283190
  0.686000, -1.416830
  0.688000, -1.549410
  0.690000, -1.654160
  0.692000, -1.718830
  0.694000, -1.717960
  0.696000, -1.681660
  0.698000, -1.610980
  0.700000, -1.526200
  0.702000, -1.456790
  0.704000, -1.407440
  0.706000, -1.392890
  0.708000, -1.405150
  0.710000, -1.431450
  0.712000, -1.456690
  0.714000, -1.459800
  0.716000, -1.427580
  0.718000, -1.352840
  0.720000, -1.232750
  0.722000, -1.064100
  0.724000, -0.891000
  0.726000, -0.726650
  0.728000, -0.577690
  0.730000, -0.446050
  0.732000, -0.333900
  0.734000, -0.224810
  0.736000, -0.113960
  0.738000, -0.003170
  0.740000,  0.098450
  0.742000,  0.207610
  0.744000,  0.322220
  0.746000,  0.440610
  0.748000,  0.556690
  0.750000,  0.658270
  0.752000,  0.743490
  0.754000,  0.804140
  0.756000,  0.863780
  0.758000,  0.925780
  0.760000,  0.993150
  0.762000,  1.070920
  0.764000,  1.153550
  0.766000,  1.246690
  0.768000,  1.328280
  0.770000,  1.392600
  0.772000,  1.424070
  0.774000,  1.429210
  0.776000,  1.396080
  0.778000,  1.332320
  0.780000,  1.266220
  0.782000,  1.207520
  0.784000,  1.163320
  0.786000,  1.139090
  0.788000,  1.133300
  0.790000,  1.139780
  0.792000,  1.158990
  0.794000,  1.172360
  0.796000,  1.174110
  0.798000,  1.173370
  0.800000,  1.173980
  0.802000,  1.164290
  0.804000,  1.163690
  0.806000,  1.141950
  0.808000,  1.122250
  0.810000,  1.107470
  0.812000,  1.074690
  0.814000,  1.042000
  0.816000,  1.012410
  0.818000,  0.983480
  0.820000,  0.967450
  0.822000,  0.962800
  0.824000,  0.970780
  0.826000,  0.993210
  0.828000,  1.016920
  0.830000,  1.039580
  0.832000,  1.040130
  0.834000,  1.030060
  0.836000,  1.008150
  0.838000,  0.979840
  0.840000,  0.944000
  0.842000,  0.907170
  0.844000,  0.873210
  0.846000,  0.851170
  0.848000,  0.829400
  0.850000,  0.813720
  0.852000,  0.803760
  0.854000,  0.792250
  0.856000,  0.770790
  0.858000,  0.757910
  0.860000,  0.736650
  0.862000,  0.716170
  0.864000,  0.701060
  0.866000,  0.691430
  0.868000,  0.680500
  0.870000,  0.679660
  0.872000,  0.669990
  0.874000,  0.649700
  0.876000,  0.609730
  0.878000,  0.555400
  0.880000,  0.496920
  0.882000,  0.437860
  0.884000,  0.380500
  0.886000,  0.352280
  0.888000,  0.348730
  0.890000,  0.367420
  0.892000,  0.413280
  0.894000,  0.456970
  0.896000,  0.497580
  0.898000,  0.523480
  0.900000,  0.517600
  0.902000,  0.494310
  0.904000,  0.453270
  0.906000,  0.405530
  0.908000,  0.359100
  0.910000,  0.322350
  0.912000,  0.301240
  0.914000,  0.299360
  0.916000,  0.308940
  0.918000,  0.316740
  0.920000,  0.324160
  0.922000,  0.328060
  0.924000,  0.311380
  0.926000,  0.290390
  0.928000,  0.260690
  0.930000,  0.221830
  0.932000,  0.185420
  0.934000,  0.149990
  0.936000,  0.113420
  0.938000,  0.080870
  0.940000,  0.051920
  0.942000,  0.015060
  0.944000, -0.025830
  0.946000, -0.070020
  0.948000, -0.114040
  0.950000, -0.157390
  0.952000, -0.192090
  0.954000, -0.220740
  0.956000, -0.250070
  0.958000, -0.274950
  0.960000, -0.276950
  0.962000, -0.261090
  0.964000, -0.229400
  0.966000, -0.184760
  0.968000, -0.136050
  0.970000, -0.085150
  0.972000, -0.054090
  0.974000, -0.044170
  0.976000, -0.058830
  0.978000, -0.092550
  0.980000, -0.143370
  0.982000, -0.195130
  0.984000, -0.243230
  0.986000, -0.285390
  0.988000, -0.310840
  0.990000, -0.319010
  0.992000, -0.312370
  0.994000, -0.292780
  0.996000, -0.270660
  0.998000, -0.253530
  1.000000, -0.239550
