# z (nm)   (kJ/mol)
  0.088000,269.623550
  0.090000,265.901370
  0.092000,262.633250
  0.094000,260.083990
  0.096000,257.463080
  0.098000,254.855440
  0.100000,252.323990
  0.102000,249.771760
  0.104000,247.180410
  0.106000,244.526630
  0.108000,241.763910
  0.110000,238.909950
  0.112000,235.914020
  0.114000,232.770570
  0.116000,229.458550
  0.118000,225.970230
  0.120000,222.294950
  0.122000,218.445660
  0.124000,214.430340
  0.126000,210.269740
  0.128000,205.984710
  0.130000,201.608510
  0.132000,197.162420
  0.134000,192.670440
  0.136000,188.160010
  0.138000,183.654430
  0.140000,179.171920
  0.142000,174.743320
  0.144000,170.387040
  0.146000,166.121210
  0.148000,161.949700
  0.150000,157.890350
  0.152000,153.946070
  0.154000,150.143370
  0.156000,146.489060
  0.158000,142.965220
  0.160000,139.546840
  0.162000,136.185080
  0.164000,132.830200
  0.166000,129.454420
  0.168000,126.051710
  0.170000,122.643030
  0.172000,119.248930
  0.174000,115.892700
  0.176000,112.593480
  0.178000,109.346800
  0.180000,106.153850
  0.182000,103.002790
  0.184000, 99.889730
  0.186000, 96.813250
  0.188000, 93.767450
  0.190000, 90.769650
  0.192000, 87.829820
  0.194000, 84.950300
  0.196000, 82.141530
  0.198000, 79.395350
  0.200000, 76.703600
  0.202000, 74.050780
  0.204000, 71.432720
  0.206000, 68.844710
  0.208000, 66.293500
  0.210000, 63.784210
  0.212000, 61.315900
  0.214000, 58.876260
  0.216000, 56.476360
  0.218000, 54.149090
  0.220000, 51.952700
  0.222000, 49.915170
  0.224000, 48.007350
  0.226000, 46.174540
  0.228000, 44.335480
  0.230000, 42.454090
  0.232000, 40.543680
  0.234000, 38.648310
  0.236000, 36.813510
  0.238000, 35.050620
  0.240000, 33.367960
  0.242000, 31.752180
  0.244000, 30.200420
  0.246000, 28.712000
  0.248000, 27.298900
  0.250000, 25.962270
  0.252000, 24.668680
  0.254000, 23.417970
  0.256000, 22.171460
  0.258000, 20.939390
  0.260000, 19.713330
  0.262000, 18.536550
  0.264000, 17.437790
  0.266000, 16.421330
  0.268000, 15.484400
  0.270000, 14.600180
  0.272000, 13.712120
  0.274000, 12.816630
  0.276000, 11.901590
  0.278000, 11.023330
  0.280000, 10.225900
  0.282000,  9.554840
  0.284000,  8.988840
  0.286000,  8.476680
  0.288000,  7.929490
  0.290000,  7.303230
  0.292000,  6.596120
  0.294000,  5.848020
  0.296000,  5.096970
  0.298000,  4.380230
  0.300000,  3.719340
  0.302000,  3.134360
  0.304000,  2.587200
  0.306000,  2.083230
  0.308000,  1.588800
  0.310000,  1.095950
  0.312000,  0.595910
  0.314000,  0.094020
  0.316000, -0.421240
  0.318000, -0.944260
  0.320000, -1.463670
  0.322000, -1.976590
  0.324000, -2.470240
  0.326000, -2.930780
  0.328000, -3.347170
  0.330000, -3.725780
  0.332000, -4.086090
  0.334000, -4.442560
  0.336000, -4.780340
  0.338000, -5.111650
  0.340000, -5.424720
  0.342000, -5.715530
  0.344000, -5.979420
  0.346000, -6.234400
  0.348000, -6.475320
  0.350000, -6.712600
  0.352000, -6.948050
  0.354000, -7.189410
  0.356000, -7.437480
  0.358000, -7.672770
  0.360000, -7.895880
  0.362000, -8.091670
  0.364000, -8.267900
  0.366000, -8.417930
  0.368000, -8.548820
  0.370000, -8.653630
  0.372000, -8.752740
  0.374000, -8.852780
  0.376000, -8.958070
  0.378000, -9.069660
  0.380000, -9.195380
  0.382000, -9.315220
  0.384000, -9.438110
  0.386000, -9.551400
  0.388000, -9.640340
  0.390000, -9.707210
  0.392000, -9.758090
  0.394000, -9.791320
  0.396000, -9.812880
  0.398000, -9.823990
  0.400000, -9.832940
  0.402000, -9.832860
  0.404000, -9.829340
  0.406000, -9.831100
  0.408000, -9.834830
  0.410000, -9.843980
  0.412000, -9.859480
  0.414000, -9.865840
  0.416000, -9.866990
  0.418000, -9.852180
  0.420000, -9.824020
  0.422000, -9.787940
  0.424000, -9.738800
  0.426000, -9.683280
  0.428000, -9.620480
  0.430000, -9.548350
  0.432000, -9.473420
  0.434000, -9.392970
  0.436000, -9.311050
  0.438000, -9.217170
  0.440000, -9.115620
  0.442000, -8.999810
  0.444000, -8.877750
  0.446000, -8.748860
  0.448000, -8.606450
  0.450000, -8.455400
  0.452000, -8.305320
  0.454000, -8.136610
  0.456000, -7.970080
  0.458000, -7.805270
  0.460000, -7.636220
  0.462000, -7.469910
  0.464000, -7.318070
  0.466000, -7.176150
  0.468000, -7.034230
  0.470000, -6.890890
  0.472000, -6.746520
  0.474000, -6.600370
  0.476000, -6.443200
  0.478000, -6.290880
  0.480000, -6.139900
  0.482000, -5.985410
  0.484000, -5.834420
  0.486000, -5.680050
  0.488000, -5.530990
  0.490000, -5.388290
  0.492000, -5.249990
  0.494000, -5.131860
  0.496000, -5.022730
  0.498000, -4.924910
  0.500000, -4.846610
  0.502000, -4.774850
  0.504000, -4.703130
  0.506000, -4.627380
  0.508000, -4.545190
  0.510000, -4.459120
  0.512000, -4.368700
  0.514000, -4.291450
  0.516000, -4.217770
  0.518000, -4.155010
  0.520000, -4.103970
  0.522000, -4.069530
  0.524000, -4.045830
  0.526000, -4.030730
  0.528000, -4.016430
  0.530000, -4.000280
  0.532000, -3.973380
  0.534000, -3.939050
  0.536000, -3.895640
  0.538000, -3.846760
  0.540000, -3.794120
  0.542000, -3.736750
  0.544000, -3.682840
  0.546000, -3.628650
  0.548000, -3.576280
  0.550000, -3.524090
  0.552000, -3.476120
  0.554000, -3.436290
  0.556000, -3.399090
  0.558000, -3.361340
  0.560000, -3.324570
  0.562000, -3.278410
  0.564000, -3.206490
  0.566000, -3.125530
  0.568000, -3.027590
  0.570000, -2.933720
  0.572000, -2.829490
  0.574000, -2.731980
  0.576000, -2.643250
  0.578000, -2.554460
  0.580000, -2.457480
  0.582000, -2.348800
  0.584000, -2.221100
  0.586000, -2.071980
  0.588000, -1.915090
  0.590000, -1.745800
  0.592000, -1.582430
  0.594000, -1.424590
  0.596000, -1.264890
  0.598000, -1.098100
  0.600000, -0.907170
  0.602000, -0.703950
  0.604000, -0.482700
  0.606000, -0.260050
  0.608000, -0.042670
  0.610000,  0.159450
  0.612000,  0.347450
  0.614000,  0.510400
  0.616000,  0.661060
  0.618000,  0.798100
  0.620000,  0.928140
  0.622000,  1.055040
  0.624000,  1.164070
  0.626000,  1.267750
  0.628000,  1.355200
  0.630000,  1.409730
  0.632000,  1.448410
  0.634000,  1.488770
  0.636000,  1.526870
  0.638000,  1.576790
  0.640000,  1.630010
  0.642000,  1.678120
  0.644000,  1.710140
  0.646000,  1.709980
  0.648000,  1.682300
  0.650000,  1.623520
  0.652000,  1.559870
  0.654000,  1.499390
  0.656000,  1.451310
  0.658000,  1.418740
  0.660000,  1.396520
  0.662000,  1.374370
  0.664000,  1.348090
  0.666000,  1.312640
  0.668000,  1.269480
  0.670000,  1.227270
  0.672000,  1.185330
  0.674000,  1.150930
  0.676000,  1.113910
  0.678000,  1.080220
  0.680000,  1.035320
  0.682000,  0.982600
  0.684000,  0.919590
  0.686000,  0.849770
  0.688000,  0.779490
  0.690000,  0.708350
  0.692000,  0.652880
  0.694000,  0.599220
  0.696000,  0.550950
  0.698000,  0.512090
  0.700000,  0.478430
  0.702000,  0.448790
  0.704000,  0.421760
  0.706000,  0.402290
  0.708000,  0.374740
  0.710000,  0.342990
  0.712000,  0.318100
  0.714000,  0.282840
  0.716000,  0.249150
  0.718000,  0.212350
  0.720000,  0.174840
  0.722000,  0.133710
  0.724000,  0.087790
  0.726000,  0.040020
  0.728000, -0.016380
  0.730000, -0.079640
  0.732000, -0.147970
  0.734000, -0.208490
  0.736000, -0.262300
  0.738000, -0.300060
  0.740000, -0.320250
  0.742000, -0.313770
  0.744000, -0.301790
  0.746000, -0.275660
  0.748000, -0.243730
  0.750000, -0.216490
  0.752000, -0.204460
  0.754000, -0.212550
  0.756000, -0.235040
  0.758000, -0.270480
  0.760000, -0.317490
  0.762000, -0.362330
  0.764000, -0.398040
  0.766000, -0.414270
  0.768000, -0.423340
  0.770000, -0.430580
  0.772000, -0.427490
  0.774000, -0.419110
  0.776000, -0.413710
  0.778000, -0.416850
  0.780000, -0.421130
  0.782000, -0.425370
  0.784000, -0.435010
  0.786000, -0.441570
  0.788000, -0.445700
  0.790000, -0.450470
  0.792000, -0.458710
  0.794000, -0.467920
  0.796000, -0.478590
  0.798000, -0.489310
  0.800000, -0.496050
  0.802000, -0.504790
  0.804000, -0.504580
  0.806000, -0.491410
  0.808000, -0.477880
  0.810000, -0.459270
  0.812000, -0.436290
  0.814000, -0.415880
  0.816000, -0.394800
  0.818000, -0.376390
  0.820000, -0.360310
  0.822000, -0.346490
  0.824000, -0.336370
  0.826000, -0.327600
  0.828000, -0.322640
  0.830000, -0.314510
  0.832000, -0.305530
  0.834000, -0.296680
  0.836000, -0.279550
  0.838000, -0.264700
  0.840000, -0.249840
  0.842000, -0.236750
  0.844000, -0.223650
  0.846000, -0.211750
  0.848000, -0.196640
  0.850000, -0.182860
  0.852000, -0.166380
  0.854000, -0.142130
  0.856000, -0.128990
  0.858000, -0.122120
  0.860000, -0.121030
  0.862000, -0.129130
  0.864000, -0.142560
  0.866000, -0.165680
  0.868000, -0.184180
  0.870000, -0.197200
  0.872000, -0.196760
  0.874000, -0.187500
  0.876000, -0.159810
  0.878000, -0.117040
  0.880000, -0.062130
  0.882000, -0.010740
  0.884000,  0.035940
  0.886000,  0.072250
  0.888000,  0.094750
  0.890000,  0.098610
  0.892000,  0.086020
  0.894000,  0.058850
  0.896000,  0.021810
  0.898000, -0.015210
  0.900000, -0.052180
  0.902000, -0.084430
  0.904000, -0.101000
  0.906000, -0.105990
  0.908000, -0.098420
  0.910000, -0.080180
  0.912000, -0.050790
  0.914000, -0.017440
  0.916000, -0.003230
  0.918000,  0.015090
  0.920000,  0.027730
  0.922000,  0.034640
  0.924000,  0.022540
  0.926000,  0.002780
  0.928000, -0.020700
  0.930000, -0.036690
  0.932000, -0.046280
  0.934000, -0.045190
  0.936000, -0.043120
  0.938000, -0.029170
  0.940000, -0.003400
  0.942000,  0.025220
  0.944000,  0.060600
  0.946000,  0.093820
  0.948000,  0.113860
  0.950000,  0.129900
  0.952000,  0.142660
  0.954000,  0.129920
  0.956000,  0.107670
  0.958000,  0.087660
  0.960000,  0.057920
  0.962000,  0.018820
  0.964000, -0.006210
  0.966000, -0.032510
  0.968000, -0.048840
  0.970000, -0.059890
  0.972000, -0.061710
  0.974000, -0.059570
  0.976000, -0.056660
  0.978000, -0.048560
  0.980000, -0.040180
  0.982000, -0.027810
  0.984000, -0.010740
  0.986000,  0.003600
  0.988000,  0.014210
  0.990000,  0.020980
  0.992000,  0.023910
  0.994000,  0.023680
  0.996000,  0.023310
  0.998000,  0.018830
  1.000000,  0.019360
