# z (nm)   (kJ/mol)
  0.040000,282.026180
  0.042000,279.510480
  0.044000,277.359530
  0.046000,274.507700
  0.048000,271.795770
  0.050000,269.065480
  0.052000,266.284590
  0.054000,263.595230
  0.056000,260.897870
  0.058000,258.147320
  0.060000,255.326630
  0.062000,252.432150
  0.064000,249.425300
  0.066000,246.292020
  0.068000,243.032000
  0.070000,239.625500
  0.072000,236.066520
  0.074000,232.351360
  0.076000,228.485080
  0.078000,224.479980
  0.080000,220.357000
  0.082000,216.138800
  0.084000,211.866400
  0.086000,207.570890
  0.088000,203.286250
  0.090000,199.046870
  0.092000,194.875820
  0.094000,190.777490
  0.096000,186.750590
  0.098000,182.777990
  0.100000,178.843680
  0.102000,174.929110
  0.104000,171.021650
  0.106000,167.121220
  0.108000,163.231450
  0.110000,159.378100
  0.112000,155.571680
  0.114000,151.843910
  0.116000,148.216850
  0.118000,144.700440
  0.120000,141.296740
  0.122000,138.006870
  0.124000,134.814980
  0.126000,131.696920
  0.128000,128.628630
  0.130000,125.582660
  0.132000,122.540840
  0.134000,119.492420
  0.136000,116.435690
  0.138000,113.381190
  0.140000,110.332950
  0.142000,107.323120
  0.144000,104.354520
  0.146000,101.453090
  0.148000, 98.620740
  0.150000, 95.853640
  0.152000, 93.146820
  0.154000, 90.485120
  0.156000, 87.859510
  0.158000, 85.258650
  0.160000, 82.669430
  0.162000, 80.099670
  0.164000, 77.544800
  0.166000, 75.019280
  0.168000, 72.536360
  0.170000, 70.100810
  0.172000, 67.720610
  0.174000, 65.396250
  0.176000, 63.135520
  0.178000, 60.929100
  0.180000, 58.769630
  0.182000, 56.661070
  0.184000, 54.588220
  0.186000, 52.556830
  0.188000, 50.564430
  0.190000, 48.609780
  0.192000, 46.697970
  0.194000, 44.824850
  0.196000, 43.004420
  0.198000, 41.226000
  0.200000, 39.500910
  0.202000, 37.815340
  0.204000, 36.189570
  0.206000, 34.602380
  0.208000, 33.060730
  0.210000, 31.554330
  0.212000, 30.097880
  0.214000, 28.674260
  0.216000, 27.275690
  0.218000, 25.905770
  0.220000, 24.562250
  0.222000, 23.254580
  0.224000, 21.973020
  0.226000, 20.731250
  0.228000, 19.536590
  0.230000, 18.390560
  0.232000, 17.291100
  0.234000, 16.249250
  0.236000, 15.265290
  0.238000, 14.328040
  0.240000, 13.434390
  0.242000, 12.581650
  0.244000, 11.765330
  0.246000, 10.970580
  0.248000, 10.207630
  0.250000,  9.476540
  0.252000,  8.769030
  0.254000,  8.105320
  0.256000,  7.474110
  0.258000,  6.873200
  0.260000,  6.319580
  0.262000,  5.803530
  0.264000,  5.315680
  0.266000,  4.863840
  0.268000,  4.439890
  0.270000,  4.035870
  0.272000,  3.654400
  0.274000,  3.288730
  0.276000,  2.933580
  0.278000,  2.589000
  0.280000,  2.258670
  0.282000,  1.934340
  0.284000,  1.622780
  0.286000,  1.326260
  0.288000,  1.044440
  0.290000,  0.789190
  0.292000,  0.544970
  0.294000,  0.334730
  0.296000,  0.153140
  0.298000, -0.011780
  0.300000, -0.157840
  0.302000, -0.293100
  0.304000, -0.420980
  0.306000, -0.545920
  0.308000, -0.665630
  0.310000, -0.793390
  0.312000, -0.932450
  0.314000, -1.076360
  0.316000, -1.222570
  0.318000, -1.362700
  0.320000, -1.499040
  0.322000, -1.626620
  0.324000, -1.742210
  0.326000, -1.845450
  0.328000, -1.932000
  0.330000, -2.004910
  0.332000, -2.056250
  0.334000, -2.106520
  0.336000, -2.147850
  0.338000, -2.183070
  0.340000, -2.212030
  0.342000, -2.234680
  0.344000, -2.255410
  0.346000, -2.276720
  0.348000, -2.295770
  0.350000, -2.311100
  0.352000, -2.322430
  0.354000, -2.329510
  0.356000, -2.331610
  0.358000, -2.330580
  0.360000, -2.326230
  0.362000, -2.313500
  0.364000, -2.297360
  0.366000, -2.275400
  0.368000, -2.252710
  0.370000, -2.228250
  0.372000, -2.204060
  0.374000, -2.177060
  0.376000, -2.147520
  0.378000, -2.112960
  0.380000, -2.082770
  0.382000, -2.043330
  0.384000, -2.007290
  0.386000, -1.968200
  0.388000, -1.926010
  0.390000, -1.882850
  0.392000, -1.826420
  0.394000, -1.772970
  0.396000, -1.707180
  0.398000, -1.627650
  0.400000, -1.552120
  0.402000, -1.471080
  0.404000, -1.388110
  0.406000, -1.298890
  0.408000, -1.202630
  0.410000, -1.110690
  0.412000, -1.018350
  0.414000, -0.922800
  0.416000, -0.826040
  0.418000, -0.724470
  0.420000, -0.618190
  0.422000, -0.504400
  0.424000, -0.388780
  0.426000, -0.266250
  0.428000, -0.141040
  0.430000, -0.007630
  0.432000,  0.135000
  0.434000,  0.280550
  0.436000,  0.435930
  0.438000,  0.583180
  0.440000,  0.734030
  0.442000,  0.880310
  0.444000,  1.037830
  0.446000,  1.195110
  0.448000,  1.352570
  0.450000,  1.503940
  0.452000,  1.650440
  0.454000,  1.798110
  0.456000,  1.943690
  0.458000,  2.077660
  0.460000,  2.203430
  0.462000,  2.324150
  0.464000,  2.434970
  0.466000,  2.535790
  0.468000,  2.630120
  0.470000,  2.726430
  0.472000,  2.818600
  0.474000,  2.909860
  0.476000,  3.005760
  0.478000,  3.098500
  0.480000,  3.191520
  0.482000,  3.278790
  0.484000,  3.359570
  0.486000,  3.439500
  0.488000,  3.509360
  0.490000,  3.566350
  0.492000,  3.614280
  0.494000,  3.657230
  0.496000,  3.694550
  0.498000,  3.722310
  0.500000,  3.752730
  0.502000,  3.775920
  0.504000,  3.791780
  0.506000,  3.807100
  0.508000,  3.824600
  0.510000,  3.844030
  0.512000,  3.861210
  0.514000,  3.877910
  0.516000,  3.899340
  0.518000,  3.919380
  0.520000,  3.935040
  0.522000,  3.950700
  0.524000,  3.948220
  0.526000,  3.948060
  0.528000,  3.929090
  0.530000,  3.899030
  0.532000,  3.865190
  0.534000,  3.821160
  0.536000,  3.765570
  0.538000,  3.709590
  0.540000,  3.652360
  0.542000,  3.593170
  0.544000,  3.536390
  0.546000,  3.478700
  0.548000,  3.427170
  0.550000,  3.382160
  0.552000,  3.337020
  0.554000,  3.296350
  0.556000,  3.262790
  0.558000,  3.228160
  0.560000,  3.198390
  0.562000,  3.172650
  0.564000,  3.143240
  0.566000,  3.111490
  0.568000,  3.072000
  0.570000,  3.029580
  0.572000,  2.977530
  0.574000,  2.923200
  0.576000,  2.860070
  0.578000,  2.796070
  0.580000,  2.729170
  0.582000,  2.659250
  0.584000,  2.585860
  0.586000,  2.519140
  0.588000,  2.452330
  0.590000,  2.390890
  0.592000,  2.328290
  0.594000,  2.266120
  0.596000,  2.207120
  0.598000,  2.151360
  0.600000,  2.092920
  0.602000,  2.026810
  0.604000,  1.968800
  0.606000,  1.910350
  0.608000,  1.845030
  0.610000,  1.785590
  0.612000,  1.728160
  0.614000,  1.677480
  0.616000,  1.628690
  0.618000,  1.579760
  0.620000,  1.533210
  0.622000,  1.492480
  0.624000,  1.453080
  0.626000,  1.412070
  0.628000,  1.375390
  0.630000,  1.339080
  0.632000,  1.307760
  0.634000,  1.273830
  0.636000,  1.239070
  0.638000,  1.209070
  0.640000,  1.177250
  0.642000,  1.146140
  0.644000,  1.114540
  0.646000,  1.083480
  0.648000,  1.052490
  0.650000,  1.020480
  0.652000,  0.991620
  0.654000,  0.959250
  0.656000,  0.931610
  0.658000,  0.902930
  0.660000,  0.871270
  0.662000,  0.840900
  0.664000,  0.816230
  0.666000,  0.791420
  0.668000,  0.767680
  0.670000,  0.749130
  0.672000,  0.728210
  0.674000,  0.712500
  0.676000,  0.696070
  0.678000,  0.678810
  0.680000,  0.670860
  0.682000,  0.663940
  0.684000,  0.658270
  0.686000,  0.651320
  0.688000,  0.646200
  0.690000,  0.642310
  0.692000,  0.633160
  0.694000,  0.629640
  0.696000,  0.622550
  0.698000,  0.615250
  0.700000,  0.608400
  0.702000,  0.601250
  0.704000,  0.595450
  0.706000,  0.596220
  0.708000,  0.590200
  0.710000,  0.587600
  0.712000,  0.587620
  0.714000,  0.585230
  0.716000,  0.583730
  0.718000,  0.587260
  0.720000,  0.591110
  0.722000,  0.598320
  0.724000,  0.605900
  0.726000,  0.609600
  0.728000,  0.612990
  0.730000,  0.618810
  0.732000,  0.625680
  0.734000,  0.630570
  0.736000,  0.643560
  0.738000,  0.657530
  0.740000,  0.673620
  0.742000,  0.688220
  0.744000,  0.707840
  0.746000,  0.717110
  0.748000,  0.729490
  0.750000,  0.747240
  0.752000,  0.762250
  0.754000,  0.771690
  0.756000,  0.778290
  0.758000,  0.786510
  0.760000,  0.789030
  0.762000,  0.793130
  0.764000,  0.790690
  0.766000,  0.788620
  0.768000,  0.789910
  0.770000,  0.788040
  0.772000,  0.783630
  0.774000,  0.791930
  0.776000,  0.790320
  0.778000,  0.798370
  0.780000,  0.805890
  0.782000,  0.808330
  0.784000,  0.815510
  0.786000,  0.824510
  0.788000,  0.829380
  0.790000,  0.826750
  0.792000,  0.825770
  0.794000,  0.825680
  0.796000,  0.822730
  0.798000,  0.819710
  0.800000,  0.812960
  0.802000,  0.812530
  0.804000,  0.807250
  0.806000,  0.811410
  0.808000,  0.820530
  0.810000,  0.826950
  0.812000,  0.831980
  0.814000,  0.838780
  0.816000,  0.841040
  0.818000,  0.841060
  0.820000,  0.834510
  0.822000,  0.826790
  0.824000,  0.813410
  0.826000,  0.802870
  0.828000,  0.782230
  0.830000,  0.762010
  0.832000,  0.740610
  0.834000,  0.723850
  0.836000,  0.698890
  0.838000,  0.677660
  0.840000,  0.652260
  0.842000,  0.636460
  0.844000,  0.619580
  0.846000,  0.603730
  0.848000,  0.596200
  0.850000,  0.583470
  0.852000,  0.576630
  0.854000,  0.572440
  0.856000,  0.573600
  0.858000,  0.569060
  0.860000,  0.570630
  0.862000,  0.573180
  0.864000,  0.574590
  0.866000,  0.572870
  0.868000,  0.570620
  0.870000,  0.570180
  0.872000,  0.563020
  0.874000,  0.553100
  0.876000,  0.540110
  0.878000,  0.522840
  0.880000,  0.511340
  0.882000,  0.495330
  0.884000,  0.476890
  0.886000,  0.456180
  0.888000,  0.436080
  0.890000,  0.420180
  0.892000,  0.403690
  0.894000,  0.388240
  0.896000,  0.373410
  0.898000,  0.358430
  0.900000,  0.342740
  0.902000,  0.322800
  0.904000,  0.302550
  0.906000,  0.278130
  0.908000,  0.253760
  0.910000,  0.230650
  0.912000,  0.206610
  0.914000,  0.177870
  0.916000,  0.150040
  0.918000,  0.124340
  0.920000,  0.104640
  0.922000,  0.082870
  0.924000,  0.069790
  0.926000,  0.058520
  0.928000,  0.047710
  0.930000,  0.043650
  0.932000,  0.043550
  0.934000,  0.043720
  0.936000,  0.051640
  0.938000,  0.055000
  0.940000,  0.059320
  0.942000,  0.065390
  0.944000,  0.072970
  0.946000,  0.074310
  0.948000,  0.070860
  0.950000,  0.066350
  0.952000,  0.058830
  0.954000,  0.042950
  0.956000,  0.023240
  0.958000, -0.001270
  0.960000, -0.026430
  0.962000, -0.057360
  0.964000, -0.089540
  0.966000, -0.121940
  0.968000, -0.149410
  0.970000, -0.172430
  0.972000, -0.190130
  0.974000, -0.204750
  0.976000, -0.209770
  0.978000, -0.207390
  0.980000, -0.203460
  0.982000, -0.195070
  0.984000, -0.183870
  0.986000, -0.171670
  0.988000, -0.161460
  0.990000, -0.151200
  0.992000, -0.140650
  0.994000, -0.136330
  0.996000, -0.131760
  0.998000, -0.133460
  1.000000, -0.142700
