# z (nm)   (kJ/mol)
  0.076000,263.607430
  0.078000,259.093790
  0.080000,256.265660
  0.082000,253.762010
  0.084000,251.275380
  0.086000,248.725010
  0.088000,246.141100
  0.090000,243.527880
  0.092000,240.808180
  0.094000,237.996640
  0.096000,235.075270
  0.098000,232.007440
  0.100000,228.768370
  0.102000,225.323540
  0.104000,221.656900
  0.106000,217.751890
  0.108000,213.609060
  0.110000,209.245740
  0.112000,204.699490
  0.114000,200.005710
  0.116000,195.205330
  0.118000,190.340870
  0.120000,185.444270
  0.122000,180.555510
  0.124000,175.707170
  0.126000,170.940820
  0.128000,166.291750
  0.130000,161.788800
  0.132000,157.444020
  0.134000,153.264340
  0.136000,149.223260
  0.138000,145.286760
  0.140000,141.417580
  0.142000,137.583330
  0.144000,133.768330
  0.146000,129.991850
  0.148000,126.296040
  0.150000,122.710360
  0.152000,119.241780
  0.154000,115.867390
  0.156000,112.533080
  0.158000,109.175220
  0.160000,105.771560
  0.162000,102.337750
  0.164000, 98.933220
  0.166000, 95.632100
  0.168000, 92.480880
  0.170000, 89.477290
  0.172000, 86.570620
  0.174000, 83.692880
  0.176000, 80.778930
  0.178000, 77.805630
  0.180000, 74.798880
  0.182000, 71.811780
  0.184000, 68.882730
  0.186000, 66.053560
  0.188000, 63.293190
  0.190000, 60.571740
  0.192000, 57.844450
  0.194000, 55.098630
  0.196000, 52.353350
  0.198000, 49.676800
  0.200000, 47.139870
  0.202000, 44.778300
  0.204000, 42.602910
  0.206000, 40.568810
  0.208000, 38.600720
  0.210000, 36.602680
  0.212000, 34.529480
  0.214000, 32.359320
  0.216000, 30.138580
  0.218000, 27.952510
  0.220000, 25.878730
  0.222000, 23.943000
  0.224000, 22.147880
  0.226000, 20.454640
  0.228000, 18.825900
  0.230000, 17.217260
  0.232000, 15.611270
  0.234000, 14.006560
  0.236000, 12.415450
  0.238000, 10.846760
  0.240000,  9.310600
  0.242000,  7.825300
  0.244000,  6.403240
  0.246000,  5.056950
  0.248000,  3.783810
  0.250000,  2.572930
  0.252000,  1.421300
  0.254000,  0.311260
  0.256000, -0.755880
  0.258000, -1.787270
  0.260000, -2.779940
  0.262000, -3.722550
  0.264000, -4.607540
  0.266000, -5.434820
  0.268000, -6.207070
  0.270000, -6.919260
  0.272000, -7.589730
  0.274000, -8.224630
  0.276000, -8.809540
  0.278000, -9.358230
  0.280000, -9.886640
  0.282000,-10.375220
  0.284000,-10.843710
  0.286000,-11.275510
  0.288000,-11.679660
  0.290000,-12.056020
  0.292000,-12.401360
  0.294000,-12.713730
  0.296000,-12.995870
  0.298000,-13.243570
  0.300000,-13.472030
  0.302000,-13.680100
  0.304000,-13.890400
  0.306000,-14.096250
  0.308000,-14.300790
  0.310000,-14.483230
  0.312000,-14.643080
  0.314000,-14.774690
  0.316000,-14.872490
  0.318000,-14.949710
  0.320000,-15.016610
  0.322000,-15.089200
  0.324000,-15.184750
  0.326000,-15.300940
  0.328000,-15.415270
  0.330000,-15.513220
  0.332000,-15.582130
  0.334000,-15.591080
  0.336000,-15.549670
  0.338000,-15.460060
  0.340000,-15.360650
  0.342000,-15.273620
  0.344000,-15.192150
  0.346000,-15.126350
  0.348000,-15.057290
  0.350000,-14.974990
  0.352000,-14.871150
  0.354000,-14.730360
  0.356000,-14.570900
  0.358000,-14.385430
  0.360000,-14.185760
  0.362000,-13.976740
  0.364000,-13.751790
  0.366000,-13.501750
  0.368000,-13.229220
  0.370000,-12.938540
  0.372000,-12.637000
  0.374000,-12.321620
  0.376000,-11.996840
  0.378000,-11.665650
  0.380000,-11.323480
  0.382000,-10.974290
  0.384000,-10.621090
  0.386000,-10.269140
  0.388000, -9.933270
  0.390000, -9.614130
  0.392000, -9.299160
  0.394000, -8.990270
  0.396000, -8.690240
  0.398000, -8.397060
  0.400000, -8.114810
  0.402000, -7.846690
  0.404000, -7.595800
  0.406000, -7.360730
  0.408000, -7.143750
  0.410000, -6.937050
  0.412000, -6.749720
  0.414000, -6.573110
  0.416000, -6.416070
  0.418000, -6.278920
  0.420000, -6.185830
  0.422000, -6.137090
  0.424000, -6.129750
  0.426000, -6.139090
  0.428000, -6.124220
  0.430000, -6.071610
  0.432000, -5.980280
  0.434000, -5.861660
  0.436000, -5.764740
  0.438000, -5.710220
  0.440000, -5.716160
  0.442000, -5.762810
  0.444000, -5.830670
  0.446000, -5.906790
  0.448000, -5.974960
  0.450000, -6.026390
  0.452000, -6.068230
  0.454000, -6.098760
  0.456000, -6.128130
  0.458000, -6.151780
  0.460000, -6.158600
  0.462000, -6.161820
  0.464000, -6.151910
  0.466000, -6.132430
  0.468000, -6.107100
  0.470000, -6.077190
  0.472000, -6.063360
  0.474000, -6.070620
  0.476000, -6.094130
  0.478000, -6.126890
  0.480000, -6.161950
  0.482000, -6.176450
  0.484000, -6.168920
  0.486000, -6.139670
  0.488000, -6.086440
  0.490000, -6.022600
  0.492000, -5.962500
  0.494000, -5.906310
  0.496000, -5.858730
  0.498000, -5.816170
  0.500000, -5.780580
  0.502000, -5.751430
  0.504000, -5.729100
  0.506000, -5.697210
  0.508000, -5.649150
  0.510000, -5.560520
  0.512000, -5.438850
  0.514000, -5.293780
  0.516000, -5.160770
  0.518000, -5.074810
  0.520000, -5.047660
  0.522000, -5.070220
  0.524000, -5.118080
  0.526000, -5.166610
  0.528000, -5.167190
  0.530000, -5.108170
  0.532000, -4.987650
  0.534000, -4.816370
  0.536000, -4.619350
  0.538000, -4.419040
  0.540000, -4.238700
  0.542000, -4.108370
  0.544000, -4.018300
  0.546000, -3.980940
  0.548000, -3.976480
  0.550000, -3.980400
  0.552000, -3.995570
  0.554000, -3.987530
  0.556000, -3.947870
  0.558000, -3.878480
  0.560000, -3.776190
  0.562000, -3.642860
  0.564000, -3.493490
  0.566000, -3.326900
  0.568000, -3.171820
  0.570000, -3.031830
  0.572000, -2.907850
  0.574000, -2.813000
  0.576000, -2.747190
  0.578000, -2.708910
  0.580000, -2.687490
  0.582000, -2.672570
  0.584000, -2.635600
  0.586000, -2.564010
  0.588000, -2.437680
  0.590000, -2.278810
  0.592000, -2.108090
  0.594000, -1.951470
  0.596000, -1.836600
  0.598000, -1.767990
  0.600000, -1.730840
  0.602000, -1.692100
  0.604000, -1.633000
  0.606000, -1.537550
  0.608000, -1.413520
  0.610000, -1.262280
  0.612000, -1.120780
  0.614000, -0.995810
  0.616000, -0.892100
  0.618000, -0.811880
  0.620000, -0.749520
  0.622000, -0.689020
  0.624000, -0.617410
  0.626000, -0.531330
  0.628000, -0.427590
  0.630000, -0.305950
  0.632000, -0.187120
  0.634000, -0.065360
  0.636000,  0.058230
  0.638000,  0.187200
  0.640000,  0.306270
  0.642000,  0.436310
  0.644000,  0.562860
  0.646000,  0.678520
  0.648000,  0.789680
  0.650000,  0.903420
  0.652000,  1.010400
  0.654000,  1.119700
  0.656000,  1.227490
  0.658000,  1.332330
  0.660000,  1.441570
  0.662000,  1.546200
  0.664000,  1.644640
  0.666000,  1.739360
  0.668000,  1.830400
  0.670000,  1.910190
  0.672000,  1.980830
  0.674000,  2.044640
  0.676000,  2.098720
  0.678000,  2.135700
  0.680000,  2.170250
  0.682000,  2.205530
  0.684000,  2.245410
  0.686000,  2.287140
  0.688000,  2.339840
  0.690000,  2.400350
  0.692000,  2.460680
  0.694000,  2.504490
  0.696000,  2.510220
  0.698000,  2.479550
  0.700000,  2.400260
  0.702000,  2.297390
  0.704000,  2.187780
  0.706000,  2.092930
  0.708000,  2.028550
  0.710000,  1.994360
  0.712000,  1.987480
  0.714000,  1.981430
  0.716000,  1.963240
  0.718000,  1.912480
  0.720000,  1.844110
  0.722000,  1.752300
  0.724000,  1.657980
  0.726000,  1.576450
  0.728000,  1.511430
  0.730000,  1.453750
  0.732000,  1.413920
  0.734000,  1.382200
  0.736000,  1.358220
  0.738000,  1.323650
  0.740000,  1.283500
  0.742000,  1.237130
  0.744000,  1.174680
  0.746000,  1.100770
  0.748000,  1.019980
  0.750000,  0.942550
  0.752000,  0.875990
  0.754000,  0.822000
  0.756000,  0.786360
  0.758000,  0.783150
  0.760000,  0.795330
  0.762000,  0.818300
  0.764000,  0.843260
  0.766000,  0.850880
  0.768000,  0.838290
  0.770000,  0.807750
  0.772000,  0.757420
  0.774000,  0.692750
  0.776000,  0.617670
  0.778000,  0.554060
  0.780000,  0.499660
  0.782000,  0.453640
  0.784000,  0.423200
  0.786000,  0.406350
  0.788000,  0.390200
  0.790000,  0.377730
  0.792000,  0.366370
  0.794000,  0.357710
  0.796000,  0.355980
  0.798000,  0.359920
  0.800000,  0.358320
  0.802000,  0.358860
  0.804000,  0.353310
  0.806000,  0.347480
  0.808000,  0.322090
  0.810000,  0.287190
  0.812000,  0.240580
  0.814000,  0.190960
  0.816000,  0.140470
  0.818000,  0.091700
  0.820000,  0.052540
  0.822000,  0.031020
  0.824000,  0.026320
  0.826000,  0.030560
  0.828000,  0.055880
  0.830000,  0.089240
  0.832000,  0.128410
  0.834000,  0.162750
  0.836000,  0.180880
  0.838000,  0.184070
  0.840000,  0.169690
  0.842000,  0.127210
  0.844000,  0.074930
  0.846000,  0.012870
  0.848000, -0.040620
  0.850000, -0.078760
  0.852000, -0.094130
  0.854000, -0.091070
  0.856000, -0.076160
  0.858000, -0.045640
  0.860000, -0.013950
  0.862000,  0.012760
  0.864000,  0.030910
  0.866000,  0.023530
  0.868000,  0.015040
  0.870000, -0.000890
  0.872000, -0.016730
  0.874000, -0.023940
  0.876000, -0.025200
  0.878000, -0.022360
  0.880000, -0.004350
  0.882000,  0.010620
  0.884000,  0.026990
  0.886000,  0.035570
  0.888000,  0.034250
  0.890000,  0.017750
  0.892000,  0.001960
  0.894000, -0.008060
  0.896000, -0.009660
  0.898000, -0.003580
  0.900000,  0.006450
  0.902000,  0.022820
  0.904000,  0.033280
  0.906000,  0.037770
  0.908000,  0.047550
  0.910000,  0.043900
  0.912000,  0.039950
  0.914000,  0.042840
  0.916000,  0.044050
  0.918000,  0.052850
  0.920000,  0.064350
  0.922000,  0.086350
  0.924000,  0.101330
  0.926000,  0.110140
  0.928000,  0.116040
  0.930000,  0.120240
  0.932000,  0.114760
  0.934000,  0.105410
  0.936000,  0.086250
  0.938000,  0.069000
  0.940000,  0.051390
  0.942000,  0.046490
  0.944000,  0.042930
  0.946000,  0.046040
  0.948000,  0.058970
  0.950000,  0.071640
  0.952000,  0.093610
  0.954000,  0.111150
  0.956000,  0.130470
  0.958000,  0.142690
  0.960000,  0.145060
  0.962000,  0.132110
  0.964000,  0.108240
  0.966000,  0.071700
  0.968000,  0.028010
  0.970000, -0.012570
  0.972000, -0.053960
  0.974000, -0.087390
  0.976000, -0.110420
  0.978000, -0.132990
  0.980000, -0.143780
  0.982000, -0.136650
  0.984000, -0.127400
  0.986000, -0.118320
  0.988000, -0.113840
  0.990000, -0.127930
  0.992000, -0.161480
  0.994000, -0.217800
  0.996000, -0.291930
  0.998000, -0.362130
  1.000000, -0.420820
