# z (nm)   (kJ/mol)
  0.064000,264.672660
  0.066000,262.049250
  0.068000,259.911730
  0.070000,257.812730
  0.072000,255.738600
  0.074000,253.646540
  0.076000,251.535650
  0.078000,249.445610
  0.080000,247.329560
  0.082000,245.146470
  0.084000,242.937770
  0.086000,240.620480
  0.088000,238.219110
  0.090000,235.695170
  0.092000,233.024970
  0.094000,230.180420
  0.096000,227.142410
  0.098000,223.889730
  0.100000,220.406880
  0.102000,216.688270
  0.104000,212.743070
  0.106000,208.589810
  0.108000,204.256930
  0.110000,199.780120
  0.112000,195.205750
  0.114000,190.576970
  0.116000,185.942050
  0.118000,181.344870
  0.120000,176.817400
  0.122000,172.400080
  0.124000,168.104110
  0.126000,163.934260
  0.128000,159.875020
  0.130000,155.900860
  0.132000,151.985080
  0.134000,148.111070
  0.136000,144.259440
  0.138000,140.436060
  0.140000,136.653800
  0.142000,132.927430
  0.144000,129.277490
  0.146000,125.711620
  0.148000,122.222780
  0.150000,118.803730
  0.152000,115.440310
  0.154000,112.123100
  0.156000,108.843430
  0.158000,105.591790
  0.160000,102.347980
  0.162000, 99.122850
  0.164000, 95.917370
  0.166000, 92.741920
  0.168000, 89.623740
  0.170000, 86.591010
  0.172000, 83.658360
  0.174000, 80.837540
  0.176000, 78.117980
  0.178000, 75.471950
  0.180000, 72.872640
  0.182000, 70.287120
  0.184000, 67.697530
  0.186000, 65.104260
  0.188000, 62.523820
  0.190000, 59.970400
  0.192000, 57.458740
  0.194000, 55.010840
  0.196000, 52.628560
  0.198000, 50.306240
  0.200000, 48.040590
  0.202000, 45.830860
  0.204000, 43.675610
  0.206000, 41.572260
  0.208000, 39.520880
  0.210000, 37.525310
  0.212000, 35.570960
  0.214000, 33.660930
  0.216000, 31.780440
  0.218000, 29.924000
  0.220000, 28.095750
  0.222000, 26.322400
  0.224000, 24.609310
  0.226000, 22.978440
  0.228000, 21.429520
  0.230000, 19.953280
  0.232000, 18.503240
  0.234000, 17.082770
  0.236000, 15.673760
  0.238000, 14.267500
  0.240000, 12.894740
  0.242000, 11.563670
  0.244000, 10.289750
  0.246000,  9.077920
  0.248000,  7.929890
  0.250000,  6.837620
  0.252000,  5.790310
  0.254000,  4.774650
  0.256000,  3.804820
  0.258000,  2.860290
  0.260000,  1.940010
  0.262000,  1.031310
  0.264000,  0.136080
  0.266000, -0.748050
  0.268000, -1.623570
  0.270000, -2.472540
  0.272000, -3.307000
  0.274000, -4.104590
  0.276000, -4.870900
  0.278000, -5.599360
  0.280000, -6.306670
  0.282000, -6.987510
  0.284000, -7.663580
  0.286000, -8.323270
  0.288000, -8.984660
  0.290000, -9.642680
  0.292000,-10.306670
  0.294000,-10.972760
  0.296000,-11.646900
  0.298000,-12.312590
  0.300000,-12.962810
  0.302000,-13.589400
  0.304000,-14.180270
  0.306000,-14.725750
  0.308000,-15.228020
  0.310000,-15.692330
  0.312000,-16.132680
  0.314000,-16.556980
  0.316000,-16.962930
  0.318000,-17.354250
  0.320000,-17.727810
  0.322000,-18.068650
  0.324000,-18.359470
  0.326000,-18.610270
  0.328000,-18.804940
  0.330000,-18.947570
  0.332000,-19.063700
  0.334000,-19.153160
  0.336000,-19.228430
  0.338000,-19.297820
  0.340000,-19.356060
  0.342000,-19.390410
  0.344000,-19.403270
  0.346000,-19.392560
  0.348000,-19.354220
  0.350000,-19.289570
  0.352000,-19.209560
  0.354000,-19.103710
  0.356000,-18.984270
  0.358000,-18.843350
  0.360000,-18.681230
  0.362000,-18.506690
  0.364000,-18.320180
  0.366000,-18.126500
  0.368000,-17.932490
  0.370000,-17.727900
  0.372000,-17.500830
  0.374000,-17.260190
  0.376000,-17.003160
  0.378000,-16.718500
  0.380000,-16.418470
  0.382000,-16.113920
  0.384000,-15.805300
  0.386000,-15.514710
  0.388000,-15.226060
  0.390000,-14.950480
  0.392000,-14.670120
  0.394000,-14.378390
  0.396000,-14.080660
  0.398000,-13.779600
  0.400000,-13.479360
  0.402000,-13.176700
  0.404000,-12.896940
  0.406000,-12.637190
  0.408000,-12.397950
  0.410000,-12.173010
  0.412000,-11.961310
  0.414000,-11.756950
  0.416000,-11.564990
  0.418000,-11.378700
  0.420000,-11.200620
  0.422000,-11.031190
  0.424000,-10.872800
  0.426000,-10.714740
  0.428000,-10.570050
  0.430000,-10.427140
  0.432000,-10.289420
  0.434000,-10.156030
  0.436000,-10.045100
  0.438000, -9.939700
  0.440000, -9.836930
  0.442000, -9.730110
  0.444000, -9.608710
  0.446000, -9.481070
  0.448000, -9.373640
  0.450000, -9.278760
  0.452000, -9.200410
  0.454000, -9.113210
  0.456000, -9.025440
  0.458000, -8.933280
  0.460000, -8.862030
  0.462000, -8.806310
  0.464000, -8.760820
  0.466000, -8.711930
  0.468000, -8.646340
  0.470000, -8.562420
  0.472000, -8.470480
  0.474000, -8.377400
  0.476000, -8.289980
  0.478000, -8.211940
  0.480000, -8.160370
  0.482000, -8.113360
  0.484000, -8.056330
  0.486000, -7.982610
  0.488000, -7.877730
  0.490000, -7.743160
  0.492000, -7.578580
  0.494000, -7.385290
  0.496000, -7.180320
  0.498000, -6.985060
  0.500000, -6.809500
  0.502000, -6.659070
  0.504000, -6.541120
  0.506000, -6.449770
  0.508000, -6.362750
  0.510000, -6.272410
  0.512000, -6.166500
  0.514000, -6.036870
  0.516000, -5.872360
  0.518000, -5.680400
  0.520000, -5.475340
  0.522000, -5.268290
  0.524000, -5.067970
  0.526000, -4.880210
  0.528000, -4.716790
  0.530000, -4.575900
  0.532000, -4.445570
  0.534000, -4.325500
  0.536000, -4.214130
  0.538000, -4.095690
  0.540000, -3.982050
  0.542000, -3.868530
  0.544000, -3.761220
  0.546000, -3.653980
  0.548000, -3.548720
  0.550000, -3.448770
  0.552000, -3.349300
  0.554000, -3.248900
  0.556000, -3.157330
  0.558000, -3.065510
  0.560000, -2.975070
  0.562000, -2.876530
  0.564000, -2.781670
  0.566000, -2.681940
  0.568000, -2.584390
  0.570000, -2.487230
  0.572000, -2.403020
  0.574000, -2.322630
  0.576000, -2.252660
  0.578000, -2.196950
  0.580000, -2.145640
  0.582000, -2.098900
  0.584000, -2.058160
  0.586000, -2.010760
  0.588000, -1.945270
  0.590000, -1.876260
  0.592000, -1.791760
  0.594000, -1.696630
  0.596000, -1.590440
  0.598000, -1.484250
  0.600000, -1.388380
  0.602000, -1.289460
  0.604000, -1.220330
  0.606000, -1.170680
  0.608000, -1.126830
  0.610000, -1.104350
  0.612000, -1.090720
  0.614000, -1.076770
  0.616000, -1.055610
  0.618000, -1.033200
  0.620000, -0.989340
  0.622000, -0.930420
  0.624000, -0.862070
  0.626000, -0.786920
  0.628000, -0.711110
  0.630000, -0.620390
  0.632000, -0.529860
  0.634000, -0.446720
  0.636000, -0.370420
  0.638000, -0.293430
  0.640000, -0.216290
  0.642000, -0.140890
  0.644000, -0.070940
  0.646000,  0.004140
  0.648000,  0.078190
  0.650000,  0.143540
  0.652000,  0.212990
  0.654000,  0.279910
  0.656000,  0.336080
  0.658000,  0.399610
  0.660000,  0.463220
  0.662000,  0.521870
  0.664000,  0.577060
  0.666000,  0.626440
  0.668000,  0.663160
  0.670000,  0.689260
  0.672000,  0.709120
  0.674000,  0.729680
  0.676000,  0.743720
  0.678000,  0.775640
  0.680000,  0.823600
  0.682000,  0.877490
  0.684000,  0.938090
  0.686000,  1.004680
  0.688000,  1.060880
  0.690000,  1.107320
  0.692000,  1.138470
  0.694000,  1.163420
  0.696000,  1.181000
  0.698000,  1.194790
  0.700000,  1.206700
  0.702000,  1.229410
  0.704000,  1.256750
  0.706000,  1.285880
  0.708000,  1.313350
  0.710000,  1.331980
  0.712000,  1.332860
  0.714000,  1.326580
  0.716000,  1.307630
  0.718000,  1.290980
  0.720000,  1.274960
  0.722000,  1.257010
  0.724000,  1.242720
  0.726000,  1.230520
  0.728000,  1.211740
  0.730000,  1.183960
  0.732000,  1.144470
  0.734000,  1.099340
  0.736000,  1.052720
  0.738000,  0.994720
  0.740000,  0.948350
  0.742000,  0.904950
  0.744000,  0.879140
  0.746000,  0.865630
  0.748000,  0.866020
  0.750000,  0.873130
  0.752000,  0.876360
  0.754000,  0.876950
  0.756000,  0.852870
  0.758000,  0.810240
  0.760000,  0.753160
  0.762000,  0.671100
  0.764000,  0.582840
  0.766000,  0.503540
  0.768000,  0.417340
  0.770000,  0.346860
  0.772000,  0.290910
  0.774000,  0.249560
  0.776000,  0.218320
  0.778000,  0.203380
  0.780000,  0.189670
  0.782000,  0.178830
  0.784000,  0.165370
  0.786000,  0.142590
  0.788000,  0.112700
  0.790000,  0.076130
  0.792000,  0.044350
  0.794000,  0.011260
  0.796000, -0.016030
  0.798000, -0.044770
  0.800000, -0.070100
  0.802000, -0.088760
  0.804000, -0.109390
  0.806000, -0.137540
  0.808000, -0.168280
  0.810000, -0.202360
  0.812000, -0.242070
  0.814000, -0.273940
  0.816000, -0.300530
  0.818000, -0.310970
  0.820000, -0.311560
  0.822000, -0.291910
  0.824000, -0.257850
  0.826000, -0.213240
  0.828000, -0.154220
  0.830000, -0.102570
  0.832000, -0.060690
  0.834000, -0.030390
  0.836000, -0.011680
  0.838000, -0.008530
  0.840000, -0.024150
  0.842000, -0.042960
  0.844000, -0.069750
  0.846000, -0.091270
  0.848000, -0.113870
  0.850000, -0.127670
  0.852000, -0.124360
  0.854000, -0.106410
  0.856000, -0.080120
  0.858000, -0.045250
  0.860000, -0.008740
  0.862000,  0.017450
  0.864000,  0.033340
  0.866000,  0.038360
  0.868000,  0.039030
  0.870000,  0.036430
  0.872000,  0.036780
  0.874000,  0.044260
  0.876000,  0.064170
  0.878000,  0.089460
  0.880000,  0.122260
  0.882000,  0.155900
  0.884000,  0.184150
  0.886000,  0.209820
  0.888000,  0.211030
  0.890000,  0.197670
  0.892000,  0.176660
  0.894000,  0.138450
  0.896000,  0.091250
  0.898000,  0.035980
  0.900000, -0.021770
  0.902000, -0.073870
  0.904000, -0.124870
  0.906000, -0.155310
  0.908000, -0.176680
  0.910000, -0.181360
  0.912000, -0.175150
  0.914000, -0.154810
  0.916000, -0.120740
  0.918000, -0.092540
  0.920000, -0.066410
  0.922000, -0.055320
  0.924000, -0.057610
  0.926000, -0.068150
  0.928000, -0.089450
  0.930000, -0.107280
  0.932000, -0.116730
  0.934000, -0.120100
  0.936000, -0.109200
  0.938000, -0.088470
  0.940000, -0.061040
  0.942000, -0.032010
  0.944000, -0.003440
  0.946000,  0.013820
  0.948000,  0.026210
  0.950000,  0.034780
  0.952000,  0.028520
  0.954000,  0.030150
  0.956000,  0.026770
  0.958000,  0.017940
  0.960000,  0.007490
  0.962000,  0.004150
  0.964000,  0.000850
  0.966000,  0.002890
  0.968000,  0.003080
  0.970000,  0.010020
  0.972000,  0.018130
  0.974000,  0.038730
  0.976000,  0.054520
  0.978000,  0.075840
  0.980000,  0.098960
  0.982000,  0.122400
  0.984000,  0.150360
  0.986000,  0.171410
  0.988000,  0.186110
  0.990000,  0.193810
  0.992000,  0.203160
  0.994000,  0.195800
  0.996000,  0.186900
  0.998000,  0.174520
  1.000000,  0.153250
