# z (nm)   (kJ/mol)
  0.096000,265.922500
  0.098000,263.813790
  0.100000,261.285960
  0.102000,258.814930
  0.104000,256.256550
  0.106000,253.870680
  0.108000,251.630270
  0.110000,249.307770
  0.112000,246.949600
  0.114000,244.472620
  0.116000,241.877610
  0.118000,239.116510
  0.120000,236.134070
  0.122000,232.901410
  0.124000,229.390360
  0.126000,225.608350
  0.128000,221.571400
  0.130000,217.310570
  0.132000,212.871270
  0.134000,208.305200
  0.136000,203.652980
  0.138000,198.937320
  0.140000,194.188530
  0.142000,189.433870
  0.144000,184.705070
  0.146000,180.040810
  0.148000,175.472040
  0.150000,171.013790
  0.152000,166.667210
  0.154000,162.426750
  0.156000,158.261130
  0.158000,154.143870
  0.160000,150.060360
  0.162000,146.010880
  0.164000,142.001050
  0.166000,138.064390
  0.168000,134.223000
  0.170000,130.489690
  0.172000,126.860880
  0.174000,123.325780
  0.176000,119.860510
  0.178000,116.451260
  0.180000,113.093020
  0.182000,109.794430
  0.184000,106.559180
  0.186000,103.399870
  0.188000,100.307160
  0.190000, 97.266290
  0.192000, 94.272410
  0.194000, 91.309490
  0.196000, 88.372430
  0.198000, 85.470070
  0.200000, 82.613660
  0.202000, 79.822180
  0.204000, 77.093990
  0.206000, 74.431000
  0.208000, 71.824490
  0.210000, 69.269120
  0.212000, 66.764940
  0.214000, 64.308530
  0.216000, 61.894670
  0.218000, 59.525180
  0.220000, 57.183550
  0.222000, 54.863740
  0.224000, 52.559410
  0.226000, 50.274730
  0.228000, 48.011850
  0.230000, 45.792430
  0.232000, 43.631840
  0.234000, 41.551990
  0.236000, 39.560340
  0.238000, 37.639440
  0.240000, 35.771230
  0.242000, 33.923000
  0.244000, 32.062900
  0.246000, 30.178290
  0.248000, 28.265020
  0.250000, 26.330190
  0.252000, 24.413970
  0.254000, 22.556240
  0.256000, 20.784330
  0.258000, 19.113030
  0.260000, 17.548310
  0.262000, 16.063040
  0.264000, 14.641910
  0.266000, 13.241600
  0.268000, 11.860760
  0.270000, 10.490240
  0.272000,  9.124100
  0.274000,  7.780230
  0.276000,  6.476500
  0.278000,  5.223220
  0.280000,  4.037990
  0.282000,  2.922940
  0.284000,  1.878970
  0.286000,  0.895610
  0.288000, -0.047260
  0.290000, -0.947480
  0.292000, -1.816510
  0.294000, -2.665910
  0.296000, -3.477910
  0.298000, -4.258980
  0.300000, -4.992790
  0.302000, -5.655620
  0.304000, -6.257790
  0.306000, -6.809360
  0.308000, -7.327380
  0.310000, -7.827660
  0.312000, -8.338830
  0.314000, -8.850720
  0.316000, -9.371630
  0.318000, -9.883480
  0.320000,-10.352500
  0.322000,-10.762350
  0.324000,-11.091420
  0.326000,-11.359160
  0.328000,-11.579170
  0.330000,-11.771240
  0.332000,-11.971530
  0.334000,-12.184990
  0.336000,-12.428520
  0.338000,-12.694130
  0.340000,-12.963070
  0.342000,-13.213350
  0.344000,-13.420450
  0.346000,-13.569330
  0.348000,-13.664550
  0.350000,-13.701520
  0.352000,-13.701160
  0.354000,-13.671000
  0.356000,-13.640570
  0.358000,-13.624640
  0.360000,-13.636300
  0.362000,-13.685360
  0.364000,-13.757350
  0.366000,-13.846400
  0.368000,-13.924160
  0.370000,-13.966300
  0.372000,-13.960830
  0.374000,-13.912130
  0.376000,-13.831840
  0.378000,-13.740480
  0.380000,-13.653980
  0.382000,-13.604830
  0.384000,-13.569320
  0.386000,-13.542270
  0.388000,-13.518750
  0.390000,-13.445740
  0.392000,-13.327950
  0.394000,-13.170710
  0.396000,-12.977990
  0.398000,-12.795740
  0.400000,-12.624990
  0.402000,-12.480140
  0.404000,-12.356350
  0.406000,-12.241000
  0.408000,-12.122520
  0.410000,-11.996890
  0.412000,-11.853710
  0.414000,-11.695020
  0.416000,-11.523070
  0.418000,-11.347890
  0.420000,-11.172430
  0.422000,-11.005720
  0.424000,-10.854240
  0.426000,-10.701890
  0.428000,-10.557290
  0.430000,-10.412890
  0.432000,-10.280650
  0.434000,-10.144410
  0.436000,-10.006600
  0.438000, -9.864420
  0.440000, -9.721430
  0.442000, -9.577970
  0.444000, -9.435430
  0.446000, -9.300480
  0.448000, -9.175020
  0.450000, -9.056490
  0.452000, -8.956650
  0.454000, -8.867470
  0.456000, -8.793040
  0.458000, -8.722340
  0.460000, -8.646580
  0.462000, -8.586280
  0.464000, -8.516860
  0.466000, -8.446780
  0.468000, -8.380380
  0.470000, -8.316190
  0.472000, -8.244520
  0.474000, -8.178800
  0.476000, -8.111130
  0.478000, -8.048310
  0.480000, -7.995720
  0.482000, -7.950100
  0.484000, -7.899350
  0.486000, -7.841070
  0.488000, -7.775980
  0.490000, -7.698160
  0.492000, -7.614680
  0.494000, -7.523070
  0.496000, -7.438630
  0.498000, -7.363380
  0.500000, -7.307650
  0.502000, -7.260620
  0.504000, -7.224640
  0.506000, -7.183970
  0.508000, -7.135360
  0.510000, -7.075550
  0.512000, -6.997100
  0.514000, -6.911150
  0.516000, -6.809540
  0.518000, -6.703840
  0.520000, -6.594680
  0.522000, -6.483600
  0.524000, -6.374600
  0.526000, -6.274760
  0.528000, -6.193730
  0.530000, -6.127470
  0.532000, -6.062770
  0.534000, -6.001260
  0.536000, -5.926990
  0.538000, -5.842580
  0.540000, -5.735890
  0.542000, -5.603540
  0.544000, -5.459650
  0.546000, -5.298590
  0.548000, -5.143820
  0.550000, -4.997810
  0.552000, -4.868730
  0.554000, -4.752150
  0.556000, -4.646620
  0.558000, -4.562560
  0.560000, -4.481870
  0.562000, -4.410350
  0.564000, -4.329840
  0.566000, -4.239600
  0.568000, -4.136210
  0.570000, -4.013940
  0.572000, -3.887080
  0.574000, -3.757970
  0.576000, -3.639950
  0.578000, -3.529810
  0.580000, -3.442150
  0.582000, -3.363980
  0.584000, -3.277660
  0.586000, -3.174680
  0.588000, -3.054750
  0.590000, -2.936440
  0.592000, -2.824260
  0.594000, -2.735640
  0.596000, -2.668360
  0.598000, -2.630290
  0.600000, -2.604460
  0.602000, -2.578690
  0.604000, -2.545000
  0.606000, -2.494020
  0.608000, -2.428000
  0.610000, -2.345510
  0.612000, -2.264230
  0.614000, -2.188100
  0.616000, -2.132720
  0.618000, -2.096360
  0.620000, -2.079630
  0.622000, -2.078090
  0.624000, -2.075580
  0.626000, -2.068020
  0.628000, -2.055720
  0.630000, -2.028320
  0.632000, -1.984480
  0.634000, -1.929820
  0.636000, -1.866300
  0.638000, -1.797360
  0.640000, -1.734300
  0.642000, -1.677010
  0.644000, -1.624640
  0.646000, -1.569160
  0.648000, -1.531780
  0.650000, -1.498730
  0.652000, -1.475880
  0.654000, -1.453290
  0.656000, -1.430050
  0.658000, -1.413530
  0.660000, -1.388750
  0.662000, -1.365900
  0.664000, -1.337480
  0.666000, -1.300590
  0.668000, -1.264040
  0.670000, -1.221340
  0.672000, -1.168120
  0.674000, -1.113130
  0.676000, -1.058010
  0.678000, -1.001330
  0.680000, -0.943590
  0.682000, -0.884750
  0.684000, -0.825260
  0.686000, -0.781250
  0.688000, -0.741490
  0.690000, -0.708830
  0.692000, -0.677460
  0.694000, -0.653050
  0.696000, -0.634220
  0.698000, -0.611340
  0.700000, -0.596470
  0.702000, -0.583060
  0.704000, -0.567240
  0.706000, -0.552980
  0.708000, -0.525920
  0.710000, -0.487860
  0.712000, -0.448680
  0.714000, -0.404500
  0.716000, -0.352270
  0.718000, -0.308720
  0.720000, -0.275350
  0.722000, -0.250230
  0.724000, -0.247390
  0.726000, -0.243700
  0.728000, -0.255620
  0.730000, -0.263000
  0.732000, -0.265520
  0.734000, -0.260160
  0.736000, -0.248530
  0.738000, -0.226950
  0.740000, -0.200360
  0.742000, -0.173620
  0.744000, -0.144420
  0.746000, -0.119910
  0.748000, -0.099190
  0.750000, -0.086890
  0.752000, -0.066520
  0.754000, -0.054990
  0.756000, -0.040110
  0.758000, -0.023020
  0.760000, -0.012440
  0.762000,  0.002530
  0.764000,  0.014980
  0.766000,  0.022140
  0.768000,  0.026370
  0.770000,  0.034060
  0.772000,  0.035050
  0.774000,  0.030940
  0.776000,  0.027240
  0.778000,  0.022130
  0.780000,  0.025120
  0.782000,  0.027130
  0.784000,  0.035100
  0.786000,  0.051140
  0.788000,  0.070780
  0.790000,  0.090840
  0.792000,  0.118870
  0.794000,  0.139220
  0.796000,  0.158110
  0.798000,  0.174990
  0.800000,  0.183670
  0.802000,  0.177150
  0.804000,  0.166050
  0.806000,  0.145930
  0.808000,  0.116000
  0.810000,  0.084390
  0.812000,  0.053130
  0.814000,  0.034780
  0.816000,  0.031460
  0.818000,  0.038160
  0.820000,  0.060520
  0.822000,  0.085320
  0.824000,  0.114370
  0.826000,  0.144200
  0.828000,  0.166790
  0.830000,  0.184260
  0.832000,  0.196320
  0.834000,  0.206240
  0.836000,  0.220240
  0.838000,  0.228540
  0.840000,  0.244310
  0.842000,  0.261790
  0.844000,  0.282920
  0.846000,  0.305730
  0.848000,  0.322940
  0.850000,  0.339800
  0.852000,  0.353140
  0.854000,  0.353880
  0.856000,  0.349450
  0.858000,  0.337660
  0.860000,  0.318070
  0.862000,  0.298000
  0.864000,  0.267890
  0.866000,  0.241400
  0.868000,  0.217540
  0.870000,  0.211700
  0.872000,  0.201860
  0.874000,  0.203920
  0.876000,  0.212730
  0.878000,  0.224990
  0.880000,  0.245760
  0.882000,  0.277790
  0.884000,  0.305410
  0.886000,  0.331090
  0.888000,  0.355520
  0.890000,  0.368990
  0.892000,  0.375920
  0.894000,  0.370350
  0.896000,  0.345750
  0.898000,  0.311730
  0.900000,  0.266590
  0.902000,  0.214350
  0.904000,  0.164600
  0.906000,  0.120170
  0.908000,  0.093310
  0.910000,  0.077490
  0.912000,  0.075970
  0.914000,  0.086120
  0.916000,  0.108200
  0.918000,  0.136720
  0.920000,  0.168110
  0.922000,  0.190530
  0.924000,  0.198140
  0.926000,  0.193920
  0.928000,  0.175880
  0.930000,  0.148560
  0.932000,  0.110050
  0.934000,  0.070390
  0.936000,  0.032950
  0.938000, -0.007100
  0.940000, -0.036530
  0.942000, -0.057740
  0.944000, -0.067130
  0.946000, -0.073770
  0.948000, -0.067320
  0.950000, -0.052080
  0.952000, -0.033270
  0.954000, -0.002880
  0.956000,  0.018350
  0.958000,  0.037510
  0.960000,  0.054790
  0.962000,  0.061740
  0.964000,  0.056870
  0.966000,  0.048550
  0.968000,  0.021980
  0.970000, -0.008960
  0.972000, -0.043590
  0.974000, -0.086080
  0.976000, -0.118470
  0.978000, -0.147500
  0.980000, -0.172110
  0.982000, -0.187210
  0.984000, -0.191150
  0.986000, -0.193050
  0.988000, -0.193950
  0.990000, -0.188450
  0.992000, -0.178340
  0.994000, -0.167560
  0.996000, -0.153220
  0.998000, -0.129430
  1.000000, -0.108370
