# z (nm)   (kJ/mol)
  0.0680  269.98426
  0.0700  266.36814
  0.0720  263.49381
  0.0740  260.85337
  0.0760  258.60078
  0.0780  256.14401
  0.0800  253.91606
  0.0820  251.61215
  0.0840  249.31249
  0.0860  246.94365
  0.0880  244.49733
  0.0900  241.92104
  0.0920  239.17546
  0.0940  236.20504
  0.0960  232.97148
  0.0980  229.43580
  0.1000  225.58135
  0.1020  221.42242
  0.1040  217.01163
  0.1060  212.44936
  0.1080  207.83421
  0.1100  203.25993
  0.1120  198.77795
  0.1140  194.41006
  0.1160  190.12067
  0.1180  185.84818
  0.1200  181.51497
  0.1220  177.08982
  0.1240  172.59787
  0.1260  168.14436
  0.1280  163.85095
  0.1300  159.79331
  0.1320  155.96236
  0.1340  152.30705
  0.1360  148.74958
  0.1380  145.23322
  0.1400  141.73108
  0.1420  138.23729
  0.1440  134.74990
  0.1460  131.25875
  0.1480  127.75826
  0.1500  124.24821
  0.1520  120.74890
  0.1540  117.27496
  0.1560  113.85720
  0.1580  110.52410
  0.1600  107.27364
  0.1620  104.11777
  0.1640  101.04599
  0.1660   98.02865
  0.1680   95.05077
  0.1700   92.08538
  0.1720   89.12213
  0.1740   86.16337
  0.1760   83.20897
  0.1780   80.26894
  0.1800   77.36264
  0.1820   74.48916
  0.1840   71.66166
  0.1860   68.86608
  0.1880   66.10818
  0.1900   63.38302
  0.1920   60.70239
  0.1940   58.06856
  0.1960   55.49052
  0.1980   52.97059
  0.2000   50.49864
  0.2020   48.06526
  0.2040   45.65842
  0.2060   43.28080
  0.2080   40.93491
  0.2100   38.64828
  0.2120   36.42316
  0.2140   34.27231
  0.2160   32.19217
  0.2180   30.17761
  0.2200   28.21016
  0.2220   26.28404
  0.2240   24.37704
  0.2260   22.50014
  0.2280   20.66996
  0.2300   18.88263
  0.2320   17.16120
  0.2340   15.50154
  0.2360   13.91952
  0.2380   12.39555
  0.2400   10.92407
  0.2420    9.49477
  0.2440    8.10607
  0.2460    6.76102
  0.2480    5.46375
  0.2500    4.21724
  0.2520    3.03504
  0.2540    1.91849
  0.2560    0.87677
  0.2580   -0.10637
  0.2600   -1.02052
  0.2620   -1.87949
  0.2640   -2.69308
  0.2660   -3.46712
  0.2680   -4.21118
  0.2700   -4.93192
  0.2720   -5.61720
  0.2740   -6.26054
  0.2760   -6.86703
  0.2780   -7.40562
  0.2800   -7.88095
  0.2820   -8.27837
  0.2840   -8.60688
  0.2860   -8.87416
  0.2880   -9.09092
  0.2900   -9.27429
  0.2920   -9.44322
  0.2940   -9.59328
  0.2960   -9.72912
  0.2980   -9.83720
  0.3000   -9.91396
  0.3020   -9.95757
  0.3040   -9.95941
  0.3060   -9.93415
  0.3080   -9.88676
  0.3100   -9.82759
  0.3120   -9.75892
  0.3140   -9.69549
  0.3160   -9.63502
  0.3180   -9.58192
  0.3200   -9.51994
  0.3220   -9.45436
  0.3240   -9.38326
  0.3260   -9.29850
  0.3280   -9.19415
  0.3300   -9.08727
  0.3320   -8.97394
  0.3340   -8.84994
  0.3360   -8.72422
  0.3380   -8.59187
  0.3400   -8.45024
  0.3420   -8.29213
  0.3440   -8.12416
  0.3460   -7.94321
  0.3480   -7.73678
  0.3500   -7.50518
  0.3520   -7.26567
  0.3540   -7.00573
  0.3560   -6.73166
  0.3580   -6.44367
  0.3600   -6.14711
  0.3620   -5.84741
  0.3640   -5.54844
  0.3660   -5.26463
  0.3680   -4.99525
  0.3700   -4.74232
  0.3720   -4.51246
  0.3740   -4.30447
  0.3760   -4.10567
  0.3780   -3.92499
  0.3800   -3.75120
  0.3820   -3.59245
  0.3840   -3.44238
  0.3860   -3.31126
  0.3880   -3.19766
  0.3900   -3.10210
  0.3920   -3.01807
  0.3940   -2.95377
  0.3960   -2.89425
  0.3980   -2.83849
  0.4000   -2.77427
  0.4020   -2.69689
  0.4040   -2.61192
  0.4060   -2.50257
  0.4080   -2.37970
  0.4100   -2.24994
  0.4120   -2.09753
  0.4140   -1.92383
  0.4160   -1.74509
  0.4180   -1.56114
  0.4200   -1.37431
  0.4220   -1.20793
  0.4240   -1.05833
  0.4260   -0.93630
  0.4280   -0.83150
  0.4300   -0.73045
  0.4320   -0.62632
  0.4340   -0.51474
  0.4360   -0.38758
  0.4380   -0.25993
  0.4400   -0.13975
  0.4420   -0.01771
  0.4440    0.06636
  0.4460    0.13557
  0.4480    0.18952
  0.4500    0.22898
  0.4520    0.25428
  0.4540    0.26282
  0.4560    0.26416
  0.4580    0.25054
  0.4600    0.22607
  0.4620    0.18306
  0.4640    0.13331
  0.4660    0.08603
  0.4680    0.04909
  0.4700    0.03109
  0.4720    0.03762
  0.4740    0.05890
  0.4760    0.08873
  0.4780    0.11473
  0.4800    0.12643
  0.4820    0.11467
  0.4840    0.08320
  0.4860    0.03223
  0.4880   -0.03556
  0.4900   -0.11310
  0.4920   -0.19759
  0.4940   -0.27627
  0.4960   -0.35243
  0.4980   -0.42527
  0.5000   -0.49424
  0.5020   -0.56469
  0.5040   -0.61421
  0.5060   -0.66879
  0.5080   -0.72733
  0.5100   -0.77820
  0.5120   -0.83306
  0.5140   -0.89433
  0.5160   -0.96225
  0.5180   -1.04501
  0.5200   -1.13159
  0.5220   -1.21868
  0.5240   -1.31372
  0.5260   -1.39591
  0.5280   -1.46848
  0.5300   -1.52335
  0.5320   -1.56882
  0.5340   -1.59981
  0.5360   -1.61526
  0.5380   -1.62316
  0.5400   -1.62801
  0.5420   -1.63199
  0.5440   -1.64233
  0.5460   -1.67072
  0.5480   -1.70084
  0.5500   -1.73655
  0.5520   -1.77819
  0.5540   -1.80756
  0.5560   -1.83213
  0.5580   -1.84535
  0.5600   -1.83714
  0.5620   -1.81128
  0.5640   -1.76294
  0.5660   -1.70875
  0.5680   -1.64670
  0.5700   -1.59870
  0.5720   -1.56070
  0.5740   -1.53566
  0.5760   -1.53421
  0.5780   -1.54609
  0.5800   -1.56087
  0.5820   -1.57451
  0.5840   -1.58123
  0.5860   -1.57027
  0.5880   -1.53451
  0.5900   -1.47158
  0.5920   -1.38288
  0.5940   -1.28655
  0.5960   -1.17552
  0.5980   -1.08083
  0.6000   -1.00138
  0.6020   -0.93875
  0.6040   -0.90735
  0.6060   -0.89525
  0.6080   -0.89602
  0.6100   -0.90257
  0.6120   -0.90503
  0.6140   -0.89706
  0.6160   -0.88012
  0.6180   -0.84280
  0.6200   -0.78871
  0.6220   -0.71611
  0.6240   -0.62776
  0.6260   -0.53460
  0.6280   -0.45437
  0.6300   -0.37475
  0.6320   -0.29838
  0.6340   -0.24461
  0.6360   -0.21214
  0.6380   -0.19608
  0.6400   -0.19317
  0.6420   -0.21056
  0.6440   -0.23042
  0.6460   -0.25985
  0.6480   -0.27841
  0.6500   -0.28642
  0.6520   -0.28086
  0.6540   -0.25636
  0.6560   -0.21639
  0.6580   -0.17096
  0.6600   -0.11744
  0.6620   -0.05855
  0.6640   -0.01469
  0.6660    0.01505
  0.6680    0.02718
  0.6700    0.02304
  0.6720    0.01058
  0.6740   -0.02026
  0.6760   -0.05051
  0.6780   -0.07933
  0.6800   -0.11052
  0.6820   -0.13350
  0.6840   -0.14888
  0.6860   -0.15346
  0.6880   -0.14495
  0.6900   -0.14230
  0.6920   -0.12851
  0.6940   -0.11319
  0.6960   -0.09867
  0.6980   -0.09054
  0.7000   -0.09164
  0.7020   -0.09898
  0.7040   -0.11706
  0.7060   -0.15212
  0.7080   -0.19360
  0.7100   -0.23943
  0.7120   -0.28351
  0.7140   -0.33013
  0.7160   -0.36467
  0.7180   -0.39087
  0.7200   -0.40488
  0.7220   -0.40450
  0.7240   -0.40104
  0.7260   -0.39089
  0.7280   -0.37389
  0.7300   -0.35616
  0.7320   -0.33853
  0.7340   -0.32656
  0.7360   -0.32229
  0.7380   -0.32322
  0.7400   -0.33175
  0.7420   -0.33634
  0.7440   -0.34705
  0.7460   -0.35729
  0.7480   -0.36732
  0.7500   -0.36678
  0.7520   -0.37187
  0.7540   -0.37170
  0.7560   -0.37769
  0.7580   -0.37789
  0.7600   -0.38080
  0.7620   -0.38163
  0.7640   -0.39532
  0.7660   -0.40226
  0.7680   -0.40192
  0.7700   -0.39705
  0.7720   -0.37716
  0.7740   -0.35137
  0.7760   -0.32809
  0.7780   -0.29793
  0.7800   -0.26827
  0.7820   -0.24394
  0.7840   -0.23223
  0.7860   -0.22597
  0.7880   -0.23060
  0.7900   -0.22868
  0.7920   -0.23525
  0.7940   -0.24417
  0.7960   -0.24909
  0.7980   -0.24928
  0.8000   -0.23760
  0.8020   -0.22025
  0.8040   -0.20472
  0.8060   -0.18652
  0.8080   -0.16858
  0.8100   -0.15500
  0.8120   -0.14259
  0.8140   -0.13684
  0.8160   -0.12507
  0.8180   -0.12097
  0.8200   -0.11369
  0.8220   -0.10610
  0.8240   -0.09958
  0.8260   -0.08713
  0.8280   -0.07789
  0.8300   -0.07061
  0.8320   -0.05945
  0.8340   -0.05170
  0.8360   -0.04422
  0.8380   -0.03616
  0.8400   -0.02951
  0.8420   -0.02223
  0.8440   -0.01507
  0.8460   -0.00597
  0.8480    0.00606
  0.8500    0.01418
  0.8520    0.01854
  0.8540    0.02046
  0.8560    0.02445
  0.8580    0.03219
  0.8600    0.03841
  0.8620    0.04357
  0.8640    0.05649
  0.8660    0.06141
  0.8680    0.07459
  0.8700    0.08486
  0.8720    0.09313
  0.8740    0.10285
  0.8760    0.10398
  0.8780    0.10704
  0.8800    0.11259
  0.8820    0.11677
  0.8840    0.11666
  0.8860    0.11964
  0.8880    0.12374
  0.8900    0.13371
  0.8920    0.14329
  0.8940    0.15622
  0.8960    0.17320
  0.8980    0.18854
  0.9000    0.19804
  0.9020    0.19775
  0.9040    0.20264
  0.9060    0.20563
  0.9080    0.20338
  0.9100    0.20024
  0.9120    0.19887
  0.9140    0.19446
  0.9160    0.18985
  0.9180    0.18598
  0.9200    0.17480
  0.9220    0.16347
  0.9240    0.15387
  0.9260    0.14153
  0.9280    0.12655
  0.9300    0.11167
  0.9320    0.09582
  0.9340    0.08695
  0.9360    0.07080
  0.9380    0.04349
  0.9400    0.01763
  0.9420   -0.01102
  0.9440   -0.03820
  0.9460   -0.06756
  0.9480   -0.09424
  0.9500   -0.11762
  0.9520   -0.13772
  0.9540   -0.15109
  0.9560   -0.15862
  0.9580   -0.15464
  0.9600   -0.13959
  0.9620   -0.12240
  0.9640   -0.10226
  0.9660   -0.08329
  0.9680   -0.06514
  0.9700   -0.05066
  0.9720   -0.04271
  0.9740   -0.04456
  0.9760   -0.05428
  0.9780   -0.07677
  0.9800   -0.10398
  0.9820   -0.12420
  0.9840   -0.14145
  0.9860   -0.14955
  0.9880   -0.14945
  0.9900   -0.14319
  0.9920   -0.12695
  0.9940   -0.10569
  0.9960   -0.08527
  0.9980   -0.06690
  1.0000   -0.05638
