# z (nm)   (kJ/mol)
  0.066000,281.537930
  0.068000,278.943230
  0.070000,276.373100
  0.072000,273.186630
  0.074000,270.182910
  0.076000,267.462890
  0.078000,264.548940
  0.080000,261.748190
  0.082000,258.927490
  0.084000,256.071780
  0.086000,253.178490
  0.088000,250.218690
  0.090000,247.170800
  0.092000,244.057820
  0.094000,240.846750
  0.096000,237.525630
  0.098000,234.096520
  0.100000,230.546760
  0.102000,226.876920
  0.104000,223.090600
  0.106000,219.189360
  0.108000,215.189320
  0.110000,211.103500
  0.112000,206.947770
  0.114000,202.750900
  0.116000,198.529890
  0.118000,194.309300
  0.120000,190.107670
  0.122000,185.949890
  0.124000,181.844460
  0.126000,177.814270
  0.128000,173.864050
  0.130000,169.986580
  0.132000,166.190930
  0.134000,162.463070
  0.136000,158.798040
  0.138000,155.194580
  0.140000,151.642090
  0.142000,148.141570
  0.144000,144.696330
  0.146000,141.305320
  0.148000,137.971310
  0.150000,134.701000
  0.152000,131.488460
  0.154000,128.320240
  0.156000,125.197650
  0.158000,122.114790
  0.160000,119.059850
  0.162000,116.033240
  0.164000,113.037280
  0.166000,110.068500
  0.168000,107.130150
  0.170000,104.221590
  0.172000,101.349410
  0.174000, 98.505450
  0.176000, 95.700790
  0.178000, 92.940340
  0.180000, 90.216810
  0.182000, 87.543760
  0.184000, 84.921600
  0.186000, 82.341480
  0.188000, 79.802190
  0.190000, 77.298420
  0.192000, 74.825560
  0.194000, 72.373850
  0.196000, 69.952090
  0.198000, 67.560930
  0.200000, 65.207410
  0.202000, 62.902140
  0.204000, 60.655880
  0.206000, 58.469710
  0.208000, 56.341510
  0.210000, 54.270660
  0.212000, 52.261250
  0.214000, 50.305980
  0.216000, 48.390650
  0.218000, 46.517400
  0.220000, 44.679660
  0.222000, 42.873670
  0.224000, 41.094400
  0.226000, 39.344810
  0.228000, 37.623300
  0.230000, 35.938040
  0.232000, 34.284540
  0.234000, 32.673530
  0.236000, 31.110800
  0.238000, 29.589430
  0.240000, 28.117170
  0.242000, 26.695180
  0.244000, 25.321130
  0.246000, 23.983910
  0.248000, 22.692580
  0.250000, 21.436400
  0.252000, 20.223580
  0.254000, 19.040670
  0.256000, 17.896100
  0.258000, 16.786850
  0.260000, 15.719860
  0.262000, 14.690890
  0.264000, 13.690870
  0.266000, 12.735970
  0.268000, 11.810710
  0.270000, 10.915080
  0.272000, 10.052550
  0.274000,  9.215540
  0.276000,  8.410480
  0.278000,  7.637260
  0.280000,  6.885450
  0.282000,  6.171380
  0.284000,  5.484710
  0.286000,  4.836890
  0.288000,  4.221400
  0.290000,  3.642910
  0.292000,  3.104360
  0.294000,  2.592510
  0.296000,  2.122120
  0.298000,  1.680640
  0.300000,  1.259590
  0.302000,  0.871950
  0.304000,  0.502370
  0.306000,  0.158120
  0.308000, -0.163000
  0.310000, -0.459660
  0.312000, -0.731700
  0.314000, -0.984790
  0.316000, -1.214040
  0.318000, -1.437770
  0.320000, -1.650530
  0.322000, -1.854580
  0.324000, -2.043170
  0.326000, -2.218860
  0.328000, -2.379730
  0.330000, -2.519440
  0.332000, -2.639460
  0.334000, -2.731520
  0.336000, -2.804870
  0.338000, -2.862500
  0.340000, -2.902320
  0.342000, -2.926260
  0.344000, -2.939540
  0.346000, -2.941270
  0.348000, -2.939840
  0.350000, -2.923470
  0.352000, -2.913900
  0.354000, -2.899060
  0.356000, -2.881980
  0.358000, -2.862000
  0.360000, -2.837020
  0.362000, -2.817660
  0.364000, -2.794070
  0.366000, -2.773840
  0.368000, -2.755730
  0.370000, -2.731920
  0.372000, -2.705890
  0.374000, -2.687120
  0.376000, -2.661130
  0.378000, -2.637270
  0.380000, -2.616240
  0.382000, -2.595810
  0.384000, -2.577150
  0.386000, -2.562920
  0.388000, -2.543550
  0.390000, -2.526100
  0.392000, -2.513970
  0.394000, -2.501190
  0.396000, -2.486340
  0.398000, -2.473330
  0.400000, -2.459790
  0.402000, -2.447350
  0.404000, -2.434430
  0.406000, -2.422450
  0.408000, -2.415180
  0.410000, -2.409000
  0.412000, -2.405230
  0.414000, -2.411730
  0.416000, -2.418900
  0.418000, -2.431270
  0.420000, -2.441640
  0.422000, -2.449480
  0.424000, -2.453120
  0.426000, -2.457030
  0.428000, -2.446640
  0.430000, -2.424290
  0.432000, -2.391140
  0.434000, -2.348800
  0.436000, -2.295670
  0.438000, -2.239910
  0.440000, -2.172900
  0.442000, -2.103930
  0.444000, -2.031130
  0.446000, -1.958090
  0.448000, -1.886150
  0.450000, -1.812160
  0.452000, -1.740160
  0.454000, -1.669370
  0.456000, -1.594970
  0.458000, -1.528600
  0.460000, -1.462850
  0.462000, -1.399820
  0.464000, -1.333290
  0.466000, -1.261710
  0.468000, -1.191920
  0.470000, -1.121460
  0.472000, -1.054570
  0.474000, -0.977760
  0.476000, -0.898430
  0.478000, -0.814410
  0.480000, -0.731250
  0.482000, -0.646840
  0.484000, -0.558870
  0.486000, -0.478160
  0.488000, -0.396650
  0.490000, -0.325270
  0.492000, -0.255630
  0.494000, -0.197920
  0.496000, -0.148230
  0.498000, -0.112200
  0.500000, -0.084140
  0.502000, -0.069960
  0.504000, -0.063180
  0.506000, -0.066490
  0.508000, -0.069460
  0.510000, -0.077060
  0.512000, -0.077770
  0.514000, -0.071600
  0.516000, -0.060990
  0.518000, -0.040940
  0.520000, -0.011160
  0.522000,  0.028240
  0.524000,  0.068060
  0.526000,  0.105250
  0.528000,  0.140800
  0.530000,  0.168290
  0.532000,  0.177350
  0.534000,  0.176340
  0.536000,  0.160510
  0.538000,  0.140620
  0.540000,  0.112250
  0.542000,  0.079430
  0.544000,  0.043500
  0.546000,  0.003620
  0.548000, -0.031190
  0.550000, -0.064620
  0.552000, -0.088440
  0.554000, -0.102100
  0.556000, -0.110800
  0.558000, -0.116930
  0.560000, -0.117380
  0.562000, -0.117110
  0.564000, -0.119180
  0.566000, -0.121100
  0.568000, -0.126530
  0.570000, -0.131610
  0.572000, -0.146580
  0.574000, -0.157050
  0.576000, -0.185350
  0.578000, -0.216900
  0.580000, -0.254850
  0.582000, -0.291590
  0.584000, -0.327100
  0.586000, -0.356840
  0.588000, -0.390990
  0.590000, -0.415820
  0.592000, -0.432080
  0.594000, -0.441720
  0.596000, -0.450640
  0.598000, -0.450150
  0.600000, -0.452060
  0.602000, -0.452850
  0.604000, -0.448650
  0.606000, -0.446760
  0.608000, -0.447330
  0.610000, -0.454300
  0.612000, -0.464650
  0.614000, -0.473010
  0.616000, -0.483890
  0.618000, -0.493260
  0.620000, -0.497480
  0.622000, -0.508550
  0.624000, -0.515010
  0.626000, -0.523210
  0.628000, -0.528430
  0.630000, -0.530010
  0.632000, -0.529250
  0.634000, -0.521940
  0.636000, -0.505950
  0.638000, -0.493470
  0.640000, -0.474350
  0.642000, -0.457110
  0.644000, -0.433530
  0.646000, -0.402690
  0.648000, -0.380270
  0.650000, -0.363970
  0.652000, -0.340040
  0.654000, -0.316670
  0.656000, -0.299660
  0.658000, -0.281180
  0.660000, -0.262780
  0.662000, -0.243000
  0.664000, -0.218080
  0.666000, -0.199050
  0.668000, -0.182200
  0.670000, -0.158720
  0.672000, -0.139200
  0.674000, -0.112110
  0.676000, -0.097120
  0.678000, -0.081370
  0.680000, -0.068160
  0.682000, -0.058800
  0.684000, -0.043340
  0.686000, -0.026630
  0.688000, -0.012820
  0.690000,  0.000570
  0.692000,  0.014050
  0.694000,  0.025060
  0.696000,  0.042060
  0.698000,  0.053770
  0.700000,  0.074910
  0.702000,  0.094840
  0.704000,  0.110030
  0.706000,  0.129590
  0.708000,  0.147360
  0.710000,  0.165180
  0.712000,  0.184190
  0.714000,  0.200780
  0.716000,  0.215600
  0.718000,  0.232760
  0.720000,  0.245630
  0.722000,  0.261020
  0.724000,  0.279300
  0.726000,  0.304100
  0.728000,  0.329350
  0.730000,  0.359280
  0.732000,  0.393800
  0.734000,  0.429260
  0.736000,  0.472360
  0.738000,  0.512580
  0.740000,  0.552250
  0.742000,  0.583760
  0.744000,  0.609190
  0.746000,  0.633820
  0.748000,  0.645320
  0.750000,  0.651760
  0.752000,  0.652980
  0.754000,  0.649410
  0.756000,  0.649420
  0.758000,  0.644130
  0.760000,  0.642940
  0.762000,  0.647260
  0.764000,  0.652750
  0.766000,  0.663280
  0.768000,  0.676430
  0.770000,  0.692060
  0.772000,  0.705380
  0.774000,  0.725180
  0.776000,  0.749490
  0.778000,  0.774400
  0.780000,  0.798910
  0.782000,  0.820910
  0.784000,  0.844240
  0.786000,  0.866540
  0.788000,  0.882480
  0.790000,  0.898140
  0.792000,  0.906530
  0.794000,  0.902700
  0.796000,  0.891580
  0.798000,  0.876970
  0.800000,  0.852500
  0.802000,  0.823740
  0.804000,  0.798510
  0.806000,  0.765180
  0.808000,  0.744940
  0.810000,  0.730400
  0.812000,  0.730540
  0.814000,  0.741140
  0.816000,  0.763910
  0.818000,  0.795850
  0.820000,  0.824830
  0.822000,  0.855440
  0.824000,  0.879260
  0.826000,  0.896540
  0.828000,  0.900010
  0.830000,  0.891060
  0.832000,  0.872590
  0.834000,  0.842580
  0.836000,  0.803430
  0.838000,  0.763110
  0.840000,  0.723600
  0.842000,  0.686170
  0.844000,  0.646110
  0.846000,  0.617130
  0.848000,  0.587120
  0.850000,  0.564250
  0.852000,  0.550300
  0.854000,  0.533810
  0.856000,  0.515180
  0.858000,  0.499070
  0.860000,  0.478560
  0.862000,  0.459030
  0.864000,  0.442500
  0.866000,  0.424900
  0.868000,  0.405420
  0.870000,  0.386370
  0.872000,  0.370050
  0.874000,  0.350620
  0.876000,  0.334080
  0.878000,  0.316660
  0.880000,  0.302360
  0.882000,  0.285210
  0.884000,  0.268180
  0.886000,  0.257300
  0.888000,  0.246480
  0.890000,  0.237350
  0.892000,  0.228660
  0.894000,  0.224360
  0.896000,  0.221190
  0.898000,  0.221060
  0.900000,  0.217750
  0.902000,  0.216900
  0.904000,  0.220210
  0.906000,  0.219820
  0.908000,  0.217210
  0.910000,  0.205430
  0.912000,  0.199270
  0.914000,  0.186560
  0.916000,  0.176450
  0.918000,  0.157320
  0.920000,  0.134570
  0.922000,  0.113600
  0.924000,  0.089820
  0.926000,  0.062460
  0.928000,  0.038770
  0.930000,  0.014560
  0.932000, -0.006240
  0.934000, -0.019830
  0.936000, -0.024850
  0.938000, -0.027110
  0.940000, -0.025680
  0.942000, -0.016920
  0.944000, -0.006340
  0.946000,  0.009610
  0.948000,  0.027720
  0.950000,  0.045730
  0.952000,  0.061280
  0.954000,  0.076980
  0.956000,  0.081250
  0.958000,  0.084800
  0.960000,  0.081310
  0.962000,  0.073020
  0.964000,  0.050660
  0.966000,  0.029840
  0.968000, -0.001600
  0.970000, -0.038030
  0.972000, -0.073880
  0.974000, -0.108320
  0.976000, -0.148330
  0.978000, -0.188540
  0.980000, -0.213430
  0.982000, -0.228970
  0.984000, -0.236650
  0.986000, -0.240120
  0.988000, -0.234390
  0.990000, -0.224650
  0.992000, -0.206500
  0.994000, -0.183990
  0.996000, -0.166940
  0.998000, -0.138650
  1.000000, -0.115190
