# z (nm)   (kJ/mol)
  0.082000,276.481070
  0.084000,274.254930
  0.086000,270.362050
  0.088000,267.951330
  0.090000,265.537370
  0.092000,263.195670
  0.094000,260.876350
  0.096000,258.544960
  0.098000,256.161180
  0.100000,253.715570
  0.102000,251.178990
  0.104000,248.535510
  0.106000,245.757130
  0.108000,242.820940
  0.110000,239.707140
  0.112000,236.405320
  0.114000,232.916960
  0.116000,229.252460
  0.118000,225.423400
  0.120000,221.464610
  0.122000,217.405590
  0.124000,213.272620
  0.126000,209.081740
  0.128000,204.842240
  0.130000,200.554170
  0.132000,196.214900
  0.134000,191.823450
  0.136000,187.378860
  0.138000,182.900500
  0.140000,178.410750
  0.142000,173.957900
  0.144000,169.590490
  0.146000,165.343120
  0.148000,161.247790
  0.150000,157.303320
  0.152000,153.504630
  0.154000,149.814140
  0.156000,146.207610
  0.158000,142.658720
  0.160000,139.158100
  0.162000,135.686340
  0.164000,132.244260
  0.166000,128.826600
  0.168000,125.425380
  0.170000,122.030950
  0.172000,118.638130
  0.174000,115.261900
  0.176000,111.911290
  0.178000,108.599730
  0.180000,105.343210
  0.182000,102.161820
  0.184000, 99.060780
  0.186000, 96.041400
  0.188000, 93.091890
  0.190000, 90.200410
  0.192000, 87.344720
  0.194000, 84.508880
  0.196000, 81.689400
  0.198000, 78.889020
  0.200000, 76.115810
  0.202000, 73.388860
  0.204000, 70.728810
  0.206000, 68.139070
  0.208000, 65.619060
  0.210000, 63.153300
  0.212000, 60.724420
  0.214000, 58.342970
  0.216000, 56.002700
  0.218000, 53.702360
  0.220000, 51.456480
  0.222000, 49.265830
  0.224000, 47.136250
  0.226000, 45.065700
  0.228000, 43.057460
  0.230000, 41.104780
  0.232000, 39.203270
  0.234000, 37.347350
  0.236000, 35.541240
  0.238000, 33.784310
  0.240000, 32.079540
  0.242000, 30.430020
  0.244000, 28.825160
  0.246000, 27.261190
  0.248000, 25.744150
  0.250000, 24.254890
  0.252000, 22.809990
  0.254000, 21.409370
  0.256000, 20.057030
  0.258000, 18.759910
  0.260000, 17.516420
  0.262000, 16.319030
  0.264000, 15.180320
  0.266000, 14.088170
  0.268000, 13.038470
  0.270000, 12.034060
  0.272000, 11.072480
  0.274000, 10.146470
  0.276000,  9.260230
  0.278000,  8.411950
  0.280000,  7.594040
  0.282000,  6.814960
  0.284000,  6.073450
  0.286000,  5.365490
  0.288000,  4.705430
  0.290000,  4.082230
  0.292000,  3.493230
  0.294000,  2.944120
  0.296000,  2.423930
  0.298000,  1.930780
  0.300000,  1.456920
  0.302000,  1.002840
  0.304000,  0.576960
  0.306000,  0.171250
  0.308000, -0.209440
  0.310000, -0.567950
  0.312000, -0.903970
  0.314000, -1.215550
  0.316000, -1.509020
  0.318000, -1.777150
  0.320000, -2.026850
  0.322000, -2.262660
  0.324000, -2.477240
  0.326000, -2.665750
  0.328000, -2.835030
  0.330000, -2.986410
  0.332000, -3.123790
  0.334000, -3.241240
  0.336000, -3.339560
  0.338000, -3.429930
  0.340000, -3.512720
  0.342000, -3.584650
  0.344000, -3.651640
  0.346000, -3.725580
  0.348000, -3.796040
  0.350000, -3.863740
  0.352000, -3.916790
  0.354000, -3.960190
  0.356000, -3.984810
  0.358000, -4.007120
  0.360000, -4.012760
  0.362000, -4.010260
  0.364000, -3.997660
  0.366000, -3.975700
  0.368000, -3.955690
  0.370000, -3.929720
  0.372000, -3.903500
  0.374000, -3.865580
  0.376000, -3.832750
  0.378000, -3.792670
  0.380000, -3.742890
  0.382000, -3.679520
  0.384000, -3.613340
  0.386000, -3.548920
  0.388000, -3.478480
  0.390000, -3.401600
  0.392000, -3.330110
  0.394000, -3.255850
  0.396000, -3.189050
  0.398000, -3.123900
  0.400000, -3.069490
  0.402000, -3.022090
  0.404000, -2.985330
  0.406000, -2.948320
  0.408000, -2.921540
  0.410000, -2.883400
  0.412000, -2.857800
  0.414000, -2.824230
  0.416000, -2.790530
  0.418000, -2.759530
  0.420000, -2.734380
  0.422000, -2.713070
  0.424000, -2.697520
  0.426000, -2.695580
  0.428000, -2.696680
  0.430000, -2.704010
  0.432000, -2.716450
  0.434000, -2.737140
  0.436000, -2.759430
  0.438000, -2.775780
  0.440000, -2.801510
  0.442000, -2.823700
  0.444000, -2.833430
  0.446000, -2.844860
  0.448000, -2.858100
  0.450000, -2.874180
  0.452000, -2.893130
  0.454000, -2.914860
  0.456000, -2.942110
  0.458000, -2.974130
  0.460000, -3.005090
  0.462000, -3.043330
  0.464000, -3.073110
  0.466000, -3.095220
  0.468000, -3.107210
  0.470000, -3.119130
  0.472000, -3.128210
  0.474000, -3.130830
  0.476000, -3.146830
  0.478000, -3.169730
  0.480000, -3.196570
  0.482000, -3.225810
  0.484000, -3.254330
  0.486000, -3.284950
  0.488000, -3.306010
  0.490000, -3.324290
  0.492000, -3.319140
  0.494000, -3.296570
  0.496000, -3.258440
  0.498000, -3.202420
  0.500000, -3.143590
  0.502000, -3.077030
  0.504000, -3.007120
  0.506000, -2.934620
  0.508000, -2.870540
  0.510000, -2.808900
  0.512000, -2.749070
  0.514000, -2.694610
  0.516000, -2.636110
  0.518000, -2.573030
  0.520000, -2.502820
  0.522000, -2.432530
  0.524000, -2.342890
  0.526000, -2.256110
  0.528000, -2.162260
  0.530000, -2.056660
  0.532000, -1.948220
  0.534000, -1.833810
  0.536000, -1.727570
  0.538000, -1.615600
  0.540000, -1.507250
  0.542000, -1.403900
  0.544000, -1.297770
  0.546000, -1.197520
  0.548000, -1.097370
  0.550000, -1.005630
  0.552000, -0.916770
  0.554000, -0.832900
  0.556000, -0.760890
  0.558000, -0.696060
  0.560000, -0.638350
  0.562000, -0.584700
  0.564000, -0.538760
  0.566000, -0.494680
  0.568000, -0.449290
  0.570000, -0.407350
  0.572000, -0.359910
  0.574000, -0.309140
  0.576000, -0.260380
  0.578000, -0.208960
  0.580000, -0.151500
  0.582000, -0.101420
  0.584000, -0.050490
  0.586000, -0.002050
  0.588000,  0.038330
  0.590000,  0.057370
  0.592000,  0.064180
  0.594000,  0.062140
  0.596000,  0.036750
  0.598000,  0.005870
  0.600000, -0.035820
  0.602000, -0.075990
  0.604000, -0.111060
  0.606000, -0.135380
  0.608000, -0.148770
  0.610000, -0.151350
  0.612000, -0.139250
  0.614000, -0.117780
  0.616000, -0.090440
  0.618000, -0.069980
  0.620000, -0.054850
  0.622000, -0.050730
  0.624000, -0.049910
  0.626000, -0.070980
  0.628000, -0.094090
  0.630000, -0.129610
  0.632000, -0.169330
  0.634000, -0.204310
  0.636000, -0.239940
  0.638000, -0.269640
  0.640000, -0.284550
  0.642000, -0.295790
  0.644000, -0.298570
  0.646000, -0.288420
  0.648000, -0.275530
  0.650000, -0.257290
  0.652000, -0.241260
  0.654000, -0.233440
  0.656000, -0.230330
  0.658000, -0.233470
  0.660000, -0.239200
  0.662000, -0.237720
  0.664000, -0.231710
  0.666000, -0.207150
  0.668000, -0.175350
  0.670000, -0.129450
  0.672000, -0.078610
  0.674000, -0.040480
  0.676000, -0.011060
  0.678000,  0.004770
  0.680000,  0.009550
  0.682000, -0.006670
  0.684000, -0.029840
  0.686000, -0.050220
  0.688000, -0.069320
  0.690000, -0.077930
  0.692000, -0.080740
  0.694000, -0.078850
  0.696000, -0.061560
  0.698000, -0.035350
  0.700000, -0.001190
  0.702000,  0.035460
  0.704000,  0.076840
  0.706000,  0.115720
  0.708000,  0.150210
  0.710000,  0.175820
  0.712000,  0.191980
  0.714000,  0.197350
  0.716000,  0.191200
  0.718000,  0.165640
  0.720000,  0.138670
  0.722000,  0.109210
  0.724000,  0.068700
  0.726000,  0.037550
  0.728000,  0.013540
  0.730000, -0.000190
  0.732000, -0.000410
  0.734000,  0.012590
  0.736000,  0.033690
  0.738000,  0.054570
  0.740000,  0.082150
  0.742000,  0.101580
  0.744000,  0.116710
  0.746000,  0.124980
  0.748000,  0.120070
  0.750000,  0.110840
  0.752000,  0.089840
  0.754000,  0.060190
  0.756000,  0.024340
  0.758000, -0.002410
  0.760000, -0.026750
  0.762000, -0.045030
  0.764000, -0.059150
  0.766000, -0.053900
  0.768000, -0.040150
  0.770000, -0.017200
  0.772000,  0.011890
  0.774000,  0.051890
  0.776000,  0.096480
  0.778000,  0.141240
  0.780000,  0.186610
  0.782000,  0.227960
  0.784000,  0.264040
  0.786000,  0.287000
  0.788000,  0.306580
  0.790000,  0.321550
  0.792000,  0.325370
  0.794000,  0.323510
  0.796000,  0.310740
  0.798000,  0.297400
  0.800000,  0.281320
  0.802000,  0.268120
  0.804000,  0.254930
  0.806000,  0.247280
  0.808000,  0.241880
  0.810000,  0.240790
  0.812000,  0.249280
  0.814000,  0.253650
  0.816000,  0.269310
  0.818000,  0.280310
  0.820000,  0.299840
  0.822000,  0.324750
  0.824000,  0.351290
  0.826000,  0.370120
  0.828000,  0.383650
  0.830000,  0.393870
  0.832000,  0.398160
  0.834000,  0.398390
  0.836000,  0.388270
  0.838000,  0.372650
  0.840000,  0.357970
  0.842000,  0.338380
  0.844000,  0.320390
  0.846000,  0.301220
  0.848000,  0.287120
  0.850000,  0.276810
  0.852000,  0.272370
  0.854000,  0.278990
  0.856000,  0.289120
  0.858000,  0.301070
  0.860000,  0.310370
  0.862000,  0.317740
  0.864000,  0.327360
  0.866000,  0.336950
  0.868000,  0.339530
  0.870000,  0.341230
  0.872000,  0.333100
  0.874000,  0.318730
  0.876000,  0.302430
  0.878000,  0.289360
  0.880000,  0.271890
  0.882000,  0.250280
  0.884000,  0.237190
  0.886000,  0.222380
  0.888000,  0.207780
  0.890000,  0.198710
  0.892000,  0.188300
  0.894000,  0.179660
  0.896000,  0.177330
  0.898000,  0.178390
  0.900000,  0.179980
  0.902000,  0.178010
  0.904000,  0.177600
  0.906000,  0.180550
  0.908000,  0.180140
  0.910000,  0.177220
  0.912000,  0.176820
  0.914000,  0.167080
  0.916000,  0.158610
  0.918000,  0.142020
  0.920000,  0.123880
  0.922000,  0.097310
  0.924000,  0.081150
  0.926000,  0.050650
  0.928000,  0.030010
  0.930000,  0.011860
  0.932000, -0.004020
  0.934000, -0.023390
  0.936000, -0.031810
  0.938000, -0.033810
  0.940000, -0.029310
  0.942000, -0.027280
  0.944000, -0.021430
  0.946000, -0.015410
  0.948000, -0.010020
  0.950000, -0.005960
  0.952000, -0.000480
  0.954000,  0.002970
  0.956000,  0.010670
  0.958000,  0.018750
  0.960000,  0.026400
  0.962000,  0.033370
  0.964000,  0.038480
  0.966000,  0.044500
  0.968000,  0.046300
  0.970000,  0.044620
  0.972000,  0.042670
  0.974000,  0.030890
  0.976000,  0.014420
  0.978000, -0.011500
  0.980000, -0.040770
  0.982000, -0.069410
  0.984000, -0.096950
  0.986000, -0.129700
  0.988000, -0.163550
  0.990000, -0.196110
  0.992000, -0.221500
  0.994000, -0.252310
  0.996000, -0.281130
  0.998000, -0.302040
  1.000000, -0.319010
