# z (nm)   (kJ/mol)
  0.058000,273.937930
  0.060000,270.602720
  0.062000,267.847990
  0.064000,264.863520
  0.066000,262.175450
  0.068000,259.458430
  0.070000,256.769690
  0.072000,253.982620
  0.074000,251.178100
  0.076000,248.281660
  0.078000,245.305400
  0.080000,242.236540
  0.082000,239.075940
  0.084000,235.810880
  0.086000,232.445500
  0.088000,228.975370
  0.090000,225.404970
  0.092000,221.742730
  0.094000,217.985980
  0.096000,214.144040
  0.098000,210.220980
  0.100000,206.227350
  0.102000,202.166990
  0.104000,198.058050
  0.106000,193.907140
  0.108000,189.736680
  0.110000,185.562090
  0.112000,181.402450
  0.114000,177.285780
  0.116000,173.230440
  0.118000,169.262030
  0.120000,165.394520
  0.122000,161.642440
  0.124000,158.009870
  0.126000,154.499490
  0.128000,151.102850
  0.130000,147.805510
  0.132000,144.589940
  0.134000,141.437560
  0.136000,138.328810
  0.138000,135.239310
  0.140000,132.152570
  0.142000,129.050420
  0.144000,125.943320
  0.146000,122.830050
  0.148000,119.719540
  0.150000,116.624850
  0.152000,113.559620
  0.154000,110.534890
  0.156000,107.545070
  0.158000,104.597630
  0.160000,101.693430
  0.162000, 98.824600
  0.164000, 95.977040
  0.166000, 93.156280
  0.168000, 90.369310
  0.170000, 87.612310
  0.172000, 84.889030
  0.174000, 82.209590
  0.176000, 79.568080
  0.178000, 76.973980
  0.180000, 74.421140
  0.182000, 71.926540
  0.184000, 69.477740
  0.186000, 67.082280
  0.188000, 64.742900
  0.190000, 62.466200
  0.192000, 60.240660
  0.194000, 58.063070
  0.196000, 55.933750
  0.198000, 53.829800
  0.200000, 51.733420
  0.202000, 49.635850
  0.204000, 47.532240
  0.206000, 45.434000
  0.208000, 43.359700
  0.210000, 41.330180
  0.212000, 39.382410
  0.214000, 37.537430
  0.216000, 35.800070
  0.218000, 34.155010
  0.220000, 32.568920
  0.222000, 31.011930
  0.224000, 29.451280
  0.226000, 27.871110
  0.228000, 26.277730
  0.230000, 24.681390
  0.232000, 23.113450
  0.234000, 21.594580
  0.236000, 20.150140
  0.238000, 18.783860
  0.240000, 17.492560
  0.242000, 16.257080
  0.244000, 15.067740
  0.246000, 13.909300
  0.248000, 12.776820
  0.250000, 11.659370
  0.252000, 10.574850
  0.254000,  9.534270
  0.256000,  8.528950
  0.258000,  7.571430
  0.260000,  6.662910
  0.262000,  5.791870
  0.264000,  4.977790
  0.266000,  4.205680
  0.268000,  3.474040
  0.270000,  2.770950
  0.272000,  2.094340
  0.274000,  1.442570
  0.276000,  0.816520
  0.278000,  0.219320
  0.280000, -0.358030
  0.282000, -0.912320
  0.284000, -1.424450
  0.286000, -1.902960
  0.288000, -2.340320
  0.290000, -2.737500
  0.292000, -3.091940
  0.294000, -3.415270
  0.296000, -3.710130
  0.298000, -3.977140
  0.300000, -4.229230
  0.302000, -4.461840
  0.304000, -4.687410
  0.306000, -4.890530
  0.308000, -5.078130
  0.310000, -5.236840
  0.312000, -5.375700
  0.314000, -5.493210
  0.316000, -5.591670
  0.318000, -5.678840
  0.320000, -5.755010
  0.322000, -5.813410
  0.324000, -5.861090
  0.326000, -5.905890
  0.328000, -5.936360
  0.330000, -5.950470
  0.332000, -5.950040
  0.334000, -5.930350
  0.336000, -5.899770
  0.338000, -5.846660
  0.340000, -5.763830
  0.342000, -5.688090
  0.344000, -5.602160
  0.346000, -5.522390
  0.348000, -5.445330
  0.350000, -5.380610
  0.352000, -5.334380
  0.354000, -5.295060
  0.356000, -5.272440
  0.358000, -5.252120
  0.360000, -5.234280
  0.362000, -5.210970
  0.364000, -5.176500
  0.366000, -5.146030
  0.368000, -5.105610
  0.370000, -5.059920
  0.372000, -5.005030
  0.374000, -4.954000
  0.376000, -4.895700
  0.378000, -4.834750
  0.380000, -4.774290
  0.382000, -4.705190
  0.384000, -4.634880
  0.386000, -4.563770
  0.388000, -4.480140
  0.390000, -4.386540
  0.392000, -4.291390
  0.394000, -4.187800
  0.396000, -4.070950
  0.398000, -3.954760
  0.400000, -3.832110
  0.402000, -3.701040
  0.404000, -3.563040
  0.406000, -3.417440
  0.408000, -3.269080
  0.410000, -3.111040
  0.412000, -2.950580
  0.414000, -2.797930
  0.416000, -2.648950
  0.418000, -2.501690
  0.420000, -2.357460
  0.422000, -2.226050
  0.424000, -2.091840
  0.426000, -1.968250
  0.428000, -1.835190
  0.430000, -1.709010
  0.432000, -1.585910
  0.434000, -1.459610
  0.436000, -1.328690
  0.438000, -1.199840
  0.440000, -1.078090
  0.442000, -0.951180
  0.444000, -0.831080
  0.446000, -0.717550
  0.448000, -0.609180
  0.450000, -0.511010
  0.452000, -0.420570
  0.454000, -0.331170
  0.456000, -0.253390
  0.458000, -0.179920
  0.460000, -0.109090
  0.462000, -0.045630
  0.464000,  0.015120
  0.466000,  0.067880
  0.468000,  0.117470
  0.470000,  0.165950
  0.472000,  0.205040
  0.474000,  0.237740
  0.476000,  0.268170
  0.478000,  0.292710
  0.480000,  0.314030
  0.482000,  0.326060
  0.484000,  0.338730
  0.486000,  0.343840
  0.488000,  0.350480
  0.490000,  0.352130
  0.492000,  0.355150
  0.494000,  0.360840
  0.496000,  0.357410
  0.498000,  0.357260
  0.500000,  0.348140
  0.502000,  0.330550
  0.504000,  0.317180
  0.506000,  0.298590
  0.508000,  0.281820
  0.510000,  0.253610
  0.512000,  0.214860
  0.514000,  0.182730
  0.516000,  0.150280
  0.518000,  0.124000
  0.520000,  0.097200
  0.522000,  0.076280
  0.524000,  0.057420
  0.526000,  0.039900
  0.528000,  0.016830
  0.530000, -0.002810
  0.532000, -0.031500
  0.534000, -0.064010
  0.536000, -0.104820
  0.538000, -0.154950
  0.540000, -0.212700
  0.542000, -0.275640
  0.544000, -0.331920
  0.546000, -0.390430
  0.548000, -0.453020
  0.550000, -0.504710
  0.552000, -0.562390
  0.554000, -0.615150
  0.556000, -0.658350
  0.558000, -0.700630
  0.560000, -0.738170
  0.562000, -0.773590
  0.564000, -0.800960
  0.566000, -0.821980
  0.568000, -0.842310
  0.570000, -0.864650
  0.572000, -0.880240
  0.574000, -0.895800
  0.576000, -0.906690
  0.578000, -0.917950
  0.580000, -0.925020
  0.582000, -0.920670
  0.584000, -0.923050
  0.586000, -0.927890
  0.588000, -0.915990
  0.590000, -0.910470
  0.592000, -0.909490
  0.594000, -0.907190
  0.596000, -0.907440
  0.598000, -0.908330
  0.600000, -0.913810
  0.602000, -0.916280
  0.604000, -0.921630
  0.606000, -0.922750
  0.608000, -0.917670
  0.610000, -0.907220
  0.612000, -0.887090
  0.614000, -0.866390
  0.616000, -0.835780
  0.618000, -0.796970
  0.620000, -0.763880
  0.622000, -0.723250
  0.624000, -0.677130
  0.626000, -0.639880
  0.628000, -0.594290
  0.630000, -0.555680
  0.632000, -0.520590
  0.634000, -0.481880
  0.636000, -0.442960
  0.638000, -0.408130
  0.640000, -0.371090
  0.642000, -0.339260
  0.644000, -0.313980
  0.646000, -0.285840
  0.648000, -0.255730
  0.650000, -0.230690
  0.652000, -0.198300
  0.654000, -0.169660
  0.656000, -0.142440
  0.658000, -0.109530
  0.660000, -0.074660
  0.662000, -0.045870
  0.664000, -0.008590
  0.666000,  0.026490
  0.668000,  0.065550
  0.670000,  0.102360
  0.672000,  0.143030
  0.674000,  0.183310
  0.676000,  0.222190
  0.678000,  0.259480
  0.680000,  0.295500
  0.682000,  0.322520
  0.684000,  0.345280
  0.686000,  0.363410
  0.688000,  0.370220
  0.690000,  0.375090
  0.692000,  0.378080
  0.694000,  0.384280
  0.696000,  0.394260
  0.698000,  0.405880
  0.700000,  0.431340
  0.702000,  0.446090
  0.704000,  0.471660
  0.706000,  0.501410
  0.708000,  0.532990
  0.710000,  0.557190
  0.712000,  0.580220
  0.714000,  0.605260
  0.716000,  0.625060
  0.718000,  0.635460
  0.720000,  0.646100
  0.722000,  0.646480
  0.724000,  0.644610
  0.726000,  0.634560
  0.728000,  0.632820
  0.730000,  0.616870
  0.732000,  0.604990
  0.734000,  0.591440
  0.736000,  0.581310
  0.738000,  0.579120
  0.740000,  0.576960
  0.742000,  0.574540
  0.744000,  0.579420
  0.746000,  0.582470
  0.748000,  0.584520
  0.750000,  0.589770
  0.752000,  0.600970
  0.754000,  0.615270
  0.756000,  0.623260
  0.758000,  0.628360
  0.760000,  0.628000
  0.762000,  0.626220
  0.764000,  0.616190
  0.766000,  0.601250
  0.768000,  0.575260
  0.770000,  0.552070
  0.772000,  0.520560
  0.774000,  0.492600
  0.776000,  0.465440
  0.778000,  0.436340
  0.780000,  0.411680
  0.782000,  0.390680
  0.784000,  0.377590
  0.786000,  0.368340
  0.788000,  0.360900
  0.790000,  0.359420
  0.792000,  0.364590
  0.794000,  0.371940
  0.796000,  0.384380
  0.798000,  0.395030
  0.800000,  0.406720
  0.802000,  0.414660
  0.804000,  0.421180
  0.806000,  0.423240
  0.808000,  0.421750
  0.810000,  0.415470
  0.812000,  0.394800
  0.814000,  0.376820
  0.816000,  0.349670
  0.818000,  0.327290
  0.820000,  0.307080
  0.822000,  0.285030
  0.824000,  0.265330
  0.826000,  0.251370
  0.828000,  0.242500
  0.830000,  0.237400
  0.832000,  0.234200
  0.834000,  0.232960
  0.836000,  0.236760
  0.838000,  0.241360
  0.840000,  0.242110
  0.842000,  0.235220
  0.844000,  0.237020
  0.846000,  0.236080
  0.848000,  0.235820
  0.850000,  0.235290
  0.852000,  0.230280
  0.854000,  0.225550
  0.856000,  0.219200
  0.858000,  0.212980
  0.860000,  0.201670
  0.862000,  0.190560
  0.864000,  0.176540
  0.866000,  0.157680
  0.868000,  0.138810
  0.870000,  0.119720
  0.872000,  0.098650
  0.874000,  0.080150
  0.876000,  0.062030
  0.878000,  0.047290
  0.880000,  0.033630
  0.882000,  0.021850
  0.884000,  0.013680
  0.886000,  0.006290
  0.888000, -0.003120
  0.890000, -0.005360
  0.892000, -0.007340
  0.894000, -0.009910
  0.896000, -0.015770
  0.898000, -0.021950
  0.900000, -0.032340
  0.902000, -0.042250
  0.904000, -0.051770
  0.906000, -0.060810
  0.908000, -0.073540
  0.910000, -0.080930
  0.912000, -0.090790
  0.914000, -0.095060
  0.916000, -0.089540
  0.918000, -0.086840
  0.920000, -0.083510
  0.922000, -0.067670
  0.924000, -0.054160
  0.926000, -0.041040
  0.928000, -0.029810
  0.930000, -0.014440
  0.932000, -0.001610
  0.934000,  0.010440
  0.936000,  0.023300
  0.938000,  0.035330
  0.940000,  0.044680
  0.942000,  0.046900
  0.944000,  0.046250
  0.946000,  0.049580
  0.948000,  0.051660
  0.950000,  0.049890
  0.952000,  0.047710
  0.954000,  0.047610
  0.956000,  0.048970
  0.958000,  0.042040
  0.960000,  0.045520
  0.962000,  0.050520
  0.964000,  0.056670
  0.966000,  0.058710
  0.968000,  0.055480
  0.970000,  0.053300
  0.972000,  0.049730
  0.974000,  0.033620
  0.976000,  0.021520
  0.978000,  0.012260
  0.980000,  0.001800
  0.982000,  0.000830
  0.984000, -0.002190
  0.986000, -0.002410
  0.988000,  0.001410
  0.990000,  0.006180
  0.992000,  0.003450
  0.994000,  0.003770
  0.996000,  0.000930
  0.998000, -0.009410
  1.000000, -0.022260
