# z (nm)   (kJ/mol)
  0.082000,273.303140
  0.084000,270.946570
  0.086000,268.619940
  0.088000,266.309790
  0.090000,263.506770
  0.092000,260.923830
  0.094000,258.291290
  0.096000,255.692070
  0.098000,253.014020
  0.100000,250.293480
  0.102000,247.509030
  0.104000,244.596960
  0.106000,241.573290
  0.108000,238.436990
  0.110000,235.172290
  0.112000,231.777750
  0.114000,228.249940
  0.116000,224.590550
  0.118000,220.798300
  0.120000,216.876380
  0.122000,212.828370
  0.124000,208.652670
  0.126000,204.353630
  0.128000,199.933270
  0.130000,195.403880
  0.132000,190.781880
  0.134000,186.100090
  0.136000,181.426570
  0.138000,176.823100
  0.140000,172.343130
  0.142000,168.019810
  0.144000,163.851480
  0.146000,159.814120
  0.148000,155.870280
  0.150000,151.972160
  0.152000,148.092730
  0.154000,144.220520
  0.156000,140.369600
  0.158000,136.558740
  0.160000,132.803540
  0.162000,129.119940
  0.164000,125.520700
  0.166000,122.011710
  0.168000,118.586010
  0.170000,115.240870
  0.172000,111.968740
  0.174000,108.763770
  0.176000,105.619290
  0.178000,102.528550
  0.180000, 99.476950
  0.182000, 96.463720
  0.184000, 93.473400
  0.186000, 90.499830
  0.188000, 87.542200
  0.190000, 84.610170
  0.192000, 81.708290
  0.194000, 78.850510
  0.196000, 76.061230
  0.198000, 73.340190
  0.200000, 70.707890
  0.202000, 68.163060
  0.204000, 65.688620
  0.206000, 63.277630
  0.208000, 60.912300
  0.210000, 58.577270
  0.212000, 56.251170
  0.214000, 53.938520
  0.216000, 51.670790
  0.218000, 49.450290
  0.220000, 47.295030
  0.222000, 45.206090
  0.224000, 43.179510
  0.226000, 41.194050
  0.228000, 39.226060
  0.230000, 37.278090
  0.232000, 35.350380
  0.234000, 33.456450
  0.236000, 31.601560
  0.238000, 29.811520
  0.240000, 28.092370
  0.242000, 26.445670
  0.244000, 24.865980
  0.246000, 23.347830
  0.248000, 21.890700
  0.250000, 20.474960
  0.252000, 19.096820
  0.254000, 17.749180
  0.256000, 16.422990
  0.258000, 15.127780
  0.260000, 13.859780
  0.262000, 12.638550
  0.264000, 11.465140
  0.266000, 10.356870
  0.268000,  9.303880
  0.270000,  8.301990
  0.272000,  7.345850
  0.274000,  6.424170
  0.276000,  5.545120
  0.278000,  4.694040
  0.280000,  3.874390
  0.282000,  3.091540
  0.284000,  2.345370
  0.286000,  1.643250
  0.288000,  0.972020
  0.290000,  0.330830
  0.292000, -0.272110
  0.294000, -0.846740
  0.296000, -1.393380
  0.298000, -1.896770
  0.300000, -2.361100
  0.302000, -2.796580
  0.304000, -3.188020
  0.306000, -3.547720
  0.308000, -3.870240
  0.310000, -4.163850
  0.312000, -4.438750
  0.314000, -4.694430
  0.316000, -4.949190
  0.318000, -5.193210
  0.320000, -5.429800
  0.322000, -5.658720
  0.324000, -5.884430
  0.326000, -6.085640
  0.328000, -6.278680
  0.330000, -6.456200
  0.332000, -6.613440
  0.334000, -6.752150
  0.336000, -6.877070
  0.338000, -6.997400
  0.340000, -7.104380
  0.342000, -7.208930
  0.344000, -7.298660
  0.346000, -7.400650
  0.348000, -7.483740
  0.350000, -7.556100
  0.352000, -7.619430
  0.354000, -7.669660
  0.356000, -7.716630
  0.358000, -7.760510
  0.360000, -7.796040
  0.362000, -7.830860
  0.364000, -7.864420
  0.366000, -7.887460
  0.368000, -7.913200
  0.370000, -7.927110
  0.372000, -7.945620
  0.374000, -7.979740
  0.376000, -8.025400
  0.378000, -8.082040
  0.380000, -8.150200
  0.382000, -8.217200
  0.384000, -8.271300
  0.386000, -8.303070
  0.388000, -8.312670
  0.390000, -8.284560
  0.392000, -8.244440
  0.394000, -8.194280
  0.396000, -8.147650
  0.398000, -8.124720
  0.400000, -8.117220
  0.402000, -8.111330
  0.404000, -8.121140
  0.406000, -8.125550
  0.408000, -8.114950
  0.410000, -8.079690
  0.412000, -8.030740
  0.414000, -7.960460
  0.416000, -7.877040
  0.418000, -7.774350
  0.420000, -7.665840
  0.422000, -7.548220
  0.424000, -7.428160
  0.426000, -7.316100
  0.428000, -7.206670
  0.430000, -7.104230
  0.432000, -7.013060
  0.434000, -6.930480
  0.436000, -6.855580
  0.438000, -6.782280
  0.440000, -6.706560
  0.442000, -6.625900
  0.444000, -6.539030
  0.446000, -6.444290
  0.448000, -6.338720
  0.450000, -6.237030
  0.452000, -6.133060
  0.454000, -6.022070
  0.456000, -5.917570
  0.458000, -5.816590
  0.460000, -5.718680
  0.462000, -5.622580
  0.464000, -5.530850
  0.466000, -5.451930
  0.468000, -5.377220
  0.470000, -5.304520
  0.472000, -5.232910
  0.474000, -5.165550
  0.476000, -5.091560
  0.478000, -5.004430
  0.480000, -4.907410
  0.482000, -4.797950
  0.484000, -4.678440
  0.486000, -4.551450
  0.488000, -4.422070
  0.490000, -4.299450
  0.492000, -4.180890
  0.494000, -4.068350
  0.496000, -3.968750
  0.498000, -3.883400
  0.500000, -3.797410
  0.502000, -3.720520
  0.504000, -3.641940
  0.506000, -3.552400
  0.508000, -3.460180
  0.510000, -3.374950
  0.512000, -3.285270
  0.514000, -3.194470
  0.516000, -3.116200
  0.518000, -3.038620
  0.520000, -2.966690
  0.522000, -2.900180
  0.524000, -2.830180
  0.526000, -2.754650
  0.528000, -2.664200
  0.530000, -2.575130
  0.532000, -2.477220
  0.534000, -2.374870
  0.536000, -2.278040
  0.538000, -2.193590
  0.540000, -2.119570
  0.542000, -2.057460
  0.544000, -2.003540
  0.546000, -1.956960
  0.548000, -1.917800
  0.550000, -1.868470
  0.552000, -1.824360
  0.554000, -1.768710
  0.556000, -1.713160
  0.558000, -1.653650
  0.560000, -1.579040
  0.562000, -1.502130
  0.564000, -1.426650
  0.566000, -1.356710
  0.568000, -1.298150
  0.570000, -1.255450
  0.572000, -1.225840
  0.574000, -1.209100
  0.576000, -1.203810
  0.578000, -1.200880
  0.580000, -1.218040
  0.582000, -1.237030
  0.584000, -1.253520
  0.586000, -1.272120
  0.588000, -1.283360
  0.590000, -1.288430
  0.592000, -1.291340
  0.594000, -1.286220
  0.596000, -1.273420
  0.598000, -1.254370
  0.600000, -1.237500
  0.602000, -1.210130
  0.604000, -1.178450
  0.606000, -1.157210
  0.608000, -1.125470
  0.610000, -1.107120
  0.612000, -1.095550
  0.614000, -1.090700
  0.616000, -1.094210
  0.618000, -1.107480
  0.620000, -1.127320
  0.622000, -1.143740
  0.624000, -1.161600
  0.626000, -1.182550
  0.628000, -1.199380
  0.630000, -1.203770
  0.632000, -1.201230
  0.634000, -1.189690
  0.636000, -1.160840
  0.638000, -1.122690
  0.640000, -1.072660
  0.642000, -1.030130
  0.644000, -0.989370
  0.646000, -0.954290
  0.648000, -0.926110
  0.650000, -0.912970
  0.652000, -0.912860
  0.654000, -0.926610
  0.656000, -0.948900
  0.658000, -0.977390
  0.660000, -1.009620
  0.662000, -1.040940
  0.664000, -1.070820
  0.666000, -1.086030
  0.668000, -1.092730
  0.670000, -1.087380
  0.672000, -1.064600
  0.674000, -1.036010
  0.676000, -1.002240
  0.678000, -0.962670
  0.680000, -0.926420
  0.682000, -0.888680
  0.684000, -0.859220
  0.686000, -0.837380
  0.688000, -0.815090
  0.690000, -0.804070
  0.692000, -0.792080
  0.694000, -0.795880
  0.696000, -0.792650
  0.698000, -0.795130
  0.700000, -0.797610
  0.702000, -0.798880
  0.704000, -0.796210
  0.706000, -0.789100
  0.708000, -0.778710
  0.710000, -0.754220
  0.712000, -0.716960
  0.714000, -0.678800
  0.716000, -0.643260
  0.718000, -0.599340
  0.720000, -0.560310
  0.722000, -0.517450
  0.724000, -0.477850
  0.726000, -0.439730
  0.728000, -0.416190
  0.730000, -0.399330
  0.732000, -0.394130
  0.734000, -0.390960
  0.736000, -0.398240
  0.738000, -0.413050
  0.740000, -0.426010
  0.742000, -0.436600
  0.744000, -0.440740
  0.746000, -0.438860
  0.748000, -0.429510
  0.750000, -0.410830
  0.752000, -0.383290
  0.754000, -0.354060
  0.756000, -0.321540
  0.758000, -0.287680
  0.760000, -0.248290
  0.762000, -0.219780
  0.764000, -0.199530
  0.766000, -0.178880
  0.768000, -0.156530
  0.770000, -0.145550
  0.772000, -0.142770
  0.774000, -0.133430
  0.776000, -0.133100
  0.778000, -0.135020
  0.780000, -0.140250
  0.782000, -0.149330
  0.784000, -0.154540
  0.786000, -0.166970
  0.788000, -0.172900
  0.790000, -0.175770
  0.792000, -0.173740
  0.794000, -0.165500
  0.796000, -0.142380
  0.798000, -0.116220
  0.800000, -0.085450
  0.802000, -0.055960
  0.804000, -0.022010
  0.806000,  0.012810
  0.808000,  0.047570
  0.810000,  0.071770
  0.812000,  0.095350
  0.814000,  0.109330
  0.816000,  0.118760
  0.818000,  0.124220
  0.820000,  0.120240
  0.822000,  0.116780
  0.824000,  0.114560
  0.826000,  0.102690
  0.828000,  0.090070
  0.830000,  0.084980
  0.832000,  0.072120
  0.834000,  0.068490
  0.836000,  0.062910
  0.838000,  0.059330
  0.840000,  0.060150
  0.842000,  0.069410
  0.844000,  0.078090
  0.846000,  0.094790
  0.848000,  0.120030
  0.850000,  0.150780
  0.852000,  0.189210
  0.854000,  0.228250
  0.856000,  0.264160
  0.858000,  0.294160
  0.860000,  0.310300
  0.862000,  0.320630
  0.864000,  0.320790
  0.866000,  0.301110
  0.868000,  0.273950
  0.870000,  0.239380
  0.872000,  0.199840
  0.874000,  0.163680
  0.876000,  0.135120
  0.878000,  0.114830
  0.880000,  0.105210
  0.882000,  0.110820
  0.884000,  0.122100
  0.886000,  0.142780
  0.888000,  0.175160
  0.890000,  0.205710
  0.892000,  0.229970
  0.894000,  0.249930
  0.896000,  0.259120
  0.898000,  0.255270
  0.900000,  0.247650
  0.902000,  0.223710
  0.904000,  0.192720
  0.906000,  0.152110
  0.908000,  0.114610
  0.910000,  0.083300
  0.912000,  0.053550
  0.914000,  0.028250
  0.916000,  0.010400
  0.918000,  0.003300
  0.920000, -0.002190
  0.922000, -0.003500
  0.924000,  0.004820
  0.926000,  0.013110
  0.928000,  0.017070
  0.930000,  0.023700
  0.932000,  0.028180
  0.934000,  0.024700
  0.936000,  0.022250
  0.938000,  0.016170
  0.940000,  0.013420
  0.942000,  0.011290
  0.944000,  0.011610
  0.946000,  0.016770
  0.948000,  0.024500
  0.950000,  0.026100
  0.952000,  0.026580
  0.954000,  0.031410
  0.956000,  0.030970
  0.958000,  0.025150
  0.960000,  0.018550
  0.962000, -0.000850
  0.964000, -0.024540
  0.966000, -0.045850
  0.968000, -0.066560
  0.970000, -0.083520
  0.972000, -0.094790
  0.974000, -0.089460
  0.976000, -0.077110
  0.978000, -0.052720
  0.980000, -0.027550
  0.982000, -0.006670
  0.984000,  0.012310
  0.986000,  0.014150
  0.988000,  0.004860
  0.990000, -0.017980
  0.992000, -0.058150
  0.994000, -0.095820
  0.996000, -0.142180
  0.998000, -0.181750
  1.000000, -0.208460
