# z (nm)   (kJ/mol)
  0.084000,260.721500
  0.086000,258.462670
  0.088000,257.974130
  0.090000,255.708150
  0.092000,253.041550
  0.094000,250.400310
  0.096000,247.908900
  0.098000,245.384950
  0.100000,242.874890
  0.102000,240.363060
  0.104000,237.773690
  0.106000,235.093600
  0.108000,232.299830
  0.110000,229.357700
  0.112000,226.260440
  0.114000,222.971540
  0.116000,219.480060
  0.118000,215.778100
  0.120000,211.865190
  0.122000,207.756010
  0.124000,203.471470
  0.126000,199.038090
  0.128000,194.487970
  0.130000,189.848670
  0.132000,185.139170
  0.134000,180.378840
  0.136000,175.587530
  0.138000,170.789040
  0.140000,166.005460
  0.142000,161.268100
  0.144000,156.602120
  0.146000,152.032300
  0.148000,147.582600
  0.150000,143.260940
  0.152000,139.076890
  0.154000,135.030750
  0.156000,131.129660
  0.158000,127.371370
  0.160000,123.751060
  0.162000,120.244580
  0.164000,116.836160
  0.166000,113.491900
  0.168000,110.186090
  0.170000,106.890390
  0.172000,103.591480
  0.174000,100.290870
  0.176000, 96.990900
  0.178000, 93.689500
  0.180000, 90.393160
  0.182000, 87.104480
  0.184000, 83.847050
  0.186000, 80.649080
  0.188000, 77.568750
  0.190000, 74.651470
  0.192000, 71.920300
  0.194000, 69.342770
  0.196000, 66.855910
  0.198000, 64.366880
  0.200000, 61.824780
  0.202000, 59.214820
  0.204000, 56.582240
  0.206000, 54.005400
  0.208000, 51.551490
  0.210000, 49.245960
  0.212000, 47.065370
  0.214000, 44.961990
  0.216000, 42.875800
  0.218000, 40.779700
  0.220000, 38.673740
  0.222000, 36.595640
  0.224000, 34.556220
  0.226000, 32.573260
  0.228000, 30.633470
  0.230000, 28.727430
  0.232000, 26.852100
  0.234000, 24.987600
  0.236000, 23.153080
  0.238000, 21.352510
  0.240000, 19.596710
  0.242000, 17.897360
  0.244000, 16.256170
  0.246000, 14.650530
  0.248000, 13.060380
  0.250000, 11.493820
  0.252000,  9.928570
  0.254000,  8.357780
  0.256000,  6.795350
  0.258000,  5.252460
  0.260000,  3.740910
  0.262000,  2.279300
  0.264000,  0.876220
  0.266000, -0.443020
  0.268000, -1.691370
  0.270000, -2.880130
  0.272000, -4.006720
  0.274000, -5.101210
  0.276000, -6.156430
  0.278000, -7.171680
  0.280000, -8.158990
  0.282000, -9.106900
  0.284000,-10.031990
  0.286000,-10.924200
  0.288000,-11.774890
  0.290000,-12.595650
  0.292000,-13.363390
  0.294000,-14.072670
  0.296000,-14.726350
  0.298000,-15.320120
  0.300000,-15.874190
  0.302000,-16.398650
  0.304000,-16.917050
  0.306000,-17.434640
  0.308000,-17.953090
  0.310000,-18.454620
  0.312000,-18.938530
  0.314000,-19.386200
  0.316000,-19.788570
  0.318000,-20.135210
  0.320000,-20.431490
  0.322000,-20.688420
  0.324000,-20.914080
  0.326000,-21.123430
  0.328000,-21.319800
  0.330000,-21.503720
  0.332000,-21.681930
  0.334000,-21.827920
  0.336000,-21.934460
  0.338000,-21.994620
  0.340000,-22.005740
  0.342000,-21.972670
  0.344000,-21.906400
  0.346000,-21.827620
  0.348000,-21.744530
  0.350000,-21.662780
  0.352000,-21.572330
  0.354000,-21.467680
  0.356000,-21.347970
  0.358000,-21.209940
  0.360000,-21.063600
  0.362000,-20.921860
  0.364000,-20.791950
  0.366000,-20.686080
  0.368000,-20.602610
  0.370000,-20.533820
  0.372000,-20.481850
  0.374000,-20.429470
  0.376000,-20.380110
  0.378000,-20.326730
  0.380000,-20.264670
  0.382000,-20.191320
  0.384000,-20.093000
  0.386000,-19.967580
  0.388000,-19.809800
  0.390000,-19.626140
  0.392000,-19.424100
  0.394000,-19.208240
  0.396000,-18.983050
  0.398000,-18.751340
  0.400000,-18.517180
  0.402000,-18.276210
  0.404000,-18.008650
  0.406000,-17.725920
  0.408000,-17.425640
  0.410000,-17.117050
  0.412000,-16.811320
  0.414000,-16.528370
  0.416000,-16.257000
  0.418000,-15.995490
  0.420000,-15.756530
  0.422000,-15.521820
  0.424000,-15.282030
  0.426000,-15.034050
  0.428000,-14.787380
  0.430000,-14.537280
  0.432000,-14.280190
  0.434000,-14.010410
  0.436000,-13.709940
  0.438000,-13.358780
  0.440000,-12.961270
  0.442000,-12.520420
  0.444000,-12.061900
  0.446000,-11.596960
  0.448000,-11.145130
  0.450000,-10.708340
  0.452000,-10.272820
  0.454000, -9.832040
  0.456000, -9.371690
  0.458000, -8.884790
  0.460000, -8.372590
  0.462000, -7.826920
  0.464000, -7.273860
  0.466000, -6.710760
  0.468000, -6.159860
  0.470000, -5.632370
  0.472000, -5.147560
  0.474000, -4.715110
  0.476000, -4.333670
  0.478000, -4.016690
  0.480000, -3.755450
  0.482000, -3.525190
  0.484000, -3.327850
  0.486000, -3.148870
  0.488000, -2.978670
  0.490000, -2.821440
  0.492000, -2.674610
  0.494000, -2.551730
  0.496000, -2.446390
  0.498000, -2.358120
  0.500000, -2.286120
  0.502000, -2.233980
  0.504000, -2.190320
  0.506000, -2.165060
  0.508000, -2.140590
  0.510000, -2.116040
  0.512000, -2.090470
  0.514000, -2.047210
  0.516000, -1.995210
  0.518000, -1.931670
  0.520000, -1.863440
  0.522000, -1.804030
  0.524000, -1.755320
  0.526000, -1.728870
  0.528000, -1.724140
  0.530000, -1.733540
  0.532000, -1.762130
  0.534000, -1.805330
  0.536000, -1.852570
  0.538000, -1.894930
  0.540000, -1.936330
  0.542000, -1.969230
  0.544000, -1.997240
  0.546000, -2.013310
  0.548000, -2.028390
  0.550000, -2.059420
  0.552000, -2.096560
  0.554000, -2.149170
  0.556000, -2.213510
  0.558000, -2.300210
  0.560000, -2.391240
  0.562000, -2.471860
  0.564000, -2.539710
  0.566000, -2.586920
  0.568000, -2.615350
  0.570000, -2.648060
  0.572000, -2.668690
  0.574000, -2.688580
  0.576000, -2.704720
  0.578000, -2.711800
  0.580000, -2.717830
  0.582000, -2.738270
  0.584000, -2.778930
  0.586000, -2.846930
  0.588000, -2.937890
  0.590000, -3.039740
  0.592000, -3.128920
  0.594000, -3.200780
  0.596000, -3.238050
  0.598000, -3.238020
  0.600000, -3.212410
  0.602000, -3.170000
  0.604000, -3.124840
  0.606000, -3.082130
  0.608000, -3.059330
  0.610000, -3.054830
  0.612000, -3.074200
  0.614000, -3.114770
  0.616000, -3.148920
  0.618000, -3.178150
  0.620000, -3.196790
  0.622000, -3.197870
  0.624000, -3.182620
  0.626000, -3.162440
  0.628000, -3.132510
  0.630000, -3.105420
  0.632000, -3.074380
  0.634000, -3.047030
  0.636000, -3.006260
  0.638000, -2.967080
  0.640000, -2.916440
  0.642000, -2.852620
  0.644000, -2.771170
  0.646000, -2.681450
  0.648000, -2.590230
  0.650000, -2.490730
  0.652000, -2.395800
  0.654000, -2.309550
  0.656000, -2.229670
  0.658000, -2.166540
  0.660000, -2.121760
  0.662000, -2.083250
  0.664000, -2.047770
  0.666000, -2.012150
  0.668000, -1.975540
  0.670000, -1.936640
  0.672000, -1.888320
  0.674000, -1.834210
  0.676000, -1.774990
  0.678000, -1.698590
  0.680000, -1.616780
  0.682000, -1.534320
  0.684000, -1.433340
  0.686000, -1.319280
  0.688000, -1.201360
  0.690000, -1.073050
  0.692000, -0.953110
  0.694000, -0.842530
  0.696000, -0.758360
  0.698000, -0.687860
  0.700000, -0.646800
  0.702000, -0.623450
  0.704000, -0.617460
  0.706000, -0.616060
  0.708000, -0.615460
  0.710000, -0.607280
  0.712000, -0.587620
  0.714000, -0.553420
  0.716000, -0.510400
  0.718000, -0.460070
  0.720000, -0.390790
  0.722000, -0.327970
  0.724000, -0.265080
  0.726000, -0.209970
  0.728000, -0.165540
  0.730000, -0.140420
  0.732000, -0.130430
  0.734000, -0.135350
  0.736000, -0.140570
  0.738000, -0.149270
  0.740000, -0.151560
  0.742000, -0.136850
  0.744000, -0.114120
  0.746000, -0.080420
  0.748000, -0.041080
  0.750000,  0.002750
  0.752000,  0.039770
  0.754000,  0.062670
  0.756000,  0.063630
  0.758000,  0.033240
  0.760000, -0.013650
  0.762000, -0.068080
  0.764000, -0.121200
  0.766000, -0.157650
  0.768000, -0.169650
  0.770000, -0.165550
  0.772000, -0.135340
  0.774000, -0.094890
  0.776000, -0.050300
  0.778000, -0.017690
  0.780000,  0.003430
  0.782000,  0.001650
  0.784000, -0.006820
  0.786000, -0.028040
  0.788000, -0.049130
  0.790000, -0.066870
  0.792000, -0.078360
  0.794000, -0.079610
  0.796000, -0.072600
  0.798000, -0.057580
  0.800000, -0.036710
  0.802000, -0.015500
  0.804000, -0.000320
  0.806000,  0.017280
  0.808000,  0.020420
  0.810000,  0.014490
  0.812000,  0.003680
  0.814000, -0.026340
  0.816000, -0.063600
  0.818000, -0.105400
  0.820000, -0.154200
  0.822000, -0.205910
  0.824000, -0.251870
  0.826000, -0.298750
  0.828000, -0.338230
  0.830000, -0.371590
  0.832000, -0.387650
  0.834000, -0.402230
  0.836000, -0.392570
  0.838000, -0.366770
  0.840000, -0.348720
  0.842000, -0.320900
  0.844000, -0.303040
  0.846000, -0.278300
  0.848000, -0.264690
  0.850000, -0.267300
  0.852000, -0.277780
  0.854000, -0.304170
  0.856000, -0.331470
  0.858000, -0.358130
  0.860000, -0.383620
  0.862000, -0.392920
  0.864000, -0.387370
  0.866000, -0.365670
  0.868000, -0.316460
  0.870000, -0.264590
  0.872000, -0.205940
  0.874000, -0.154210
  0.876000, -0.114330
  0.878000, -0.095330
  0.880000, -0.102600
  0.882000, -0.123890
  0.884000, -0.157480
  0.886000, -0.181080
  0.888000, -0.196170
  0.890000, -0.196120
  0.892000, -0.173520
  0.894000, -0.138090
  0.896000, -0.097110
  0.898000, -0.054750
  0.900000, -0.024010
  0.902000, -0.005270
  0.904000,  0.001050
  0.906000, -0.001650
  0.908000, -0.010910
  0.910000, -0.029330
  0.912000, -0.050120
  0.914000, -0.078920
  0.916000, -0.102110
  0.918000, -0.126070
  0.920000, -0.139120
  0.922000, -0.143810
  0.924000, -0.144810
  0.926000, -0.126610
  0.928000, -0.112480
  0.930000, -0.089060
  0.932000, -0.068440
  0.934000, -0.045610
  0.936000, -0.025100
  0.938000, -0.004490
  0.940000,  0.017980
  0.942000,  0.042500
  0.944000,  0.064360
  0.946000,  0.087060
  0.948000,  0.110770
  0.950000,  0.131000
  0.952000,  0.140770
  0.954000,  0.145170
  0.956000,  0.141830
  0.958000,  0.129570
  0.960000,  0.114040
  0.962000,  0.085160
  0.964000,  0.060880
  0.966000,  0.036560
  0.968000,  0.007380
  0.970000, -0.016000
  0.972000, -0.042030
  0.974000, -0.056630
  0.976000, -0.062460
  0.978000, -0.056570
  0.980000, -0.045590
  0.982000, -0.030380
  0.984000, -0.005860
  0.986000,  0.017860
  0.988000,  0.035740
  0.990000,  0.052160
  0.992000,  0.055880
  0.994000,  0.049850
  0.996000,  0.047290
  0.998000,  0.033140
  1.000000,  0.011430
