# z (nm)   (kJ/mol)
  0.074000,274.749730
  0.076000,272.650370
  0.078000,270.602390
  0.080000,268.594640
  0.082000,266.457270
  0.084000,267.867770
  0.086000,265.720940
  0.088000,263.037550
  0.090000,260.690970
  0.092000,258.309770
  0.094000,255.992370
  0.096000,253.602550
  0.098000,251.183570
  0.100000,248.636790
  0.102000,245.989900
  0.104000,243.210090
  0.106000,240.267220
  0.108000,237.147160
  0.110000,233.819970
  0.112000,230.270870
  0.114000,226.496840
  0.116000,222.503280
  0.118000,218.308480
  0.120000,213.956640
  0.122000,209.506010
  0.124000,205.000950
  0.126000,200.467330
  0.128000,195.910880
  0.130000,191.316670
  0.132000,186.661690
  0.134000,181.943130
  0.136000,177.193190
  0.138000,172.479070
  0.140000,167.864480
  0.142000,163.391620
  0.144000,159.086670
  0.146000,154.944680
  0.148000,150.936750
  0.150000,147.042290
  0.152000,143.239540
  0.154000,139.521620
  0.156000,135.886360
  0.158000,132.331130
  0.160000,128.842940
  0.162000,125.419390
  0.164000,122.036390
  0.166000,118.670040
  0.168000,115.306790
  0.170000,111.929710
  0.172000,108.535220
  0.174000,105.138650
  0.176000,101.764050
  0.178000, 98.437160
  0.180000, 95.182450
  0.182000, 92.015350
  0.184000, 88.941500
  0.186000, 85.954030
  0.188000, 83.041070
  0.190000, 80.180460
  0.192000, 77.351420
  0.194000, 74.552700
  0.196000, 71.774510
  0.198000, 69.028160
  0.200000, 66.308320
  0.202000, 63.629440
  0.204000, 60.988280
  0.206000, 58.395340
  0.208000, 55.862180
  0.210000, 53.399120
  0.212000, 51.029620
  0.214000, 48.758340
  0.216000, 46.587000
  0.218000, 44.502700
  0.220000, 42.489630
  0.222000, 40.512820
  0.224000, 38.548590
  0.226000, 36.569240
  0.228000, 34.572480
  0.230000, 32.589480
  0.232000, 30.654710
  0.234000, 28.811920
  0.236000, 27.064440
  0.238000, 25.409500
  0.240000, 23.819470
  0.242000, 22.268380
  0.244000, 20.756010
  0.246000, 19.278330
  0.248000, 17.848130
  0.250000, 16.460040
  0.252000, 15.103120
  0.254000, 13.788510
  0.256000, 12.518600
  0.258000, 11.312230
  0.260000, 10.172490
  0.262000,  9.104580
  0.264000,  8.097880
  0.266000,  7.139060
  0.268000,  6.228290
  0.270000,  5.345740
  0.272000,  4.500440
  0.274000,  3.683890
  0.276000,  2.891130
  0.278000,  2.137090
  0.280000,  1.407660
  0.282000,  0.706180
  0.284000,  0.052860
  0.286000, -0.541830
  0.288000, -1.071640
  0.290000, -1.536030
  0.292000, -1.950460
  0.294000, -2.328610
  0.296000, -2.694980
  0.298000, -3.045960
  0.300000, -3.383610
  0.302000, -3.711320
  0.304000, -4.026930
  0.306000, -4.327200
  0.308000, -4.603390
  0.310000, -4.857010
  0.312000, -5.081290
  0.314000, -5.260350
  0.316000, -5.402670
  0.318000, -5.500440
  0.320000, -5.571210
  0.322000, -5.623100
  0.324000, -5.668670
  0.326000, -5.731000
  0.328000, -5.816320
  0.330000, -5.936090
  0.332000, -6.077520
  0.334000, -6.233130
  0.336000, -6.385160
  0.338000, -6.509890
  0.340000, -6.589010
  0.342000, -6.632220
  0.344000, -6.643420
  0.346000, -6.631130
  0.348000, -6.621940
  0.350000, -6.622780
  0.352000, -6.639600
  0.354000, -6.680670
  0.356000, -6.733860
  0.358000, -6.800900
  0.360000, -6.873190
  0.362000, -6.956530
  0.364000, -7.041510
  0.366000, -7.139770
  0.368000, -7.241910
  0.370000, -7.340610
  0.372000, -7.433230
  0.374000, -7.515570
  0.376000, -7.584060
  0.378000, -7.632540
  0.380000, -7.665180
  0.382000, -7.678540
  0.384000, -7.677580
  0.386000, -7.665240
  0.388000, -7.661280
  0.390000, -7.676150
  0.392000, -7.695380
  0.394000, -7.723220
  0.396000, -7.758180
  0.398000, -7.790140
  0.400000, -7.809250
  0.402000, -7.819190
  0.404000, -7.827490
  0.406000, -7.815870
  0.408000, -7.784250
  0.410000, -7.737090
  0.412000, -7.678560
  0.414000, -7.602240
  0.416000, -7.513800
  0.418000, -7.415070
  0.420000, -7.314220
  0.422000, -7.218540
  0.424000, -7.142380
  0.426000, -7.072520
  0.428000, -7.013150
  0.430000, -6.960560
  0.432000, -6.895880
  0.434000, -6.819910
  0.436000, -6.725210
  0.438000, -6.615560
  0.440000, -6.488810
  0.442000, -6.363000
  0.444000, -6.235540
  0.446000, -6.122640
  0.448000, -6.020270
  0.450000, -5.937470
  0.452000, -5.867190
  0.454000, -5.801230
  0.456000, -5.728950
  0.458000, -5.653900
  0.460000, -5.560220
  0.462000, -5.446090
  0.464000, -5.329170
  0.466000, -5.186830
  0.468000, -5.043350
  0.470000, -4.895360
  0.472000, -4.747320
  0.474000, -4.608320
  0.476000, -4.478870
  0.478000, -4.372590
  0.480000, -4.279940
  0.482000, -4.208940
  0.484000, -4.143640
  0.486000, -4.079890
  0.488000, -4.017310
  0.490000, -3.949680
  0.492000, -3.876480
  0.494000, -3.782080
  0.496000, -3.680440
  0.498000, -3.573280
  0.500000, -3.466450
  0.502000, -3.373940
  0.504000, -3.291670
  0.506000, -3.245500
  0.508000, -3.223550
  0.510000, -3.225390
  0.512000, -3.248660
  0.514000, -3.282080
  0.516000, -3.309470
  0.518000, -3.320340
  0.520000, -3.306370
  0.522000, -3.264140
  0.524000, -3.193570
  0.526000, -3.106040
  0.528000, -3.006930
  0.530000, -2.904050
  0.532000, -2.804080
  0.534000, -2.705300
  0.536000, -2.625600
  0.538000, -2.558810
  0.540000, -2.510420
  0.542000, -2.468260
  0.544000, -2.436640
  0.546000, -2.411480
  0.548000, -2.378720
  0.550000, -2.346490
  0.552000, -2.313760
  0.554000, -2.269870
  0.556000, -2.224370
  0.558000, -2.178540
  0.560000, -2.122160
  0.562000, -2.063020
  0.564000, -2.000370
  0.566000, -1.940910
  0.568000, -1.880030
  0.570000, -1.824590
  0.572000, -1.765730
  0.574000, -1.712740
  0.576000, -1.656340
  0.578000, -1.605800
  0.580000, -1.561770
  0.582000, -1.529310
  0.584000, -1.512570
  0.586000, -1.495310
  0.588000, -1.486450
  0.590000, -1.487500
  0.592000, -1.489810
  0.594000, -1.484290
  0.596000, -1.475930
  0.598000, -1.472760
  0.600000, -1.476290
  0.602000, -1.488740
  0.604000, -1.499920
  0.606000, -1.514990
  0.608000, -1.536540
  0.610000, -1.551640
  0.612000, -1.561080
  0.614000, -1.565900
  0.616000, -1.560050
  0.618000, -1.545960
  0.620000, -1.532560
  0.622000, -1.515980
  0.624000, -1.508710
  0.626000, -1.500680
  0.628000, -1.501430
  0.630000, -1.513630
  0.632000, -1.535280
  0.634000, -1.559690
  0.636000, -1.588760
  0.638000, -1.614130
  0.640000, -1.622400
  0.642000, -1.625880
  0.644000, -1.615730
  0.646000, -1.593340
  0.648000, -1.559040
  0.650000, -1.521010
  0.652000, -1.481960
  0.654000, -1.465640
  0.656000, -1.464470
  0.658000, -1.476130
  0.660000, -1.499100
  0.662000, -1.529780
  0.664000, -1.568420
  0.666000, -1.605110
  0.668000, -1.638680
  0.670000, -1.657830
  0.672000, -1.658700
  0.674000, -1.648470
  0.676000, -1.616900
  0.678000, -1.570250
  0.680000, -1.516790
  0.682000, -1.466450
  0.684000, -1.413840
  0.686000, -1.371560
  0.688000, -1.330890
  0.690000, -1.299550
  0.692000, -1.268510
  0.694000, -1.253630
  0.696000, -1.246680
  0.698000, -1.235750
  0.700000, -1.226380
  0.702000, -1.201360
  0.704000, -1.169700
  0.706000, -1.140120
  0.708000, -1.105930
  0.710000, -1.081960
  0.712000, -1.068890
  0.714000, -1.059880
  0.716000, -1.055140
  0.718000, -1.046680
  0.720000, -1.029400
  0.722000, -0.999790
  0.724000, -0.970420
  0.726000, -0.934080
  0.728000, -0.888480
  0.730000, -0.840200
  0.732000, -0.788490
  0.734000, -0.746580
  0.736000, -0.707580
  0.738000, -0.673280
  0.740000, -0.643500
  0.742000, -0.622610
  0.744000, -0.605400
  0.746000, -0.601830
  0.748000, -0.606160
  0.750000, -0.624030
  0.752000, -0.649740
  0.754000, -0.680640
  0.756000, -0.705730
  0.758000, -0.726130
  0.760000, -0.730420
  0.762000, -0.714610
  0.764000, -0.677670
  0.766000, -0.627790
  0.768000, -0.565050
  0.770000, -0.503530
  0.772000, -0.443660
  0.774000, -0.395040
  0.776000, -0.355820
  0.778000, -0.332510
  0.780000, -0.321500
  0.782000, -0.318650
  0.784000, -0.319770
  0.786000, -0.321940
  0.788000, -0.320160
  0.790000, -0.310960
  0.792000, -0.300780
  0.794000, -0.286130
  0.796000, -0.261700
  0.798000, -0.234790
  0.800000, -0.209660
  0.802000, -0.185410
  0.804000, -0.161620
  0.806000, -0.138810
  0.808000, -0.116900
  0.810000, -0.093640
  0.812000, -0.074510
  0.814000, -0.066320
  0.816000, -0.068830
  0.818000, -0.072400
  0.820000, -0.087290
  0.822000, -0.103690
  0.824000, -0.129000
  0.826000, -0.156780
  0.828000, -0.182590
  0.830000, -0.194070
  0.832000, -0.198220
  0.834000, -0.194190
  0.836000, -0.182260
  0.838000, -0.160030
  0.840000, -0.135970
  0.842000, -0.116680
  0.844000, -0.097980
  0.846000, -0.077240
  0.848000, -0.060590
  0.850000, -0.046030
  0.852000, -0.033710
  0.854000, -0.017690
  0.856000, -0.007970
  0.858000, -0.003010
  0.860000, -0.001760
  0.862000, -0.007040
  0.864000, -0.011160
  0.866000, -0.020110
  0.868000, -0.027280
  0.870000, -0.024570
  0.872000, -0.029410
  0.874000, -0.031430
  0.876000, -0.028870
  0.878000, -0.025360
  0.880000, -0.017740
  0.882000, -0.016060
  0.884000, -0.008780
  0.886000, -0.001830
  0.888000,  0.003570
  0.890000,  0.008870
  0.892000,  0.005560
  0.894000,  0.002600
  0.896000, -0.002700
  0.898000, -0.013910
  0.900000, -0.029500
  0.902000, -0.044650
  0.904000, -0.055840
  0.906000, -0.073700
  0.908000, -0.082790
  0.910000, -0.083310
  0.912000, -0.070650
  0.914000, -0.049780
  0.916000, -0.030060
  0.918000, -0.014840
  0.920000, -0.004650
  0.922000,  0.004050
  0.924000, -0.004490
  0.926000, -0.019560
  0.928000, -0.039180
  0.930000, -0.061230
  0.932000, -0.080220
  0.934000, -0.087160
  0.936000, -0.088490
  0.938000, -0.074130
  0.940000, -0.046440
  0.942000, -0.006560
  0.944000,  0.039300
  0.946000,  0.091590
  0.948000,  0.133270
  0.950000,  0.163890
  0.952000,  0.179520
  0.954000,  0.187030
  0.956000,  0.169950
  0.958000,  0.133930
  0.960000,  0.082360
  0.962000,  0.032160
  0.964000, -0.022920
  0.966000, -0.073670
  0.968000, -0.114650
  0.970000, -0.140310
  0.972000, -0.137130
  0.974000, -0.113900
  0.976000, -0.072130
  0.978000, -0.004280
  0.980000,  0.063180
  0.982000,  0.127810
  0.984000,  0.177510
  0.986000,  0.201480
  0.988000,  0.189890
  0.990000,  0.144180
  0.992000,  0.070290
  0.994000, -0.017560
  0.996000, -0.103170
  0.998000, -0.169970
  1.000000, -0.203940
