# z (nm)   (kJ/mol)
  0.094000,268.329950
  0.096000,264.285040
  0.098000,262.017770
  0.100000,259.609590
  0.102000,257.366400
  0.104000,254.990370
  0.106000,252.652250
  0.108000,250.251730
  0.110000,247.861920
  0.112000,245.401040
  0.114000,242.870640
  0.116000,240.242940
  0.118000,237.503230
  0.120000,234.641800
  0.122000,231.634350
  0.124000,228.464410
  0.126000,225.117530
  0.128000,221.578070
  0.130000,217.839260
  0.132000,213.897410
  0.134000,209.753570
  0.136000,205.434760
  0.138000,200.969910
  0.140000,196.400090
  0.142000,191.775340
  0.144000,187.142860
  0.146000,182.541180
  0.148000,178.004030
  0.150000,173.553220
  0.152000,169.201010
  0.154000,164.955310
  0.156000,160.802000
  0.158000,156.741080
  0.160000,152.742740
  0.162000,148.793230
  0.164000,144.881540
  0.166000,141.004140
  0.168000,137.172640
  0.170000,133.388090
  0.172000,129.658460
  0.174000,126.000990
  0.176000,122.433650
  0.178000,119.000370
  0.180000,115.732050
  0.182000,112.637950
  0.184000,109.682780
  0.186000,106.810930
  0.188000,103.942980
  0.190000,101.025770
  0.192000, 98.018890
  0.194000, 94.925830
  0.196000, 91.782470
  0.198000, 88.644790
  0.200000, 85.576980
  0.202000, 82.622700
  0.204000, 79.809990
  0.206000, 77.143220
  0.208000, 74.600650
  0.210000, 72.144880
  0.212000, 69.729990
  0.214000, 67.313080
  0.216000, 64.877370
  0.218000, 62.423400
  0.220000, 59.964450
  0.222000, 57.543790
  0.224000, 55.191900
  0.226000, 52.919830
  0.228000, 50.736540
  0.230000, 48.634750
  0.232000, 46.604670
  0.234000, 44.627180
  0.236000, 42.699450
  0.238000, 40.805240
  0.240000, 38.931590
  0.242000, 37.067410
  0.244000, 35.212400
  0.246000, 33.382060
  0.248000, 31.589340
  0.250000, 29.829330
  0.252000, 28.114000
  0.254000, 26.450280
  0.256000, 24.841600
  0.258000, 23.284100
  0.260000, 21.782580
  0.262000, 20.338360
  0.264000, 18.938390
  0.266000, 17.583870
  0.268000, 16.262880
  0.270000, 14.983380
  0.272000, 13.721130
  0.274000, 12.493410
  0.276000, 11.293410
  0.278000, 10.140430
  0.280000,  9.044070
  0.282000,  8.003030
  0.284000,  7.026310
  0.286000,  6.109450
  0.288000,  5.229810
  0.290000,  4.377610
  0.292000,  3.553110
  0.294000,  2.759900
  0.296000,  1.995220
  0.298000,  1.255900
  0.300000,  0.553090
  0.302000, -0.109000
  0.304000, -0.738770
  0.306000, -1.332530
  0.308000, -1.897520
  0.310000, -2.445160
  0.312000, -2.974320
  0.314000, -3.490850
  0.316000, -3.978400
  0.318000, -4.454200
  0.320000, -4.895790
  0.322000, -5.306880
  0.324000, -5.690510
  0.326000, -6.037590
  0.328000, -6.359380
  0.330000, -6.661640
  0.332000, -6.951680
  0.334000, -7.229860
  0.336000, -7.519290
  0.338000, -7.807880
  0.340000, -8.095600
  0.342000, -8.375670
  0.344000, -8.629170
  0.346000, -8.850880
  0.348000, -9.032260
  0.350000, -9.171360
  0.352000, -9.268210
  0.354000, -9.338170
  0.356000, -9.393000
  0.358000, -9.436510
  0.360000, -9.482810
  0.362000, -9.529270
  0.364000, -9.572860
  0.366000, -9.611030
  0.368000, -9.644430
  0.370000, -9.671170
  0.372000, -9.692250
  0.374000, -9.692600
  0.376000, -9.691010
  0.378000, -9.682270
  0.380000, -9.658290
  0.382000, -9.618930
  0.384000, -9.563910
  0.386000, -9.497730
  0.388000, -9.415500
  0.390000, -9.317630
  0.392000, -9.212620
  0.394000, -9.106670
  0.396000, -8.993540
  0.398000, -8.879240
  0.400000, -8.760570
  0.402000, -8.645840
  0.404000, -8.537510
  0.406000, -8.443860
  0.408000, -8.361390
  0.410000, -8.284880
  0.412000, -8.211400
  0.414000, -8.144270
  0.416000, -8.074550
  0.418000, -8.002400
  0.420000, -7.934790
  0.422000, -7.868840
  0.424000, -7.791810
  0.426000, -7.720750
  0.428000, -7.639680
  0.430000, -7.553530
  0.432000, -7.471670
  0.434000, -7.378610
  0.436000, -7.281160
  0.438000, -7.195560
  0.440000, -7.112030
  0.442000, -7.024680
  0.444000, -6.938550
  0.446000, -6.848490
  0.448000, -6.751700
  0.450000, -6.648930
  0.452000, -6.542210
  0.454000, -6.424920
  0.456000, -6.320110
  0.458000, -6.214950
  0.460000, -6.120770
  0.462000, -6.023980
  0.464000, -5.934140
  0.466000, -5.837100
  0.468000, -5.734540
  0.470000, -5.626980
  0.472000, -5.520390
  0.474000, -5.411880
  0.476000, -5.312530
  0.478000, -5.225600
  0.480000, -5.149840
  0.482000, -5.079160
  0.484000, -4.999630
  0.486000, -4.915900
  0.488000, -4.819560
  0.490000, -4.705870
  0.492000, -4.579990
  0.494000, -4.432640
  0.496000, -4.299360
  0.498000, -4.173930
  0.500000, -4.060180
  0.502000, -3.966550
  0.504000, -3.883270
  0.506000, -3.810350
  0.508000, -3.749050
  0.510000, -3.687870
  0.512000, -3.625510
  0.514000, -3.551160
  0.516000, -3.468530
  0.518000, -3.387080
  0.520000, -3.303490
  0.522000, -3.226330
  0.524000, -3.141310
  0.526000, -3.062710
  0.528000, -2.971900
  0.530000, -2.885060
  0.532000, -2.796670
  0.534000, -2.721510
  0.536000, -2.648300
  0.538000, -2.591290
  0.540000, -2.534920
  0.542000, -2.486780
  0.544000, -2.441650
  0.546000, -2.388960
  0.548000, -2.323230
  0.550000, -2.246500
  0.552000, -2.156390
  0.554000, -2.060980
  0.556000, -1.971910
  0.558000, -1.879440
  0.560000, -1.800510
  0.562000, -1.732730
  0.564000, -1.681120
  0.566000, -1.641750
  0.568000, -1.611860
  0.570000, -1.588920
  0.572000, -1.567220
  0.574000, -1.543480
  0.576000, -1.514960
  0.578000, -1.481950
  0.580000, -1.441860
  0.582000, -1.394860
  0.584000, -1.340660
  0.586000, -1.290170
  0.588000, -1.230530
  0.590000, -1.180710
  0.592000, -1.134420
  0.594000, -1.090840
  0.596000, -1.051710
  0.598000, -1.018540
  0.600000, -0.983660
  0.602000, -0.956590
  0.604000, -0.926880
  0.606000, -0.894890
  0.608000, -0.871590
  0.610000, -0.839260
  0.612000, -0.809650
  0.614000, -0.773690
  0.616000, -0.736680
  0.618000, -0.696940
  0.620000, -0.667790
  0.622000, -0.648620
  0.624000, -0.638990
  0.626000, -0.632380
  0.628000, -0.639660
  0.630000, -0.645460
  0.632000, -0.654250
  0.634000, -0.654850
  0.636000, -0.653840
  0.638000, -0.653710
  0.640000, -0.650090
  0.642000, -0.648860
  0.644000, -0.641730
  0.646000, -0.648710
  0.648000, -0.647390
  0.650000, -0.643150
  0.652000, -0.639550
  0.654000, -0.635900
  0.656000, -0.621640
  0.658000, -0.610550
  0.660000, -0.590730
  0.662000, -0.575860
  0.664000, -0.553550
  0.666000, -0.528480
  0.668000, -0.507560
  0.670000, -0.485070
  0.672000, -0.455970
  0.674000, -0.439810
  0.676000, -0.426520
  0.678000, -0.417170
  0.680000, -0.406040
  0.682000, -0.402580
  0.684000, -0.403000
  0.686000, -0.398690
  0.688000, -0.396300
  0.690000, -0.389130
  0.692000, -0.376920
  0.694000, -0.371590
  0.696000, -0.361820
  0.698000, -0.357860
  0.700000, -0.356090
  0.702000, -0.347730
  0.704000, -0.338060
  0.706000, -0.331330
  0.708000, -0.322300
  0.710000, -0.304140
  0.712000, -0.285640
  0.714000, -0.265600
  0.716000, -0.248950
  0.718000, -0.227490
  0.720000, -0.210580
  0.722000, -0.194940
  0.724000, -0.182020
  0.726000, -0.171740
  0.728000, -0.159020
  0.730000, -0.151180
  0.732000, -0.142800
  0.734000, -0.135160
  0.736000, -0.124590
  0.738000, -0.108210
  0.740000, -0.088290
  0.742000, -0.059280
  0.744000, -0.028570
  0.746000,  0.009340
  0.748000,  0.051790
  0.750000,  0.098210
  0.752000,  0.137530
  0.754000,  0.171560
  0.756000,  0.189040
  0.758000,  0.203340
  0.760000,  0.213450
  0.762000,  0.215210
  0.764000,  0.213090
  0.766000,  0.218160
  0.768000,  0.218170
  0.770000,  0.225420
  0.772000,  0.233030
  0.774000,  0.246270
  0.776000,  0.265820
  0.778000,  0.285000
  0.780000,  0.300860
  0.782000,  0.310240
  0.784000,  0.313410
  0.786000,  0.319480
  0.788000,  0.316020
  0.790000,  0.319400
  0.792000,  0.315400
  0.794000,  0.314730
  0.796000,  0.302360
  0.798000,  0.293940
  0.800000,  0.293610
  0.802000,  0.304530
  0.804000,  0.328370
  0.806000,  0.366240
  0.808000,  0.425260
  0.810000,  0.490990
  0.812000,  0.551880
  0.814000,  0.606660
  0.816000,  0.651980
  0.818000,  0.676130
  0.820000,  0.686040
  0.822000,  0.670560
  0.824000,  0.643000
  0.826000,  0.604450
  0.828000,  0.555470
  0.830000,  0.514840
  0.832000,  0.485610
  0.834000,  0.474380
  0.836000,  0.482980
  0.838000,  0.506880
  0.840000,  0.532490
  0.842000,  0.569750
  0.844000,  0.603260
  0.846000,  0.627410
  0.848000,  0.640440
  0.850000,  0.636590
  0.852000,  0.618820
  0.854000,  0.600600
  0.856000,  0.569060
  0.858000,  0.546260
  0.860000,  0.514410
  0.862000,  0.485080
  0.864000,  0.464790
  0.866000,  0.449610
  0.868000,  0.445150
  0.870000,  0.442190
  0.872000,  0.443020
  0.874000,  0.446700
  0.876000,  0.451080
  0.878000,  0.449670
  0.880000,  0.443860
  0.882000,  0.433540
  0.884000,  0.420300
  0.886000,  0.400850
  0.888000,  0.380160
  0.890000,  0.353300
  0.892000,  0.331340
  0.894000,  0.308860
  0.896000,  0.291030
  0.898000,  0.273950
  0.900000,  0.259720
  0.902000,  0.250390
  0.904000,  0.247110
  0.906000,  0.244350
  0.908000,  0.239730
  0.910000,  0.237090
  0.912000,  0.225960
  0.914000,  0.221430
  0.916000,  0.208570
  0.918000,  0.198630
  0.920000,  0.178660
  0.922000,  0.166460
  0.924000,  0.154330
  0.926000,  0.140570
  0.928000,  0.134230
  0.930000,  0.134880
  0.932000,  0.137660
  0.934000,  0.141690
  0.936000,  0.138740
  0.938000,  0.138900
  0.940000,  0.139080
  0.942000,  0.146650
  0.944000,  0.134430
  0.946000,  0.120330
  0.948000,  0.091840
  0.950000,  0.061810
  0.952000,  0.032600
  0.954000, -0.003710
  0.956000, -0.042320
  0.958000, -0.071850
  0.960000, -0.107680
  0.962000, -0.137140
  0.964000, -0.161710
  0.966000, -0.181780
  0.968000, -0.201980
  0.970000, -0.215430
  0.972000, -0.223070
  0.974000, -0.229850
  0.976000, -0.224290
  0.978000, -0.215080
  0.980000, -0.210670
  0.982000, -0.198020
  0.984000, -0.193450
  0.986000, -0.182120
  0.988000, -0.185540
  0.990000, -0.189560
  0.992000, -0.194940
  0.994000, -0.203190
  0.996000, -0.217640
  0.998000, -0.228720
  1.000000, -0.246370
