# z (nm)   (kJ/mol)
  0.094000,277.257340
  0.096000,274.986640
  0.098000,272.761450
  0.100000,270.004550
  0.102000,267.640340
  0.104000,265.212490
  0.106000,262.853470
  0.108000,260.501270
  0.110000,258.177710
  0.112000,255.802770
  0.114000,253.385310
  0.116000,250.909250
  0.118000,248.352570
  0.120000,245.698530
  0.122000,242.917340
  0.124000,239.961650
  0.126000,236.798620
  0.128000,233.380810
  0.130000,229.687310
  0.132000,225.716990
  0.134000,221.510570
  0.136000,217.134390
  0.138000,212.655780
  0.140000,208.131140
  0.142000,203.589010
  0.144000,199.041850
  0.146000,194.500240
  0.148000,189.980230
  0.150000,185.506260
  0.152000,181.102010
  0.154000,176.768070
  0.156000,172.512260
  0.158000,168.343930
  0.160000,164.295990
  0.162000,160.397130
  0.164000,156.677060
  0.166000,153.104940
  0.168000,149.637740
  0.170000,146.205710
  0.172000,142.767010
  0.174000,139.321180
  0.176000,135.890200
  0.178000,132.514460
  0.180000,129.219920
  0.182000,126.025400
  0.184000,122.942710
  0.186000,119.950820
  0.188000,117.032380
  0.190000,114.150190
  0.192000,111.268900
  0.194000,108.364680
  0.196000,105.422190
  0.198000,102.447380
  0.200000, 99.458810
  0.202000, 96.490980
  0.204000, 93.582300
  0.206000, 90.768350
  0.208000, 88.071750
  0.210000, 85.477800
  0.212000, 82.969940
  0.214000, 80.522360
  0.216000, 78.105660
  0.218000, 75.706300
  0.220000, 73.322100
  0.222000, 70.972270
  0.224000, 68.665890
  0.226000, 66.425850
  0.228000, 64.232200
  0.230000, 62.077850
  0.232000, 59.935360
  0.234000, 57.769650
  0.236000, 55.579740
  0.238000, 53.372760
  0.240000, 51.191120
  0.242000, 49.077650
  0.244000, 47.076790
  0.246000, 45.215640
  0.248000, 43.486410
  0.250000, 41.847330
  0.252000, 40.248660
  0.254000, 38.653910
  0.256000, 37.021690
  0.258000, 35.356150
  0.260000, 33.670640
  0.262000, 31.988650
  0.264000, 30.344660
  0.266000, 28.769570
  0.268000, 27.286620
  0.270000, 25.900790
  0.272000, 24.614250
  0.274000, 23.409490
  0.276000, 22.269290
  0.278000, 21.153080
  0.280000, 20.048800
  0.282000, 18.935200
  0.284000, 17.822660
  0.286000, 16.704420
  0.288000, 15.596990
  0.290000, 14.522210
  0.292000, 13.502890
  0.294000, 12.534220
  0.296000, 11.627810
  0.298000, 10.774580
  0.300000,  9.972660
  0.302000,  9.225060
  0.304000,  8.520770
  0.306000,  7.862980
  0.308000,  7.235300
  0.310000,  6.643720
  0.312000,  6.070970
  0.314000,  5.506590
  0.316000,  4.950400
  0.318000,  4.401150
  0.320000,  3.864690
  0.322000,  3.337170
  0.324000,  2.844100
  0.326000,  2.385410
  0.328000,  1.966180
  0.330000,  1.581320
  0.332000,  1.236310
  0.334000,  0.922750
  0.336000,  0.619340
  0.338000,  0.338400
  0.340000,  0.057800
  0.342000, -0.229690
  0.344000, -0.512750
  0.346000, -0.801100
  0.348000, -1.083800
  0.350000, -1.365910
  0.352000, -1.645740
  0.354000, -1.909910
  0.356000, -2.159210
  0.358000, -2.395580
  0.360000, -2.614460
  0.362000, -2.821380
  0.364000, -3.021240
  0.366000, -3.211500
  0.368000, -3.398620
  0.370000, -3.587260
  0.372000, -3.778570
  0.374000, -3.971160
  0.376000, -4.154100
  0.378000, -4.321730
  0.380000, -4.475440
  0.382000, -4.604940
  0.384000, -4.709610
  0.386000, -4.796070
  0.388000, -4.859130
  0.390000, -4.903740
  0.392000, -4.928290
  0.394000, -4.942600
  0.396000, -4.951670
  0.398000, -4.966090
  0.400000, -4.988140
  0.402000, -5.013160
  0.404000, -5.046500
  0.406000, -5.086780
  0.408000, -5.129020
  0.410000, -5.173310
  0.412000, -5.205530
  0.414000, -5.221680
  0.416000, -5.217420
  0.418000, -5.191360
  0.420000, -5.149870
  0.422000, -5.094890
  0.424000, -5.023820
  0.426000, -4.951430
  0.428000, -4.885260
  0.430000, -4.823960
  0.432000, -4.777850
  0.434000, -4.733880
  0.436000, -4.699260
  0.438000, -4.673840
  0.440000, -4.650600
  0.442000, -4.636700
  0.444000, -4.623400
  0.446000, -4.601910
  0.448000, -4.569320
  0.450000, -4.532130
  0.452000, -4.486730
  0.454000, -4.438650
  0.456000, -4.388320
  0.458000, -4.330780
  0.460000, -4.263820
  0.462000, -4.199620
  0.464000, -4.143080
  0.466000, -4.089630
  0.468000, -4.046320
  0.470000, -4.010290
  0.472000, -3.984500
  0.474000, -3.967410
  0.476000, -3.953650
  0.478000, -3.936520
  0.480000, -3.922820
  0.482000, -3.906910
  0.484000, -3.890330
  0.486000, -3.861950
  0.488000, -3.821750
  0.490000, -3.781430
  0.492000, -3.735790
  0.494000, -3.688960
  0.496000, -3.634940
  0.498000, -3.574190
  0.500000, -3.515510
  0.502000, -3.457220
  0.504000, -3.404700
  0.506000, -3.348340
  0.508000, -3.293840
  0.510000, -3.239900
  0.512000, -3.189550
  0.514000, -3.140620
  0.516000, -3.092230
  0.518000, -3.043060
  0.520000, -2.990330
  0.522000, -2.930660
  0.524000, -2.872420
  0.526000, -2.798470
  0.528000, -2.729860
  0.530000, -2.654450
  0.532000, -2.576940
  0.534000, -2.497490
  0.536000, -2.416940
  0.538000, -2.335840
  0.540000, -2.256330
  0.542000, -2.178630
  0.544000, -2.098430
  0.546000, -2.018530
  0.548000, -1.944030
  0.550000, -1.864500
  0.552000, -1.792330
  0.554000, -1.711060
  0.556000, -1.636590
  0.558000, -1.566270
  0.560000, -1.491960
  0.562000, -1.416590
  0.564000, -1.337010
  0.566000, -1.261850
  0.568000, -1.181440
  0.570000, -1.101370
  0.572000, -1.028990
  0.574000, -0.949140
  0.576000, -0.873160
  0.578000, -0.791600
  0.580000, -0.725160
  0.582000, -0.664690
  0.584000, -0.614880
  0.586000, -0.569830
  0.588000, -0.535190
  0.590000, -0.507310
  0.592000, -0.483530
  0.594000, -0.466580
  0.596000, -0.445760
  0.598000, -0.425010
  0.600000, -0.406480
  0.602000, -0.393020
  0.604000, -0.374860
  0.606000, -0.364950
  0.608000, -0.348650
  0.610000, -0.336360
  0.612000, -0.328110
  0.614000, -0.319920
  0.616000, -0.313800
  0.618000, -0.315120
  0.620000, -0.320620
  0.622000, -0.323250
  0.624000, -0.325870
  0.626000, -0.324730
  0.628000, -0.322770
  0.630000, -0.324900
  0.632000, -0.325810
  0.634000, -0.324810
  0.636000, -0.324530
  0.638000, -0.327800
  0.640000, -0.323050
  0.642000, -0.319870
  0.644000, -0.319930
  0.646000, -0.329480
  0.648000, -0.342820
  0.650000, -0.355590
  0.652000, -0.368110
  0.654000, -0.376680
  0.656000, -0.378560
  0.658000, -0.379270
  0.660000, -0.369520
  0.662000, -0.364250
  0.664000, -0.348280
  0.666000, -0.330510
  0.668000, -0.315490
  0.670000, -0.301850
  0.672000, -0.294400
  0.674000, -0.291970
  0.676000, -0.294370
  0.678000, -0.306390
  0.680000, -0.328210
  0.682000, -0.348090
  0.684000, -0.369820
  0.686000, -0.392370
  0.688000, -0.408100
  0.690000, -0.412970
  0.692000, -0.410640
  0.694000, -0.400830
  0.696000, -0.381800
  0.698000, -0.353600
  0.700000, -0.329610
  0.702000, -0.306010
  0.704000, -0.285560
  0.706000, -0.264340
  0.708000, -0.250300
  0.710000, -0.238300
  0.712000, -0.227420
  0.714000, -0.228180
  0.716000, -0.227190
  0.718000, -0.233680
  0.720000, -0.233190
  0.722000, -0.227380
  0.724000, -0.219610
  0.726000, -0.215870
  0.728000, -0.205780
  0.730000, -0.194010
  0.732000, -0.179660
  0.734000, -0.166410
  0.736000, -0.158140
  0.738000, -0.153160
  0.740000, -0.153240
  0.742000, -0.148500
  0.744000, -0.148070
  0.746000, -0.149870
  0.748000, -0.152930
  0.750000, -0.155170
  0.752000, -0.152420
  0.754000, -0.152640
  0.756000, -0.143070
  0.758000, -0.135730
  0.760000, -0.121900
  0.762000, -0.104350
  0.764000, -0.087390
  0.766000, -0.066130
  0.768000, -0.041110
  0.770000, -0.021640
  0.772000,  0.000970
  0.774000,  0.024950
  0.776000,  0.043930
  0.778000,  0.062440
  0.780000,  0.078320
  0.782000,  0.089350
  0.784000,  0.101490
  0.786000,  0.116060
  0.788000,  0.124880
  0.790000,  0.134040
  0.792000,  0.141050
  0.794000,  0.150490
  0.796000,  0.159000
  0.798000,  0.161540
  0.800000,  0.171430
  0.802000,  0.174740
  0.804000,  0.183320
  0.806000,  0.186890
  0.808000,  0.192680
  0.810000,  0.200860
  0.812000,  0.214360
  0.814000,  0.224180
  0.816000,  0.239090
  0.818000,  0.254080
  0.820000,  0.273570
  0.822000,  0.288030
  0.824000,  0.299900
  0.826000,  0.311860
  0.828000,  0.317980
  0.830000,  0.324400
  0.832000,  0.324800
  0.834000,  0.323230
  0.836000,  0.318060
  0.838000,  0.307880
  0.840000,  0.307380
  0.842000,  0.308620
  0.844000,  0.310330
  0.846000,  0.313930
  0.848000,  0.329760
  0.850000,  0.349380
  0.852000,  0.369020
  0.854000,  0.392690
  0.856000,  0.413530
  0.858000,  0.436010
  0.860000,  0.451000
  0.862000,  0.473570
  0.864000,  0.483930
  0.866000,  0.487640
  0.868000,  0.480120
  0.870000,  0.474080
  0.872000,  0.458350
  0.874000,  0.437390
  0.876000,  0.416550
  0.878000,  0.398090
  0.880000,  0.387160
  0.882000,  0.373000
  0.884000,  0.369800
  0.886000,  0.370160
  0.888000,  0.374780
  0.890000,  0.372570
  0.892000,  0.366560
  0.894000,  0.361060
  0.896000,  0.340280
  0.898000,  0.319930
  0.900000,  0.301010
  0.902000,  0.267420
  0.904000,  0.246960
  0.906000,  0.219200
  0.908000,  0.202350
  0.910000,  0.185970
  0.912000,  0.184730
  0.914000,  0.181800
  0.916000,  0.188000
  0.918000,  0.190120
  0.920000,  0.188050
  0.922000,  0.193330
  0.924000,  0.195380
  0.926000,  0.193110
  0.928000,  0.186030
  0.930000,  0.171730
  0.932000,  0.154880
  0.934000,  0.124120
  0.936000,  0.092120
  0.938000,  0.057660
  0.940000,  0.017610
  0.942000, -0.022720
  0.944000, -0.055940
  0.946000, -0.081200
  0.948000, -0.092580
  0.950000, -0.094400
  0.952000, -0.083120
  0.954000, -0.064210
  0.956000, -0.040120
  0.958000, -0.017950
  0.960000,  0.000750
  0.962000,  0.009640
  0.964000,  0.006850
  0.966000, -0.006150
  0.968000, -0.031920
  0.970000, -0.059000
  0.972000, -0.086320
  0.974000, -0.112320
  0.976000, -0.129670
  0.978000, -0.140110
  0.980000, -0.143270
  0.982000, -0.152530
  0.984000, -0.149650
  0.986000, -0.151830
  0.988000, -0.165570
  0.990000, -0.186700
  0.992000, -0.215580
  0.994000, -0.249560
  0.996000, -0.278190
  0.998000, -0.311420
  1.000000, -0.335770
