# z (nm)   (kJ/mol)
  0.068000,272.193450
  0.070000,270.442260
  0.072000,267.418410
  0.074000,265.150060
  0.076000,262.624200
  0.078000,260.169250
  0.080000,257.758440
  0.082000,255.412260
  0.084000,253.009840
  0.086000,250.572870
  0.088000,248.099350
  0.090000,245.562970
  0.092000,242.951060
  0.094000,240.239120
  0.096000,237.399810
  0.098000,234.420220
  0.100000,231.275420
  0.102000,227.944130
  0.104000,224.407450
  0.106000,220.665730
  0.108000,216.720150
  0.110000,212.596790
  0.112000,208.327460
  0.114000,203.979380
  0.116000,199.612920
  0.118000,195.286100
  0.120000,191.059900
  0.122000,186.976720
  0.124000,183.024200
  0.126000,179.191740
  0.128000,175.427780
  0.130000,171.683790
  0.132000,167.927020
  0.134000,164.146140
  0.136000,160.349070
  0.138000,156.563580
  0.140000,152.819280
  0.142000,149.140690
  0.144000,145.530310
  0.146000,141.977030
  0.148000,138.452430
  0.150000,134.935110
  0.152000,131.401710
  0.154000,127.852000
  0.156000,124.298130
  0.158000,120.762490
  0.160000,117.276040
  0.162000,113.856740
  0.164000,110.525540
  0.166000,107.286500
  0.168000,104.140800
  0.170000,101.077380
  0.172000, 98.077520
  0.174000, 95.116370
  0.176000, 92.184950
  0.178000, 89.270520
  0.180000, 86.377290
  0.182000, 83.512130
  0.184000, 80.687480
  0.186000, 77.913530
  0.188000, 75.193690
  0.190000, 72.540850
  0.192000, 69.941870
  0.194000, 67.412540
  0.196000, 64.953630
  0.198000, 62.564140
  0.200000, 60.235830
  0.202000, 57.973920
  0.204000, 55.760920
  0.206000, 53.597230
  0.208000, 51.473630
  0.210000, 49.395670
  0.212000, 47.364310
  0.214000, 45.391930
  0.216000, 43.470620
  0.218000, 41.604230
  0.220000, 39.787840
  0.222000, 38.004880
  0.224000, 36.256690
  0.226000, 34.535740
  0.228000, 32.844670
  0.230000, 31.192610
  0.232000, 29.572410
  0.234000, 28.007160
  0.236000, 26.487020
  0.238000, 25.016350
  0.240000, 23.601950
  0.242000, 22.251580
  0.244000, 20.962130
  0.246000, 19.735400
  0.248000, 18.565870
  0.250000, 17.451750
  0.252000, 16.371040
  0.254000, 15.316440
  0.256000, 14.275820
  0.258000, 13.248320
  0.260000, 12.239010
  0.262000, 11.246970
  0.264000, 10.307000
  0.266000,  9.414360
  0.268000,  8.592340
  0.270000,  7.829830
  0.272000,  7.125060
  0.274000,  6.457190
  0.276000,  5.813190
  0.278000,  5.186870
  0.280000,  4.568500
  0.282000,  3.950970
  0.284000,  3.337860
  0.286000,  2.717090
  0.288000,  2.099080
  0.290000,  1.497530
  0.292000,  0.927760
  0.294000,  0.422250
  0.296000, -0.026080
  0.298000, -0.401740
  0.300000, -0.709580
  0.302000, -0.970430
  0.304000, -1.219270
  0.306000, -1.456290
  0.308000, -1.713770
  0.310000, -2.000110
  0.312000, -2.302140
  0.314000, -2.606280
  0.316000, -2.905230
  0.318000, -3.174980
  0.320000, -3.409590
  0.322000, -3.612250
  0.324000, -3.775190
  0.326000, -3.901710
  0.328000, -3.992340
  0.330000, -4.085580
  0.332000, -4.166560
  0.334000, -4.257540
  0.336000, -4.363660
  0.338000, -4.484760
  0.340000, -4.605350
  0.342000, -4.716740
  0.344000, -4.818620
  0.346000, -4.890690
  0.348000, -4.933040
  0.350000, -4.953460
  0.352000, -4.957990
  0.354000, -4.958010
  0.356000, -4.973610
  0.358000, -4.997140
  0.360000, -5.042870
  0.362000, -5.104590
  0.364000, -5.188120
  0.366000, -5.270650
  0.368000, -5.347650
  0.370000, -5.421100
  0.372000, -5.480960
  0.374000, -5.527770
  0.376000, -5.553890
  0.378000, -5.571980
  0.380000, -5.579650
  0.382000, -5.577490
  0.384000, -5.592800
  0.386000, -5.621770
  0.388000, -5.668510
  0.390000, -5.727880
  0.392000, -5.791340
  0.394000, -5.854230
  0.396000, -5.910130
  0.398000, -5.948420
  0.400000, -5.979370
  0.402000, -6.003840
  0.404000, -6.022900
  0.406000, -6.046800
  0.408000, -6.068960
  0.410000, -6.094180
  0.412000, -6.108300
  0.414000, -6.127350
  0.416000, -6.127780
  0.418000, -6.128500
  0.420000, -6.119190
  0.422000, -6.104820
  0.424000, -6.088310
  0.426000, -6.067470
  0.428000, -6.046270
  0.430000, -6.014950
  0.432000, -5.982500
  0.434000, -5.950100
  0.436000, -5.922630
  0.438000, -5.890400
  0.440000, -5.862180
  0.442000, -5.822340
  0.444000, -5.774810
  0.446000, -5.702510
  0.448000, -5.613070
  0.450000, -5.505420
  0.452000, -5.385970
  0.454000, -5.263200
  0.456000, -5.138980
  0.458000, -5.027730
  0.460000, -4.918980
  0.462000, -4.822730
  0.464000, -4.731100
  0.466000, -4.637730
  0.468000, -4.540460
  0.470000, -4.441240
  0.472000, -4.319840
  0.474000, -4.190710
  0.476000, -4.061360
  0.478000, -3.923120
  0.480000, -3.784590
  0.482000, -3.654520
  0.484000, -3.527940
  0.486000, -3.398960
  0.488000, -3.279110
  0.490000, -3.156620
  0.492000, -3.040140
  0.494000, -2.930510
  0.496000, -2.822670
  0.498000, -2.715350
  0.500000, -2.615500
  0.502000, -2.519720
  0.504000, -2.420550
  0.506000, -2.322390
  0.508000, -2.219310
  0.510000, -2.117660
  0.512000, -2.008620
  0.514000, -1.893970
  0.516000, -1.781190
  0.518000, -1.668890
  0.520000, -1.557780
  0.522000, -1.457760
  0.524000, -1.360750
  0.526000, -1.278070
  0.528000, -1.203840
  0.530000, -1.141140
  0.532000, -1.092730
  0.534000, -1.053030
  0.536000, -1.018830
  0.538000, -0.996590
  0.540000, -0.967430
  0.542000, -0.934310
  0.544000, -0.901950
  0.546000, -0.863740
  0.548000, -0.815850
  0.550000, -0.775980
  0.552000, -0.743000
  0.554000, -0.718390
  0.556000, -0.711960
  0.558000, -0.718870
  0.560000, -0.734900
  0.562000, -0.767750
  0.564000, -0.808900
  0.566000, -0.845290
  0.568000, -0.871490
  0.570000, -0.890890
  0.572000, -0.893640
  0.574000, -0.873210
  0.576000, -0.853590
  0.578000, -0.825150
  0.580000, -0.795720
  0.582000, -0.771880
  0.584000, -0.767160
  0.586000, -0.779760
  0.588000, -0.798340
  0.590000, -0.843030
  0.592000, -0.893000
  0.594000, -0.946800
  0.596000, -1.001570
  0.598000, -1.053560
  0.600000, -1.094440
  0.602000, -1.121670
  0.604000, -1.141470
  0.606000, -1.149710
  0.608000, -1.151600
  0.610000, -1.144330
  0.612000, -1.126120
  0.614000, -1.100100
  0.616000, -1.072050
  0.618000, -1.049740
  0.620000, -1.040670
  0.622000, -1.037840
  0.624000, -1.048540
  0.626000, -1.061780
  0.628000, -1.086490
  0.630000, -1.116880
  0.632000, -1.134400
  0.634000, -1.146620
  0.636000, -1.143730
  0.638000, -1.124530
  0.640000, -1.091610
  0.642000, -1.055840
  0.644000, -1.027950
  0.646000, -1.003500
  0.648000, -0.984230
  0.650000, -0.973970
  0.652000, -0.974890
  0.654000, -0.974330
  0.656000, -0.982310
  0.658000, -0.977930
  0.660000, -0.974480
  0.662000, -0.960690
  0.664000, -0.942960
  0.666000, -0.919810
  0.668000, -0.887290
  0.670000, -0.851210
  0.672000, -0.807340
  0.674000, -0.765020
  0.676000, -0.720820
  0.678000, -0.682570
  0.680000, -0.646940
  0.682000, -0.624680
  0.684000, -0.605080
  0.686000, -0.584680
  0.688000, -0.571050
  0.690000, -0.554710
  0.692000, -0.533920
  0.694000, -0.511690
  0.696000, -0.483890
  0.698000, -0.449190
  0.700000, -0.410270
  0.702000, -0.370820
  0.704000, -0.328750
  0.706000, -0.291030
  0.708000, -0.264860
  0.710000, -0.236200
  0.712000, -0.214720
  0.714000, -0.190680
  0.716000, -0.175340
  0.718000, -0.162270
  0.720000, -0.143750
  0.722000, -0.118320
  0.724000, -0.089610
  0.726000, -0.060480
  0.728000, -0.036120
  0.730000, -0.016910
  0.732000,  0.003030
  0.734000,  0.019610
  0.736000,  0.045890
  0.738000,  0.072250
  0.740000,  0.092740
  0.742000,  0.114950
  0.744000,  0.130030
  0.746000,  0.149210
  0.748000,  0.162250
  0.750000,  0.177410
  0.752000,  0.185660
  0.754000,  0.195640
  0.756000,  0.208900
  0.758000,  0.221110
  0.760000,  0.232920
  0.762000,  0.248970
  0.764000,  0.267510
  0.766000,  0.286760
  0.768000,  0.298180
  0.770000,  0.304080
  0.772000,  0.309490
  0.774000,  0.319090
  0.776000,  0.323190
  0.778000,  0.339400
  0.780000,  0.365150
  0.782000,  0.393210
  0.784000,  0.425600
  0.786000,  0.464450
  0.788000,  0.496350
  0.790000,  0.526890
  0.792000,  0.549090
  0.794000,  0.562830
  0.796000,  0.562630
  0.798000,  0.549790
  0.800000,  0.527530
  0.802000,  0.497700
  0.804000,  0.462820
  0.806000,  0.420920
  0.808000,  0.389610
  0.810000,  0.366430
  0.812000,  0.355610
  0.814000,  0.346030
  0.816000,  0.350590
  0.818000,  0.358860
  0.820000,  0.362620
  0.822000,  0.369850
  0.824000,  0.374940
  0.826000,  0.369250
  0.828000,  0.360120
  0.830000,  0.346080
  0.832000,  0.327850
  0.834000,  0.313070
  0.836000,  0.294580
  0.838000,  0.273050
  0.840000,  0.263380
  0.842000,  0.243920
  0.844000,  0.219500
  0.846000,  0.199730
  0.848000,  0.175960
  0.850000,  0.145790
  0.852000,  0.116280
  0.854000,  0.081040
  0.856000,  0.047630
  0.858000,  0.022970
  0.860000,  0.006010
  0.862000, -0.004200
  0.864000,  0.004760
  0.866000,  0.016050
  0.868000,  0.037090
  0.870000,  0.067850
  0.872000,  0.098270
  0.874000,  0.130170
  0.876000,  0.156670
  0.878000,  0.175960
  0.880000,  0.188310
  0.882000,  0.188310
  0.884000,  0.174010
  0.886000,  0.150740
  0.888000,  0.125600
  0.890000,  0.093040
  0.892000,  0.068820
  0.894000,  0.050110
  0.896000,  0.040160
  0.898000,  0.043530
  0.900000,  0.052610
  0.902000,  0.063720
  0.904000,  0.078490
  0.906000,  0.100160
  0.908000,  0.120000
  0.910000,  0.126440
  0.912000,  0.127410
  0.914000,  0.124530
  0.916000,  0.112840
  0.918000,  0.104310
  0.920000,  0.090170
  0.922000,  0.080790
  0.924000,  0.077790
  0.926000,  0.082490
  0.928000,  0.087020
  0.930000,  0.094390
  0.932000,  0.102590
  0.934000,  0.108020
  0.936000,  0.110090
  0.938000,  0.108870
  0.940000,  0.100850
  0.942000,  0.081730
  0.944000,  0.062610
  0.946000,  0.037650
  0.948000,  0.018340
  0.950000, -0.007490
  0.952000, -0.029300
  0.954000, -0.046600
  0.956000, -0.057440
  0.958000, -0.062130
  0.960000, -0.060700
  0.962000, -0.057630
  0.964000, -0.054130
  0.966000, -0.045270
  0.968000, -0.038920
  0.970000, -0.039560
  0.972000, -0.045610
  0.974000, -0.055560
  0.976000, -0.070180
  0.978000, -0.088020
  0.980000, -0.108420
  0.982000, -0.128970
  0.984000, -0.141550
  0.986000, -0.160980
  0.988000, -0.164730
  0.990000, -0.168250
  0.992000, -0.160900
  0.994000, -0.144200
  0.996000, -0.116770
  0.998000, -0.085990
  1.000000, -0.061980
