# z (nm)   (kJ/mol)
  0.110000,273.250640
  0.112000,271.022030
  0.114000,268.826140
  0.116000,269.619470
  0.118000,266.513420
  0.120000,263.545930
  0.122000,260.791620
  0.124000,258.182780
  0.126000,255.540450
  0.128000,252.845790
  0.130000,250.137610
  0.132000,247.330850
  0.134000,244.431400
  0.136000,241.409810
  0.138000,238.242430
  0.140000,234.911450
  0.142000,231.410920
  0.144000,227.712370
  0.146000,223.816590
  0.148000,219.706930
  0.150000,215.385160
  0.152000,210.849310
  0.154000,206.101370
  0.156000,201.153200
  0.158000,196.030000
  0.160000,190.780790
  0.162000,185.465470
  0.164000,180.171670
  0.166000,174.992330
  0.168000,170.011140
  0.170000,165.275700
  0.172000,160.798880
  0.174000,156.546320
  0.176000,152.459720
  0.178000,148.475300
  0.180000,144.538290
  0.182000,140.622030
  0.184000,136.717800
  0.186000,132.848070
  0.188000,129.043650
  0.190000,125.344680
  0.192000,121.774180
  0.194000,118.328530
  0.196000,115.015170
  0.198000,111.782740
  0.200000,108.584440
  0.202000,105.374060
  0.204000,102.123680
  0.206000, 98.839050
  0.208000, 95.545410
  0.210000, 92.285110
  0.212000, 89.114610
  0.214000, 86.083670
  0.216000, 83.199730
  0.218000, 80.440250
  0.220000, 77.775040
  0.222000, 75.158250
  0.224000, 72.544890
  0.226000, 69.925510
  0.228000, 67.297410
  0.230000, 64.691840
  0.232000, 62.146410
  0.234000, 59.690080
  0.236000, 57.352980
  0.238000, 55.127300
  0.240000, 53.003080
  0.242000, 50.961840
  0.244000, 48.995520
  0.246000, 47.075940
  0.248000, 45.197980
  0.250000, 43.363260
  0.252000, 41.570290
  0.254000, 39.814070
  0.256000, 38.088820
  0.258000, 36.379060
  0.260000, 34.684720
  0.262000, 33.023330
  0.264000, 31.427590
  0.266000, 29.941160
  0.268000, 28.600710
  0.270000, 27.410810
  0.272000, 26.309980
  0.274000, 25.242540
  0.276000, 24.147030
  0.278000, 22.999940
  0.280000, 21.815840
  0.282000, 20.631990
  0.284000, 19.502460
  0.286000, 18.451810
  0.288000, 17.486900
  0.290000, 16.614420
  0.292000, 15.802830
  0.294000, 15.039490
  0.296000, 14.309470
  0.298000, 13.582020
  0.300000, 12.870560
  0.302000, 12.175450
  0.304000, 11.499150
  0.306000, 10.850320
  0.308000, 10.236710
  0.310000,  9.659320
  0.312000,  9.124420
  0.314000,  8.611780
  0.316000,  8.135550
  0.318000,  7.685090
  0.320000,  7.271850
  0.322000,  6.895520
  0.324000,  6.537440
  0.326000,  6.211670
  0.328000,  5.900430
  0.330000,  5.607520
  0.332000,  5.318480
  0.334000,  5.031600
  0.336000,  4.750460
  0.338000,  4.480670
  0.340000,  4.233960
  0.342000,  4.017640
  0.344000,  3.825740
  0.346000,  3.659440
  0.348000,  3.498500
  0.350000,  3.323160
  0.352000,  3.140460
  0.354000,  2.957030
  0.356000,  2.778310
  0.358000,  2.608810
  0.360000,  2.458140
  0.362000,  2.329720
  0.364000,  2.193710
  0.366000,  2.035670
  0.368000,  1.846540
  0.370000,  1.617050
  0.372000,  1.380520
  0.374000,  1.127530
  0.376000,  0.908200
  0.378000,  0.720010
  0.380000,  0.567220
  0.382000,  0.437310
  0.384000,  0.310670
  0.386000,  0.157130
  0.388000, -0.041420
  0.390000, -0.278630
  0.392000, -0.563180
  0.394000, -0.872960
  0.396000, -1.190450
  0.398000, -1.495300
  0.400000, -1.778150
  0.402000, -2.030390
  0.404000, -2.245640
  0.406000, -2.442440
  0.408000, -2.612450
  0.410000, -2.792170
  0.412000, -2.966690
  0.414000, -3.150480
  0.416000, -3.347070
  0.418000, -3.539650
  0.420000, -3.726990
  0.422000, -3.901260
  0.424000, -4.051260
  0.426000, -4.177800
  0.428000, -4.295210
  0.430000, -4.400990
  0.432000, -4.511160
  0.434000, -4.632770
  0.436000, -4.768030
  0.438000, -4.914540
  0.440000, -5.070670
  0.442000, -5.210500
  0.444000, -5.338730
  0.446000, -5.442920
  0.448000, -5.506600
  0.450000, -5.553280
  0.452000, -5.577040
  0.454000, -5.595680
  0.456000, -5.606110
  0.458000, -5.628210
  0.460000, -5.655960
  0.462000, -5.696430
  0.464000, -5.745020
  0.466000, -5.797140
  0.468000, -5.847380
  0.470000, -5.887210
  0.472000, -5.914240
  0.474000, -5.936640
  0.476000, -5.953410
  0.478000, -5.956160
  0.480000, -5.945040
  0.482000, -5.930530
  0.484000, -5.906980
  0.486000, -5.882390
  0.488000, -5.853960
  0.490000, -5.817260
  0.492000, -5.785740
  0.494000, -5.752010
  0.496000, -5.720220
  0.498000, -5.691760
  0.500000, -5.661490
  0.502000, -5.639830
  0.504000, -5.612910
  0.506000, -5.586590
  0.508000, -5.558900
  0.510000, -5.513770
  0.512000, -5.458440
  0.514000, -5.387460
  0.516000, -5.305930
  0.518000, -5.214330
  0.520000, -5.115520
  0.522000, -5.018650
  0.524000, -4.929530
  0.526000, -4.846140
  0.528000, -4.769550
  0.530000, -4.702420
  0.532000, -4.642800
  0.534000, -4.592860
  0.536000, -4.543800
  0.538000, -4.487190
  0.540000, -4.419400
  0.542000, -4.348810
  0.544000, -4.265590
  0.546000, -4.175160
  0.548000, -4.078760
  0.550000, -3.988270
  0.552000, -3.897200
  0.554000, -3.804060
  0.556000, -3.715220
  0.558000, -3.622860
  0.560000, -3.529080
  0.562000, -3.437290
  0.564000, -3.346310
  0.566000, -3.254020
  0.568000, -3.163300
  0.570000, -3.069410
  0.572000, -2.985040
  0.574000, -2.897500
  0.576000, -2.818990
  0.578000, -2.734960
  0.580000, -2.651610
  0.582000, -2.565050
  0.584000, -2.475710
  0.586000, -2.377360
  0.588000, -2.272310
  0.590000, -2.171770
  0.592000, -2.064130
  0.594000, -1.968660
  0.596000, -1.888660
  0.598000, -1.825470
  0.600000, -1.773320
  0.602000, -1.734110
  0.604000, -1.700910
  0.606000, -1.660660
  0.608000, -1.603600
  0.610000, -1.526970
  0.612000, -1.432630
  0.614000, -1.328690
  0.616000, -1.230600
  0.618000, -1.144280
  0.620000, -1.066060
  0.622000, -1.007860
  0.624000, -0.953860
  0.626000, -0.906830
  0.628000, -0.854380
  0.630000, -0.801460
  0.632000, -0.750770
  0.634000, -0.696150
  0.636000, -0.641690
  0.638000, -0.586010
  0.640000, -0.537420
  0.642000, -0.491520
  0.644000, -0.457290
  0.646000, -0.414160
  0.648000, -0.388160
  0.650000, -0.362190
  0.652000, -0.343180
  0.654000, -0.326240
  0.656000, -0.309300
  0.658000, -0.289130
  0.660000, -0.269170
  0.662000, -0.242260
  0.664000, -0.211690
  0.666000, -0.184250
  0.668000, -0.151570
  0.670000, -0.128610
  0.672000, -0.109440
  0.674000, -0.107870
  0.676000, -0.116150
  0.678000, -0.137490
  0.680000, -0.162530
  0.682000, -0.195820
  0.684000, -0.229690
  0.686000, -0.256620
  0.688000, -0.279200
  0.690000, -0.296710
  0.692000, -0.319890
  0.694000, -0.340770
  0.696000, -0.370020
  0.698000, -0.406510
  0.700000, -0.437080
  0.702000, -0.460180
  0.704000, -0.479010
  0.706000, -0.481480
  0.708000, -0.475080
  0.710000, -0.462020
  0.712000, -0.448100
  0.714000, -0.436100
  0.716000, -0.421510
  0.718000, -0.411150
  0.720000, -0.401030
  0.722000, -0.388090
  0.724000, -0.376740
  0.726000, -0.370050
  0.728000, -0.363470
  0.730000, -0.365380
  0.732000, -0.364570
  0.734000, -0.369630
  0.736000, -0.379820
  0.738000, -0.393180
  0.740000, -0.414280
  0.742000, -0.433020
  0.744000, -0.453140
  0.746000, -0.466810
  0.748000, -0.467610
  0.750000, -0.467460
  0.752000, -0.451600
  0.754000, -0.428880
  0.756000, -0.399790
  0.758000, -0.371810
  0.760000, -0.355970
  0.762000, -0.350700
  0.764000, -0.353070
  0.766000, -0.369230
  0.768000, -0.390780
  0.770000, -0.424920
  0.772000, -0.459710
  0.774000, -0.488740
  0.776000, -0.515680
  0.778000, -0.532290
  0.780000, -0.537400
  0.782000, -0.531900
  0.784000, -0.515730
  0.786000, -0.493850
  0.788000, -0.469040
  0.790000, -0.436000
  0.792000, -0.397200
  0.794000, -0.368790
  0.796000, -0.340670
  0.798000, -0.313450
  0.800000, -0.295420
  0.802000, -0.281710
  0.804000, -0.266520
  0.806000, -0.256250
  0.808000, -0.237460
  0.810000, -0.227010
  0.812000, -0.215400
  0.814000, -0.204510
  0.816000, -0.190670
  0.818000, -0.174540
  0.820000, -0.152020
  0.822000, -0.134230
  0.824000, -0.123130
  0.826000, -0.111080
  0.828000, -0.100070
  0.830000, -0.088680
  0.832000, -0.077560
  0.834000, -0.066870
  0.836000, -0.052120
  0.838000, -0.032000
  0.840000, -0.018790
  0.842000,  0.003420
  0.844000,  0.028580
  0.846000,  0.063880
  0.848000,  0.098100
  0.850000,  0.135500
  0.852000,  0.169090
  0.854000,  0.192200
  0.856000,  0.217220
  0.858000,  0.230620
  0.860000,  0.235610
  0.862000,  0.241990
  0.864000,  0.242250
  0.866000,  0.240660
  0.868000,  0.239540
  0.870000,  0.238890
  0.872000,  0.244880
  0.874000,  0.240820
  0.876000,  0.237250
  0.878000,  0.230450
  0.880000,  0.217110
  0.882000,  0.201030
  0.884000,  0.175890
  0.886000,  0.152550
  0.888000,  0.124910
  0.890000,  0.098720
  0.892000,  0.074860
  0.894000,  0.059730
  0.896000,  0.059890
  0.898000,  0.067010
  0.900000,  0.084560
  0.902000,  0.116460
  0.904000,  0.150700
  0.906000,  0.181570
  0.908000,  0.220880
  0.910000,  0.247390
  0.912000,  0.273990
  0.914000,  0.285520
  0.916000,  0.277820
  0.918000,  0.262270
  0.920000,  0.236050
  0.922000,  0.202020
  0.924000,  0.169660
  0.926000,  0.145780
  0.928000,  0.124050
  0.930000,  0.111200
  0.932000,  0.105920
  0.934000,  0.105810
  0.936000,  0.097590
  0.938000,  0.090680
  0.940000,  0.070870
  0.942000,  0.053330
  0.944000,  0.044810
  0.946000,  0.041470
  0.948000,  0.045360
  0.950000,  0.051650
  0.952000,  0.062650
  0.954000,  0.066900
  0.956000,  0.050410
  0.958000,  0.031830
  0.960000, -0.003250
  0.962000, -0.039330
  0.964000, -0.077610
  0.966000, -0.112300
  0.968000, -0.136260
  0.970000, -0.153710
  0.972000, -0.160410
  0.974000, -0.160160
  0.976000, -0.158370
  0.978000, -0.158190
  0.980000, -0.168330
  0.982000, -0.175250
  0.984000, -0.188600
  0.986000, -0.200990
  0.988000, -0.221630
  0.990000, -0.241870
  0.992000, -0.269330
  0.994000, -0.293950
  0.996000, -0.315720
  0.998000, -0.337790
  1.000000, -0.351570
