# z (nm)   (kJ/mol)
  0.048000,279.183530
  0.050000,275.336970
  0.052000,272.313110
  0.054000,269.639890
  0.056000,267.107340
  0.058000,264.481950
  0.060000,261.765910
  0.062000,259.112840
  0.064000,256.461840
  0.066000,253.750920
  0.068000,250.980490
  0.070000,248.148160
  0.072000,245.237690
  0.074000,242.233050
  0.076000,239.139630
  0.078000,235.941190
  0.080000,232.638060
  0.082000,229.232430
  0.084000,225.718320
  0.086000,222.104660
  0.088000,218.401460
  0.090000,214.619340
  0.092000,210.778280
  0.094000,206.902480
  0.096000,203.011190
  0.098000,199.126370
  0.100000,195.253240
  0.102000,191.396830
  0.104000,187.557990
  0.106000,183.723970
  0.108000,179.901940
  0.110000,176.082030
  0.112000,172.279250
  0.114000,168.497820
  0.116000,164.752390
  0.118000,161.060660
  0.120000,157.440640
  0.122000,153.903690
  0.124000,150.459530
  0.126000,147.112780
  0.128000,143.866010
  0.130000,140.713890
  0.132000,137.651160
  0.134000,134.651390
  0.136000,131.690770
  0.138000,128.742520
  0.140000,125.776620
  0.142000,122.775330
  0.144000,119.736160
  0.146000,116.666740
  0.148000,113.598070
  0.150000,110.563170
  0.152000,107.591600
  0.154000,104.703910
  0.156000,101.904810
  0.158000, 99.189620
  0.160000, 96.538380
  0.162000, 93.925630
  0.164000, 91.340220
  0.166000, 88.764400
  0.168000, 86.194120
  0.170000, 83.629780
  0.172000, 81.081800
  0.174000, 78.551060
  0.176000, 76.049710
  0.178000, 73.601500
  0.180000, 71.214660
  0.182000, 68.902400
  0.184000, 66.678510
  0.186000, 64.527240
  0.188000, 62.448480
  0.190000, 60.413740
  0.192000, 58.385390
  0.194000, 56.363910
  0.196000, 54.322100
  0.198000, 52.266680
  0.200000, 50.210890
  0.202000, 48.174660
  0.204000, 46.184930
  0.206000, 44.267830
  0.208000, 42.443490
  0.210000, 40.720790
  0.212000, 39.076780
  0.214000, 37.496730
  0.216000, 35.958350
  0.218000, 34.437660
  0.220000, 32.910580
  0.222000, 31.376270
  0.224000, 29.845400
  0.226000, 28.333010
  0.228000, 26.853980
  0.230000, 25.417270
  0.232000, 24.038410
  0.234000, 22.719270
  0.236000, 21.457840
  0.238000, 20.238370
  0.240000, 19.072960
  0.242000, 17.949970
  0.244000, 16.863190
  0.246000, 15.810430
  0.248000, 14.797050
  0.250000, 13.815400
  0.252000, 12.872670
  0.254000, 11.972330
  0.256000, 11.094730
  0.258000, 10.265070
  0.260000,  9.464350
  0.262000,  8.690610
  0.264000,  7.954120
  0.266000,  7.248510
  0.268000,  6.566090
  0.270000,  5.908060
  0.272000,  5.281510
  0.274000,  4.667810
  0.276000,  4.081120
  0.278000,  3.516570
  0.280000,  2.976560
  0.282000,  2.471940
  0.284000,  1.994350
  0.286000,  1.553620
  0.288000,  1.139760
  0.290000,  0.769290
  0.292000,  0.427480
  0.294000,  0.113540
  0.296000, -0.175040
  0.298000, -0.441580
  0.300000, -0.697330
  0.302000, -0.937160
  0.304000, -1.163650
  0.306000, -1.379660
  0.308000, -1.580020
  0.310000, -1.764580
  0.312000, -1.916090
  0.314000, -2.060890
  0.316000, -2.179870
  0.318000, -2.276000
  0.320000, -2.353380
  0.322000, -2.421030
  0.324000, -2.469830
  0.326000, -2.520430
  0.328000, -2.562140
  0.330000, -2.604500
  0.332000, -2.650280
  0.334000, -2.701630
  0.336000, -2.749800
  0.338000, -2.789250
  0.340000, -2.833510
  0.342000, -2.872510
  0.344000, -2.908400
  0.346000, -2.926170
  0.348000, -2.936680
  0.350000, -2.937580
  0.352000, -2.934090
  0.354000, -2.926800
  0.356000, -2.918900
  0.358000, -2.914320
  0.360000, -2.931110
  0.362000, -2.954660
  0.364000, -2.992370
  0.366000, -3.034190
  0.368000, -3.086910
  0.370000, -3.146030
  0.372000, -3.197380
  0.374000, -3.250480
  0.376000, -3.280920
  0.378000, -3.307860
  0.380000, -3.314610
  0.382000, -3.306750
  0.384000, -3.276100
  0.386000, -3.231830
  0.388000, -3.172980
  0.390000, -3.104870
  0.392000, -3.027740
  0.394000, -2.943020
  0.396000, -2.865790
  0.398000, -2.789820
  0.400000, -2.711350
  0.402000, -2.631450
  0.404000, -2.556010
  0.406000, -2.479970
  0.408000, -2.418570
  0.410000, -2.352540
  0.412000, -2.276800
  0.414000, -2.196300
  0.416000, -2.109940
  0.418000, -2.020490
  0.420000, -1.918460
  0.422000, -1.811790
  0.424000, -1.691900
  0.426000, -1.570410
  0.428000, -1.439370
  0.430000, -1.306650
  0.432000, -1.176190
  0.434000, -1.050300
  0.436000, -0.935450
  0.438000, -0.822280
  0.440000, -0.716140
  0.442000, -0.615840
  0.444000, -0.526090
  0.446000, -0.448550
  0.448000, -0.379150
  0.450000, -0.316100
  0.452000, -0.258360
  0.454000, -0.210630
  0.456000, -0.166940
  0.458000, -0.131930
  0.460000, -0.105540
  0.462000, -0.077460
  0.464000, -0.055750
  0.466000, -0.030150
  0.468000, -0.001980
  0.470000,  0.024820
  0.472000,  0.049960
  0.474000,  0.081980
  0.476000,  0.118450
  0.478000,  0.153090
  0.480000,  0.186020
  0.482000,  0.224970
  0.484000,  0.256490
  0.486000,  0.286230
  0.488000,  0.305120
  0.490000,  0.315970
  0.492000,  0.327430
  0.494000,  0.329990
  0.496000,  0.322610
  0.498000,  0.311580
  0.500000,  0.295510
  0.502000,  0.273990
  0.504000,  0.247140
  0.506000,  0.215830
  0.508000,  0.185730
  0.510000,  0.149700
  0.512000,  0.118390
  0.514000,  0.084990
  0.516000,  0.051470
  0.518000,  0.023590
  0.520000, -0.000800
  0.522000, -0.023280
  0.524000, -0.045510
  0.526000, -0.066230
  0.528000, -0.086820
  0.530000, -0.104280
  0.532000, -0.117960
  0.534000, -0.134610
  0.536000, -0.145280
  0.538000, -0.159300
  0.540000, -0.176520
  0.542000, -0.203500
  0.544000, -0.226690
  0.546000, -0.255630
  0.548000, -0.284410
  0.550000, -0.318920
  0.552000, -0.353030
  0.554000, -0.384810
  0.556000, -0.417100
  0.558000, -0.451160
  0.560000, -0.478210
  0.562000, -0.501660
  0.564000, -0.524120
  0.566000, -0.535200
  0.568000, -0.544360
  0.570000, -0.552270
  0.572000, -0.556730
  0.574000, -0.561190
  0.576000, -0.565360
  0.578000, -0.568820
  0.580000, -0.574990
  0.582000, -0.578670
  0.584000, -0.589350
  0.586000, -0.597680
  0.588000, -0.606440
  0.590000, -0.609620
  0.592000, -0.615530
  0.594000, -0.615160
  0.596000, -0.606830
  0.598000, -0.591500
  0.600000, -0.578590
  0.602000, -0.562480
  0.604000, -0.540830
  0.606000, -0.518180
  0.608000, -0.500310
  0.610000, -0.472110
  0.612000, -0.444470
  0.614000, -0.416250
  0.616000, -0.401250
  0.618000, -0.376250
  0.620000, -0.360170
  0.622000, -0.348380
  0.624000, -0.338690
  0.626000, -0.326410
  0.628000, -0.309670
  0.630000, -0.297190
  0.632000, -0.280630
  0.634000, -0.261850
  0.636000, -0.245020
  0.638000, -0.224210
  0.640000, -0.203180
  0.642000, -0.182840
  0.644000, -0.159780
  0.646000, -0.144980
  0.648000, -0.117390
  0.650000, -0.102420
  0.652000, -0.082860
  0.654000, -0.063310
  0.656000, -0.045660
  0.658000, -0.032420
  0.660000, -0.016120
  0.662000, -0.006730
  0.664000,  0.003360
  0.666000,  0.019280
  0.668000,  0.036320
  0.670000,  0.052500
  0.672000,  0.061540
  0.674000,  0.077260
  0.676000,  0.097560
  0.678000,  0.117890
  0.680000,  0.136690
  0.682000,  0.160690
  0.684000,  0.181400
  0.686000,  0.198970
  0.688000,  0.219680
  0.690000,  0.241640
  0.692000,  0.262830
  0.694000,  0.279050
  0.696000,  0.296950
  0.698000,  0.312690
  0.700000,  0.329670
  0.702000,  0.344520
  0.704000,  0.356360
  0.706000,  0.364300
  0.708000,  0.373230
  0.710000,  0.376710
  0.712000,  0.377070
  0.714000,  0.367740
  0.716000,  0.361330
  0.718000,  0.362260
  0.720000,  0.355060
  0.722000,  0.344650
  0.724000,  0.334800
  0.726000,  0.334430
  0.728000,  0.335790
  0.730000,  0.336380
  0.732000,  0.343520
  0.734000,  0.351640
  0.736000,  0.357680
  0.738000,  0.369570
  0.740000,  0.385360
  0.742000,  0.393140
  0.744000,  0.402080
  0.746000,  0.411070
  0.748000,  0.418860
  0.750000,  0.425970
  0.752000,  0.430440
  0.754000,  0.433200
  0.756000,  0.435430
  0.758000,  0.441750
  0.760000,  0.448000
  0.762000,  0.455730
  0.764000,  0.460200
  0.766000,  0.465990
  0.768000,  0.463540
  0.770000,  0.464110
  0.772000,  0.468120
  0.774000,  0.473150
  0.776000,  0.476790
  0.778000,  0.482200
  0.780000,  0.488440
  0.782000,  0.493710
  0.784000,  0.497920
  0.786000,  0.499420
  0.788000,  0.504120
  0.790000,  0.502300
  0.792000,  0.503530
  0.794000,  0.501660
  0.796000,  0.503390
  0.798000,  0.504060
  0.800000,  0.505500
  0.802000,  0.505370
  0.804000,  0.506060
  0.806000,  0.510790
  0.808000,  0.512450
  0.810000,  0.513630
  0.812000,  0.516040
  0.814000,  0.524150
  0.816000,  0.524220
  0.818000,  0.523310
  0.820000,  0.516420
  0.822000,  0.511310
  0.824000,  0.501580
  0.826000,  0.488870
  0.828000,  0.470490
  0.830000,  0.449770
  0.832000,  0.427580
  0.834000,  0.404260
  0.836000,  0.384260
  0.838000,  0.362830
  0.840000,  0.349300
  0.842000,  0.335680
  0.844000,  0.322020
  0.846000,  0.312690
  0.848000,  0.312340
  0.850000,  0.307930
  0.852000,  0.303700
  0.854000,  0.300160
  0.856000,  0.293930
  0.858000,  0.284860
  0.860000,  0.275290
  0.862000,  0.263650
  0.864000,  0.249010
  0.866000,  0.235840
  0.868000,  0.221710
  0.870000,  0.208090
  0.872000,  0.195060
  0.874000,  0.187880
  0.876000,  0.181630
  0.878000,  0.176270
  0.880000,  0.171800
  0.882000,  0.171600
  0.884000,  0.166910
  0.886000,  0.165530
  0.888000,  0.169730
  0.890000,  0.167260
  0.892000,  0.160090
  0.894000,  0.156000
  0.896000,  0.149780
  0.898000,  0.144490
  0.900000,  0.140210
  0.902000,  0.129300
  0.904000,  0.120060
  0.906000,  0.108780
  0.908000,  0.099910
  0.910000,  0.088140
  0.912000,  0.073300
  0.914000,  0.055610
  0.916000,  0.037360
  0.918000,  0.021690
  0.920000,  0.009010
  0.922000, -0.000920
  0.924000, -0.008680
  0.926000, -0.016800
  0.928000, -0.025570
  0.930000, -0.030390
  0.932000, -0.039290
  0.934000, -0.043900
  0.936000, -0.044970
  0.938000, -0.051120
  0.940000, -0.051130
  0.942000, -0.052170
  0.944000, -0.048160
  0.946000, -0.045390
  0.948000, -0.042270
  0.950000, -0.034650
  0.952000, -0.027700
  0.954000, -0.024840
  0.956000, -0.021600
  0.958000, -0.019800
  0.960000, -0.020170
  0.962000, -0.020080
  0.964000, -0.026210
  0.966000, -0.030170
  0.968000, -0.036340
  0.970000, -0.037630
  0.972000, -0.040480
  0.974000, -0.041870
  0.976000, -0.040100
  0.978000, -0.042010
  0.980000, -0.037000
  0.982000, -0.027950
  0.984000, -0.017140
  0.986000, -0.004490
  0.988000,  0.008670
  0.990000,  0.019400
  0.992000,  0.036070
  0.994000,  0.045220
  0.996000,  0.057810
  0.998000,  0.068590
  1.000000,  0.072050
