# z (nm)   (kJ/mol)
  0.126000,266.449880
  0.128000,264.202880
  0.130000,261.985850
  0.132000,258.442390
  0.134000,255.851340
  0.136000,253.283540
  0.138000,250.778860
  0.140000,248.319890
  0.142000,245.801020
  0.144000,243.205830
  0.146000,240.521370
  0.148000,237.741140
  0.150000,234.837530
  0.152000,231.803460
  0.154000,228.610280
  0.156000,225.251190
  0.158000,221.699690
  0.160000,217.936070
  0.162000,213.945450
  0.164000,209.719990
  0.166000,205.269550
  0.168000,200.626580
  0.170000,195.840680
  0.172000,190.969120
  0.174000,186.063320
  0.176000,181.175400
  0.178000,176.338880
  0.180000,171.578000
  0.182000,166.920080
  0.184000,162.381150
  0.186000,157.950740
  0.188000,153.617340
  0.190000,149.372270
  0.192000,145.213290
  0.194000,141.154280
  0.196000,137.210020
  0.198000,133.378980
  0.200000,129.638590
  0.202000,125.977680
  0.204000,122.368120
  0.206000,118.799480
  0.208000,115.266700
  0.210000,111.772810
  0.212000,108.310920
  0.214000,104.887750
  0.216000,101.522300
  0.218000, 98.260320
  0.220000, 95.130220
  0.222000, 92.121570
  0.224000, 89.153050
  0.226000, 86.142040
  0.228000, 83.051570
  0.230000, 79.927240
  0.232000, 76.856220
  0.234000, 73.922390
  0.236000, 71.154960
  0.238000, 68.538620
  0.240000, 66.037300
  0.242000, 63.613430
  0.244000, 61.223190
  0.246000, 58.855010
  0.248000, 56.491870
  0.250000, 54.120840
  0.252000, 51.764740
  0.254000, 49.459890
  0.256000, 47.248360
  0.258000, 45.157530
  0.260000, 43.200500
  0.262000, 41.344190
  0.264000, 39.565680
  0.266000, 37.822660
  0.268000, 36.094990
  0.270000, 34.398810
  0.272000, 32.717610
  0.274000, 31.095120
  0.276000, 29.536120
  0.278000, 28.059870
  0.280000, 26.673630
  0.282000, 25.378900
  0.284000, 24.179780
  0.286000, 23.041970
  0.288000, 21.962880
  0.290000, 20.918210
  0.292000, 19.887170
  0.294000, 18.859510
  0.296000, 17.838040
  0.298000, 16.831810
  0.300000, 15.872430
  0.302000, 14.960360
  0.304000, 14.118120
  0.306000, 13.352680
  0.308000, 12.649490
  0.310000, 11.977200
  0.312000, 11.303620
  0.314000, 10.596330
  0.316000,  9.845870
  0.318000,  9.063060
  0.320000,  8.268430
  0.322000,  7.501550
  0.324000,  6.783600
  0.326000,  6.125310
  0.328000,  5.520620
  0.330000,  4.953890
  0.332000,  4.393620
  0.334000,  3.840670
  0.336000,  3.285080
  0.338000,  2.742450
  0.340000,  2.207200
  0.342000,  1.689590
  0.344000,  1.182930
  0.346000,  0.691140
  0.348000,  0.222950
  0.350000, -0.195660
  0.352000, -0.568940
  0.354000, -0.880710
  0.356000, -1.141100
  0.358000, -1.354660
  0.360000, -1.553640
  0.362000, -1.732080
  0.364000, -1.912260
  0.366000, -2.081250
  0.368000, -2.236370
  0.370000, -2.382030
  0.372000, -2.515910
  0.374000, -2.622420
  0.376000, -2.715320
  0.378000, -2.800710
  0.380000, -2.870620
  0.382000, -2.936260
  0.384000, -3.019550
  0.386000, -3.127670
  0.388000, -3.256820
  0.390000, -3.415630
  0.392000, -3.575910
  0.394000, -3.723250
  0.396000, -3.858030
  0.398000, -3.985390
  0.400000, -4.117760
  0.402000, -4.268120
  0.404000, -4.442580
  0.406000, -4.633710
  0.408000, -4.843240
  0.410000, -5.064990
  0.412000, -5.295040
  0.414000, -5.527970
  0.416000, -5.737950
  0.418000, -5.917700
  0.420000, -6.067050
  0.422000, -6.203170
  0.424000, -6.334230
  0.426000, -6.478150
  0.428000, -6.643210
  0.430000, -6.838780
  0.432000, -7.057590
  0.434000, -7.278830
  0.436000, -7.493530
  0.438000, -7.686810
  0.440000, -7.845210
  0.442000, -7.972250
  0.444000, -8.072810
  0.446000, -8.158440
  0.448000, -8.228270
  0.450000, -8.288680
  0.452000, -8.350060
  0.454000, -8.402860
  0.456000, -8.458490
  0.458000, -8.509970
  0.460000, -8.563870
  0.462000, -8.617070
  0.464000, -8.668720
  0.466000, -8.714230
  0.468000, -8.747240
  0.470000, -8.754740
  0.472000, -8.733860
  0.474000, -8.688110
  0.476000, -8.626060
  0.478000, -8.559650
  0.480000, -8.499020
  0.482000, -8.469950
  0.484000, -8.462320
  0.486000, -8.468930
  0.488000, -8.495240
  0.490000, -8.528100
  0.492000, -8.562200
  0.494000, -8.582040
  0.496000, -8.585120
  0.498000, -8.556670
  0.500000, -8.497240
  0.502000, -8.414610
  0.504000, -8.306880
  0.506000, -8.184940
  0.508000, -8.072640
  0.510000, -7.983330
  0.512000, -7.909820
  0.514000, -7.854630
  0.516000, -7.806520
  0.518000, -7.745390
  0.520000, -7.655990
  0.522000, -7.529860
  0.524000, -7.381970
  0.526000, -7.208820
  0.528000, -7.027060
  0.530000, -6.850780
  0.532000, -6.709310
  0.534000, -6.615680
  0.536000, -6.549930
  0.538000, -6.490840
  0.540000, -6.413260
  0.542000, -6.320420
  0.544000, -6.257130
  0.546000, -6.248050
  0.548000, -6.222900
  0.550000, -6.108570
  0.552000, -5.889800
  0.554000, -5.667620
  0.556000, -5.519570
  0.558000, -5.476840
  0.560000, -5.493950
  0.562000, -5.535450
  0.564000, -5.576670
  0.566000, -5.597560
  0.568000, -5.588020
  0.570000, -5.526680
  0.572000, -5.432570
  0.574000, -5.315310
  0.576000, -5.185040
  0.578000, -5.049090
  0.580000, -4.934860
  0.582000, -4.837260
  0.584000, -4.769180
  0.586000, -4.725750
  0.588000, -4.699320
  0.590000, -4.683860
  0.592000, -4.666530
  0.594000, -4.648440
  0.596000, -4.616260
  0.598000, -4.562070
  0.600000, -4.483810
  0.602000, -4.395670
  0.604000, -4.289860
  0.606000, -4.173410
  0.608000, -4.055390
  0.610000, -3.941040
  0.612000, -3.832090
  0.614000, -3.726220
  0.616000, -3.617040
  0.618000, -3.525450
  0.620000, -3.438810
  0.622000, -3.351320
  0.624000, -3.273740
  0.626000, -3.208780
  0.628000, -3.143850
  0.630000, -3.073810
  0.632000, -2.994760
  0.634000, -2.907260
  0.636000, -2.808310
  0.638000, -2.694560
  0.640000, -2.563410
  0.642000, -2.432960
  0.644000, -2.298090
  0.646000, -2.166100
  0.648000, -2.043340
  0.650000, -1.928070
  0.652000, -1.828440
  0.654000, -1.744200
  0.656000, -1.674000
  0.658000, -1.610320
  0.660000, -1.548100
  0.662000, -1.489220
  0.664000, -1.430010
  0.666000, -1.381250
  0.668000, -1.334680
  0.670000, -1.293040
  0.672000, -1.242910
  0.674000, -1.200110
  0.676000, -1.156180
  0.678000, -1.112700
  0.680000, -1.057600
  0.682000, -1.006760
  0.684000, -0.950020
  0.686000, -0.889270
  0.688000, -0.838020
  0.690000, -0.791960
  0.692000, -0.761340
  0.694000, -0.735500
  0.696000, -0.718460
  0.698000, -0.708030
  0.700000, -0.715130
  0.702000, -0.725450
  0.704000, -0.729380
  0.706000, -0.731770
  0.708000, -0.724790
  0.710000, -0.714490
  0.712000, -0.705080
  0.714000, -0.695370
  0.716000, -0.689600
  0.718000, -0.690370
  0.720000, -0.700260
  0.722000, -0.712840
  0.724000, -0.738540
  0.726000, -0.759690
  0.728000, -0.778170
  0.730000, -0.799450
  0.732000, -0.816650
  0.734000, -0.825310
  0.736000, -0.826290
  0.738000, -0.817870
  0.740000, -0.802290
  0.742000, -0.786360
  0.744000, -0.767620
  0.746000, -0.755150
  0.748000, -0.736270
  0.750000, -0.722230
  0.752000, -0.710720
  0.754000, -0.705140
  0.756000, -0.702750
  0.758000, -0.704950
  0.760000, -0.711930
  0.762000, -0.712810
  0.764000, -0.711370
  0.766000, -0.717210
  0.768000, -0.712940
  0.770000, -0.702630
  0.772000, -0.689160
  0.774000, -0.662760
  0.776000, -0.634450
  0.778000, -0.602440
  0.780000, -0.570940
  0.782000, -0.544670
  0.784000, -0.510370
  0.786000, -0.493050
  0.788000, -0.479520
  0.790000, -0.465350
  0.792000, -0.457260
  0.794000, -0.450930
  0.796000, -0.449380
  0.798000, -0.455080
  0.800000, -0.470350
  0.802000, -0.496180
  0.804000, -0.522730
  0.806000, -0.544850
  0.808000, -0.549970
  0.810000, -0.544870
  0.812000, -0.524300
  0.814000, -0.492010
  0.816000, -0.452880
  0.818000, -0.405270
  0.820000, -0.355140
  0.822000, -0.313890
  0.824000, -0.274950
  0.826000, -0.243680
  0.828000, -0.222560
  0.830000, -0.212680
  0.832000, -0.212590
  0.834000, -0.235100
  0.836000, -0.262570
  0.838000, -0.298850
  0.840000, -0.335420
  0.842000, -0.375180
  0.844000, -0.395560
  0.846000, -0.408150
  0.848000, -0.399380
  0.850000, -0.374280
  0.852000, -0.339350
  0.854000, -0.298530
  0.856000, -0.255240
  0.858000, -0.218270
  0.860000, -0.182310
  0.862000, -0.160390
  0.864000, -0.143080
  0.866000, -0.132920
  0.868000, -0.121910
  0.870000, -0.116950
  0.872000, -0.109000
  0.874000, -0.100630
  0.876000, -0.089380
  0.878000, -0.078170
  0.880000, -0.075540
  0.882000, -0.066840
  0.884000, -0.060990
  0.886000, -0.063890
  0.888000, -0.070330
  0.890000, -0.082670
  0.892000, -0.102050
  0.894000, -0.119410
  0.896000, -0.138020
  0.898000, -0.156170
  0.900000, -0.169260
  0.902000, -0.179000
  0.904000, -0.177410
  0.906000, -0.166730
  0.908000, -0.148240
  0.910000, -0.133510
  0.912000, -0.123060
  0.914000, -0.112780
  0.916000, -0.112380
  0.918000, -0.127540
  0.920000, -0.132720
  0.922000, -0.133160
  0.924000, -0.140020
  0.926000, -0.136060
  0.928000, -0.124040
  0.930000, -0.105310
  0.932000, -0.079990
  0.934000, -0.043020
  0.936000, -0.009980
  0.938000,  0.021830
  0.940000,  0.053590
  0.942000,  0.081950
  0.944000,  0.103790
  0.946000,  0.122610
  0.948000,  0.135250
  0.950000,  0.142910
  0.952000,  0.147310
  0.954000,  0.153220
  0.956000,  0.152180
  0.958000,  0.151650
  0.960000,  0.150420
  0.962000,  0.146130
  0.964000,  0.131360
  0.966000,  0.107030
  0.968000,  0.083430
  0.970000,  0.059360
  0.972000,  0.033150
  0.974000,  0.011720
  0.976000, -0.004450
  0.978000, -0.012080
  0.980000, -0.015990
  0.982000, -0.023940
  0.984000, -0.017480
  0.986000, -0.016000
  0.988000, -0.009900
  0.990000,  0.005460
  0.992000,  0.026070
  0.994000,  0.043300
  0.996000,  0.064000
  0.998000,  0.074570
  1.000000,  0.082510
