# z (nm)   (kJ/mol)
  0.092000,253.516310
  0.094000,250.606060
  0.096000,248.353550
  0.098000,245.755160
  0.100000,243.318530
  0.102000,240.920110
  0.104000,238.638410
  0.106000,236.262220
  0.108000,233.890930
  0.110000,231.449240
  0.112000,228.919360
  0.114000,226.294780
  0.116000,223.557870
  0.118000,220.680760
  0.120000,217.642700
  0.122000,214.413310
  0.124000,210.960480
  0.126000,207.265210
  0.128000,203.329520
  0.130000,199.185160
  0.132000,194.895640
  0.134000,190.537310
  0.136000,186.176880
  0.138000,181.853370
  0.140000,177.577560
  0.142000,173.339660
  0.144000,169.108560
  0.146000,164.852760
  0.148000,160.565180
  0.150000,156.269140
  0.152000,152.031900
  0.154000,147.934120
  0.156000,144.025490
  0.158000,140.311860
  0.160000,136.748080
  0.162000,133.289330
  0.164000,129.885310
  0.166000,126.516440
  0.168000,123.190650
  0.170000,119.930460
  0.172000,116.746410
  0.174000,113.637680
  0.176000,110.585910
  0.178000,107.549970
  0.180000,104.492250
  0.182000,101.383290
  0.184000, 98.229660
  0.186000, 95.059060
  0.188000, 91.928030
  0.190000, 88.883150
  0.192000, 85.945240
  0.194000, 83.119520
  0.196000, 80.372310
  0.198000, 77.687550
  0.200000, 75.045710
  0.202000, 72.458510
  0.204000, 69.928560
  0.206000, 67.452410
  0.208000, 64.982030
  0.210000, 62.488080
  0.212000, 59.959710
  0.214000, 57.417420
  0.216000, 54.909610
  0.218000, 52.505040
  0.220000, 50.253370
  0.222000, 48.201100
  0.224000, 46.324390
  0.226000, 44.567720
  0.228000, 42.857070
  0.230000, 41.101770
  0.232000, 39.260040
  0.234000, 37.331070
  0.236000, 35.337050
  0.238000, 33.335280
  0.240000, 31.397860
  0.242000, 29.568580
  0.244000, 27.872540
  0.246000, 26.312820
  0.248000, 24.859200
  0.250000, 23.471290
  0.252000, 22.099160
  0.254000, 20.709300
  0.256000, 19.291990
  0.258000, 17.864270
  0.260000, 16.424080
  0.262000, 15.032440
  0.264000, 13.713870
  0.266000, 12.484100
  0.268000, 11.340370
  0.270000, 10.270640
  0.272000,  9.239900
  0.274000,  8.220480
  0.276000,  7.213980
  0.278000,  6.184300
  0.280000,  5.163120
  0.282000,  4.160500
  0.284000,  3.202730
  0.286000,  2.307980
  0.288000,  1.480840
  0.290000,  0.712370
  0.292000, -0.000210
  0.294000, -0.687350
  0.296000, -1.352250
  0.298000, -2.006720
  0.300000, -2.638800
  0.302000, -3.248600
  0.304000, -3.828110
  0.306000, -4.372240
  0.308000, -4.880030
  0.310000, -5.359690
  0.312000, -5.814200
  0.314000, -6.252600
  0.316000, -6.659090
  0.318000, -7.022150
  0.320000, -7.357050
  0.322000, -7.663600
  0.324000, -7.938810
  0.326000, -8.201850
  0.328000, -8.437850
  0.330000, -8.660560
  0.332000, -8.856260
  0.334000, -9.017020
  0.336000, -9.145310
  0.338000, -9.248590
  0.340000, -9.326900
  0.342000, -9.393460
  0.344000, -9.459840
  0.346000, -9.514710
  0.348000, -9.583810
  0.350000, -9.644950
  0.352000, -9.692420
  0.354000, -9.730180
  0.356000, -9.744300
  0.358000, -9.724900
  0.360000, -9.679380
  0.362000, -9.603630
  0.364000, -9.501970
  0.366000, -9.389260
  0.368000, -9.271760
  0.370000, -9.158950
  0.372000, -9.060580
  0.374000, -8.965100
  0.376000, -8.876750
  0.378000, -8.773780
  0.380000, -8.641990
  0.382000, -8.484150
  0.384000, -8.304740
  0.386000, -8.112590
  0.388000, -7.926850
  0.390000, -7.756850
  0.392000, -7.610770
  0.394000, -7.473930
  0.396000, -7.333200
  0.398000, -7.175110
  0.400000, -7.003830
  0.402000, -6.820250
  0.404000, -6.629830
  0.406000, -6.446170
  0.408000, -6.269480
  0.410000, -6.110500
  0.412000, -5.975430
  0.414000, -5.842320
  0.416000, -5.712420
  0.418000, -5.587180
  0.420000, -5.455930
  0.422000, -5.335380
  0.424000, -5.223460
  0.426000, -5.135930
  0.428000, -5.069780
  0.430000, -5.030820
  0.432000, -5.020990
  0.434000, -5.026350
  0.436000, -5.036110
  0.438000, -5.046510
  0.440000, -5.043440
  0.442000, -5.047400
  0.444000, -5.047120
  0.446000, -5.055840
  0.448000, -5.058580
  0.450000, -5.066800
  0.452000, -5.073700
  0.454000, -5.092890
  0.456000, -5.122200
  0.458000, -5.159250
  0.460000, -5.217600
  0.462000, -5.274430
  0.464000, -5.334360
  0.466000, -5.394780
  0.468000, -5.448730
  0.470000, -5.499490
  0.472000, -5.544860
  0.474000, -5.590780
  0.476000, -5.627350
  0.478000, -5.660960
  0.480000, -5.692760
  0.482000, -5.722380
  0.484000, -5.732900
  0.486000, -5.727210
  0.488000, -5.713620
  0.490000, -5.699080
  0.492000, -5.680030
  0.494000, -5.651970
  0.496000, -5.632460
  0.498000, -5.604890
  0.500000, -5.570450
  0.502000, -5.531640
  0.504000, -5.491820
  0.506000, -5.444270
  0.508000, -5.406710
  0.510000, -5.369930
  0.512000, -5.327850
  0.514000, -5.286890
  0.516000, -5.229720
  0.518000, -5.161030
  0.520000, -5.072460
  0.522000, -4.959870
  0.524000, -4.830970
  0.526000, -4.675400
  0.528000, -4.502950
  0.530000, -4.321640
  0.532000, -4.145580
  0.534000, -3.961860
  0.536000, -3.797350
  0.538000, -3.627840
  0.540000, -3.471480
  0.542000, -3.325190
  0.544000, -3.175390
  0.546000, -3.026850
  0.548000, -2.869600
  0.550000, -2.700030
  0.552000, -2.531870
  0.554000, -2.362910
  0.556000, -2.195370
  0.558000, -2.025650
  0.560000, -1.853240
  0.562000, -1.678440
  0.564000, -1.504140
  0.566000, -1.338260
  0.568000, -1.178450
  0.570000, -1.042200
  0.572000, -0.921060
  0.574000, -0.813130
  0.576000, -0.707730
  0.578000, -0.609460
  0.580000, -0.505420
  0.582000, -0.402650
  0.584000, -0.297430
  0.586000, -0.185150
  0.588000, -0.072600
  0.590000,  0.035300
  0.592000,  0.130020
  0.594000,  0.202920
  0.596000,  0.246410
  0.598000,  0.259830
  0.600000,  0.251860
  0.602000,  0.220690
  0.604000,  0.180140
  0.606000,  0.138610
  0.608000,  0.101200
  0.610000,  0.086100
  0.612000,  0.078890
  0.614000,  0.077030
  0.616000,  0.082260
  0.618000,  0.086590
  0.620000,  0.082160
  0.622000,  0.074290
  0.624000,  0.055300
  0.626000,  0.022260
  0.628000, -0.013620
  0.630000, -0.046260
  0.632000, -0.082080
  0.634000, -0.111260
  0.636000, -0.136110
  0.638000, -0.164260
  0.640000, -0.197390
  0.642000, -0.224360
  0.644000, -0.259070
  0.646000, -0.287180
  0.648000, -0.314650
  0.650000, -0.345150
  0.652000, -0.370980
  0.654000, -0.391780
  0.656000, -0.408400
  0.658000, -0.422930
  0.660000, -0.429690
  0.662000, -0.417480
  0.664000, -0.405540
  0.666000, -0.380740
  0.668000, -0.359410
  0.670000, -0.340710
  0.672000, -0.323040
  0.674000, -0.307020
  0.676000, -0.296460
  0.678000, -0.285560
  0.680000, -0.281560
  0.682000, -0.289980
  0.684000, -0.306320
  0.686000, -0.332800
  0.688000, -0.368600
  0.690000, -0.406090
  0.692000, -0.431800
  0.694000, -0.432470
  0.696000, -0.405080
  0.698000, -0.355130
  0.700000, -0.273920
  0.702000, -0.192480
  0.704000, -0.119260
  0.706000, -0.080950
  0.708000, -0.074780
  0.710000, -0.108870
  0.712000, -0.170450
  0.714000, -0.243600
  0.716000, -0.321210
  0.718000, -0.377800
  0.720000, -0.414070
  0.722000, -0.422970
  0.724000, -0.399820
  0.726000, -0.361390
  0.728000, -0.301610
  0.730000, -0.238930
  0.732000, -0.188740
  0.734000, -0.163260
  0.736000, -0.154830
  0.738000, -0.175320
  0.740000, -0.215670
  0.742000, -0.272620
  0.744000, -0.334910
  0.746000, -0.402240
  0.748000, -0.461050
  0.750000, -0.504120
  0.752000, -0.536760
  0.754000, -0.551310
  0.756000, -0.554500
  0.758000, -0.550090
  0.760000, -0.528270
  0.762000, -0.512960
  0.764000, -0.508320
  0.766000, -0.499690
  0.768000, -0.500340
  0.770000, -0.508940
  0.772000, -0.519350
  0.774000, -0.542070
  0.776000, -0.568020
  0.778000, -0.600190
  0.780000, -0.628490
  0.782000, -0.655280
  0.784000, -0.680180
  0.786000, -0.690490
  0.788000, -0.688850
  0.790000, -0.678180
  0.792000, -0.656980
  0.794000, -0.621800
  0.796000, -0.574700
  0.798000, -0.518570
  0.800000, -0.472940
  0.802000, -0.433580
  0.804000, -0.399980
  0.806000, -0.372310
  0.808000, -0.361200
  0.810000, -0.357080
  0.812000, -0.354170
  0.814000, -0.356610
  0.816000, -0.371320
  0.818000, -0.389760
  0.820000, -0.410170
  0.822000, -0.426780
  0.824000, -0.442130
  0.826000, -0.455140
  0.828000, -0.456040
  0.830000, -0.447360
  0.832000, -0.441690
  0.834000, -0.424900
  0.836000, -0.404720
  0.838000, -0.379450
  0.840000, -0.353200
  0.842000, -0.326560
  0.844000, -0.294330
  0.846000, -0.266800
  0.848000, -0.240410
  0.850000, -0.214530
  0.852000, -0.186620
  0.854000, -0.167570
  0.856000, -0.150100
  0.858000, -0.133350
  0.860000, -0.121090
  0.862000, -0.116230
  0.864000, -0.120820
  0.866000, -0.130190
  0.868000, -0.150770
  0.870000, -0.171940
  0.872000, -0.201310
  0.874000, -0.231040
  0.876000, -0.248730
  0.878000, -0.255940
  0.880000, -0.250320
  0.882000, -0.227040
  0.884000, -0.189060
  0.886000, -0.132810
  0.888000, -0.074550
  0.890000, -0.012770
  0.892000,  0.038170
  0.894000,  0.081260
  0.896000,  0.102490
  0.898000,  0.106140
  0.900000,  0.095460
  0.902000,  0.077120
  0.904000,  0.045230
  0.906000,  0.010740
  0.908000, -0.021780
  0.910000, -0.052210
  0.912000, -0.079890
  0.914000, -0.109130
  0.916000, -0.119430
  0.918000, -0.124730
  0.920000, -0.123590
  0.922000, -0.109840
  0.924000, -0.091780
  0.926000, -0.064040
  0.928000, -0.030130
  0.930000, -0.000060
  0.932000,  0.020840
  0.934000,  0.034760
  0.936000,  0.039170
  0.938000,  0.036200
  0.940000,  0.023810
  0.942000,  0.003750
  0.944000, -0.013630
  0.946000, -0.029150
  0.948000, -0.037500
  0.950000, -0.040560
  0.952000, -0.032420
  0.954000, -0.023900
  0.956000, -0.013050
  0.958000, -0.003060
  0.960000,  0.006670
  0.962000,  0.007110
  0.964000,  0.000420
  0.966000, -0.004510
  0.968000, -0.017840
  0.970000, -0.020570
  0.972000, -0.020450
  0.974000, -0.018420
  0.976000, -0.007610
  0.978000,  0.008600
  0.980000,  0.024060
  0.982000,  0.044420
  0.984000,  0.059780
  0.986000,  0.079760
  0.988000,  0.088710
  0.990000,  0.098580
  0.992000,  0.099980
  0.994000,  0.103150
  0.996000,  0.098330
  0.998000,  0.097680
  1.000000,  0.100460
