# z (nm)   (kJ/mol)
  0.064000,264.950900
  0.066000,262.667780
  0.068000,260.413530
  0.070000,257.754720
  0.072000,254.841550
  0.074000,252.518470
  0.076000,249.985350
  0.078000,247.557790
  0.080000,245.039050
  0.082000,242.495030
  0.084000,239.896550
  0.086000,237.198780
  0.088000,234.420640
  0.090000,231.540230
  0.092000,228.556230
  0.094000,225.460040
  0.096000,222.243520
  0.098000,218.908780
  0.100000,215.456300
  0.102000,211.891880
  0.104000,208.206080
  0.106000,204.417310
  0.108000,200.527410
  0.110000,196.553570
  0.112000,192.526580
  0.114000,188.477810
  0.116000,184.441440
  0.118000,180.455300
  0.120000,176.549720
  0.122000,172.756460
  0.124000,169.077780
  0.126000,165.512000
  0.128000,162.045200
  0.130000,158.664050
  0.132000,155.357230
  0.134000,152.110850
  0.136000,148.915030
  0.138000,145.762720
  0.140000,142.641720
  0.142000,139.552050
  0.144000,136.482600
  0.146000,133.430040
  0.148000,130.388000
  0.150000,127.352030
  0.152000,124.326920
  0.154000,121.309910
  0.156000,118.314580
  0.158000,115.352520
  0.160000,112.433750
  0.162000,109.577230
  0.164000,106.782280
  0.166000,104.048610
  0.168000,101.366390
  0.170000, 98.729450
  0.172000, 96.108210
  0.174000, 93.489720
  0.176000, 90.864450
  0.178000, 88.221700
  0.180000, 85.581750
  0.182000, 82.947750
  0.184000, 80.338100
  0.186000, 77.777740
  0.188000, 75.266900
  0.190000, 72.807890
  0.192000, 70.383460
  0.194000, 68.008740
  0.196000, 65.674750
  0.198000, 63.390900
  0.200000, 61.163370
  0.202000, 59.008170
  0.204000, 56.912310
  0.206000, 54.874190
  0.208000, 52.871330
  0.210000, 50.880530
  0.212000, 48.883730
  0.214000, 46.885970
  0.216000, 44.889930
  0.218000, 42.925310
  0.220000, 41.006900
  0.222000, 39.161080
  0.224000, 37.403720
  0.226000, 35.742860
  0.228000, 34.168680
  0.230000, 32.650280
  0.232000, 31.170110
  0.234000, 29.722880
  0.236000, 28.271990
  0.238000, 26.829000
  0.240000, 25.393540
  0.242000, 23.967990
  0.244000, 22.573750
  0.246000, 21.224510
  0.248000, 19.923700
  0.250000, 18.687920
  0.252000, 17.504220
  0.254000, 16.371630
  0.256000, 15.284640
  0.258000, 14.237320
  0.260000, 13.218820
  0.262000, 12.227840
  0.264000, 11.255900
  0.266000, 10.315630
  0.268000,  9.407880
  0.270000,  8.548230
  0.272000,  7.711130
  0.274000,  6.913510
  0.276000,  6.156890
  0.278000,  5.439920
  0.280000,  4.754710
  0.282000,  4.114740
  0.284000,  3.512630
  0.286000,  2.939810
  0.288000,  2.410430
  0.290000,  1.913910
  0.292000,  1.452530
  0.294000,  1.025810
  0.296000,  0.623770
  0.298000,  0.242170
  0.300000, -0.113620
  0.302000, -0.460880
  0.304000, -0.777990
  0.306000, -1.082080
  0.308000, -1.365180
  0.310000, -1.624730
  0.312000, -1.857500
  0.314000, -2.060590
  0.316000, -2.246780
  0.318000, -2.413500
  0.320000, -2.565690
  0.322000, -2.700780
  0.324000, -2.828390
  0.326000, -2.953950
  0.328000, -3.064910
  0.330000, -3.163520
  0.332000, -3.259540
  0.334000, -3.337630
  0.336000, -3.412370
  0.338000, -3.479320
  0.340000, -3.550240
  0.342000, -3.611540
  0.344000, -3.675120
  0.346000, -3.738160
  0.348000, -3.797790
  0.350000, -3.855420
  0.352000, -3.909070
  0.354000, -3.970560
  0.356000, -4.018690
  0.358000, -4.060880
  0.360000, -4.102040
  0.362000, -4.144030
  0.364000, -4.172530
  0.366000, -4.189130
  0.368000, -4.193260
  0.370000, -4.196090
  0.372000, -4.183600
  0.374000, -4.167260
  0.376000, -4.135290
  0.378000, -4.103000
  0.380000, -4.058060
  0.382000, -4.009220
  0.384000, -3.957970
  0.386000, -3.901770
  0.388000, -3.847230
  0.390000, -3.784970
  0.392000, -3.715910
  0.394000, -3.643980
  0.396000, -3.576400
  0.398000, -3.502840
  0.400000, -3.427930
  0.402000, -3.352660
  0.404000, -3.267760
  0.406000, -3.190650
  0.408000, -3.119910
  0.410000, -3.050020
  0.412000, -2.998290
  0.414000, -2.953670
  0.416000, -2.918980
  0.418000, -2.880000
  0.420000, -2.838700
  0.422000, -2.793080
  0.424000, -2.735020
  0.426000, -2.666620
  0.428000, -2.584500
  0.430000, -2.487340
  0.432000, -2.389410
  0.434000, -2.285780
  0.436000, -2.173890
  0.438000, -2.050850
  0.440000, -1.924530
  0.442000, -1.795160
  0.444000, -1.663290
  0.446000, -1.531890
  0.448000, -1.410250
  0.450000, -1.282810
  0.452000, -1.161800
  0.454000, -1.033400
  0.456000, -0.907920
  0.458000, -0.767290
  0.460000, -0.618230
  0.462000, -0.461350
  0.464000, -0.298820
  0.466000, -0.129800
  0.468000,  0.042870
  0.470000,  0.207820
  0.472000,  0.374230
  0.474000,  0.515080
  0.476000,  0.640710
  0.478000,  0.758240
  0.480000,  0.871200
  0.482000,  0.966990
  0.484000,  1.054150
  0.486000,  1.143160
  0.488000,  1.227190
  0.490000,  1.309380
  0.492000,  1.399300
  0.494000,  1.491590
  0.496000,  1.581860
  0.498000,  1.681210
  0.500000,  1.784570
  0.502000,  1.876640
  0.504000,  1.963470
  0.506000,  2.032940
  0.508000,  2.089640
  0.510000,  2.129700
  0.512000,  2.152510
  0.514000,  2.157540
  0.516000,  2.160300
  0.518000,  2.150190
  0.520000,  2.141060
  0.522000,  2.128720
  0.524000,  2.119660
  0.526000,  2.117900
  0.528000,  2.119710
  0.530000,  2.124120
  0.532000,  2.129840
  0.534000,  2.131000
  0.536000,  2.116770
  0.538000,  2.101050
  0.540000,  2.073600
  0.542000,  2.029050
  0.544000,  1.976760
  0.546000,  1.914020
  0.548000,  1.834850
  0.550000,  1.744830
  0.552000,  1.647700
  0.554000,  1.549420
  0.556000,  1.454460
  0.558000,  1.353160
  0.560000,  1.259960
  0.562000,  1.170920
  0.564000,  1.084530
  0.566000,  1.004560
  0.568000,  0.931780
  0.570000,  0.869610
  0.572000,  0.815960
  0.574000,  0.765360
  0.576000,  0.731590
  0.578000,  0.694130
  0.580000,  0.662800
  0.582000,  0.632820
  0.584000,  0.600750
  0.586000,  0.559420
  0.588000,  0.513930
  0.590000,  0.459030
  0.592000,  0.398100
  0.594000,  0.327370
  0.596000,  0.251730
  0.598000,  0.181840
  0.600000,  0.109280
  0.602000,  0.034630
  0.604000, -0.032610
  0.606000, -0.086980
  0.608000, -0.134160
  0.610000, -0.172500
  0.612000, -0.199640
  0.614000, -0.219590
  0.616000, -0.232480
  0.618000, -0.246060
  0.620000, -0.260990
  0.622000, -0.282090
  0.624000, -0.309370
  0.626000, -0.339800
  0.628000, -0.376170
  0.630000, -0.411840
  0.632000, -0.456690
  0.634000, -0.493390
  0.636000, -0.524710
  0.638000, -0.545010
  0.640000, -0.554820
  0.642000, -0.559370
  0.644000, -0.547190
  0.646000, -0.533680
  0.648000, -0.508610
  0.650000, -0.486250
  0.652000, -0.462720
  0.654000, -0.446560
  0.656000, -0.426500
  0.658000, -0.415320
  0.660000, -0.410830
  0.662000, -0.409390
  0.664000, -0.412860
  0.666000, -0.419090
  0.668000, -0.426980
  0.670000, -0.433800
  0.672000, -0.436190
  0.674000, -0.431970
  0.676000, -0.416290
  0.678000, -0.388880
  0.680000, -0.341390
  0.682000, -0.285270
  0.684000, -0.217860
  0.686000, -0.152450
  0.688000, -0.090510
  0.690000, -0.045710
  0.692000, -0.008510
  0.694000,  0.010350
  0.696000,  0.019820
  0.698000,  0.014350
  0.700000,  0.009660
  0.702000,  0.006060
  0.704000,  0.010380
  0.706000,  0.010790
  0.708000,  0.018290
  0.710000,  0.026110
  0.712000,  0.035590
  0.714000,  0.045040
  0.716000,  0.056660
  0.718000,  0.073490
  0.720000,  0.088660
  0.722000,  0.113910
  0.724000,  0.132230
  0.726000,  0.161380
  0.728000,  0.181290
  0.730000,  0.205620
  0.732000,  0.235070
  0.734000,  0.257100
  0.736000,  0.280160
  0.738000,  0.286780
  0.740000,  0.287030
  0.742000,  0.283350
  0.744000,  0.278780
  0.746000,  0.265170
  0.748000,  0.246710
  0.750000,  0.232880
  0.752000,  0.222660
  0.754000,  0.210460
  0.756000,  0.208780
  0.758000,  0.203990
  0.760000,  0.209100
  0.762000,  0.226590
  0.764000,  0.242860
  0.766000,  0.265030
  0.768000,  0.295860
  0.770000,  0.323220
  0.772000,  0.360740
  0.774000,  0.392750
  0.776000,  0.426450
  0.778000,  0.451940
  0.780000,  0.465460
  0.782000,  0.478900
  0.784000,  0.483250
  0.786000,  0.479660
  0.788000,  0.469300
  0.790000,  0.455560
  0.792000,  0.434280
  0.794000,  0.406140
  0.796000,  0.375600
  0.798000,  0.349380
  0.800000,  0.322880
  0.802000,  0.294210
  0.804000,  0.272610
  0.806000,  0.262620
  0.808000,  0.250870
  0.810000,  0.243440
  0.812000,  0.235000
  0.814000,  0.240290
  0.816000,  0.239890
  0.818000,  0.235470
  0.820000,  0.237140
  0.822000,  0.232790
  0.824000,  0.227990
  0.826000,  0.221960
  0.828000,  0.221270
  0.830000,  0.221620
  0.832000,  0.225130
  0.834000,  0.238110
  0.836000,  0.258500
  0.838000,  0.295510
  0.840000,  0.326580
  0.842000,  0.356300
  0.844000,  0.384510
  0.846000,  0.403600
  0.848000,  0.408280
  0.850000,  0.403530
  0.852000,  0.387730
  0.854000,  0.353760
  0.856000,  0.320200
  0.858000,  0.285620
  0.860000,  0.261210
  0.862000,  0.238640
  0.864000,  0.234960
  0.866000,  0.231130
  0.868000,  0.236150
  0.870000,  0.246730
  0.872000,  0.261410
  0.874000,  0.274060
  0.876000,  0.282890
  0.878000,  0.289100
  0.880000,  0.297900
  0.882000,  0.295150
  0.884000,  0.289900
  0.886000,  0.283850
  0.888000,  0.278520
  0.890000,  0.275160
  0.892000,  0.265330
  0.894000,  0.249430
  0.896000,  0.242010
  0.898000,  0.221380
  0.900000,  0.204650
  0.902000,  0.190200
  0.904000,  0.174840
  0.906000,  0.168200
  0.908000,  0.157830
  0.910000,  0.154060
  0.912000,  0.152910
  0.914000,  0.152730
  0.916000,  0.157470
  0.918000,  0.156910
  0.920000,  0.157730
  0.922000,  0.149020
  0.924000,  0.149520
  0.926000,  0.133030
  0.928000,  0.118920
  0.930000,  0.095020
  0.932000,  0.074280
  0.934000,  0.054000
  0.936000,  0.035330
  0.938000,  0.018730
  0.940000,  0.007380
  0.942000,  0.000370
  0.944000,  0.001190
  0.946000,  0.006060
  0.948000,  0.007120
  0.950000,  0.010820
  0.952000,  0.013520
  0.954000,  0.017130
  0.956000,  0.018440
  0.958000,  0.012210
  0.960000,  0.006880
  0.962000, -0.005300
  0.964000, -0.026350
  0.966000, -0.042960
  0.968000, -0.067490
  0.970000, -0.087400
  0.972000, -0.109060
  0.974000, -0.128110
  0.976000, -0.147770
  0.978000, -0.164810
  0.980000, -0.178290
  0.982000, -0.187440
  0.984000, -0.190400
  0.986000, -0.192560
  0.988000, -0.189230
  0.990000, -0.180710
  0.992000, -0.167240
  0.994000, -0.149620
  0.996000, -0.127550
  0.998000, -0.114230
  1.000000, -0.095320
