# z (nm)   (kJ/mol)
  0.078000,258.404350
  0.080000,255.960650
  0.082000,252.661830
  0.084000,249.933100
  0.086000,247.329850
  0.088000,244.798020
  0.090000,242.228160
  0.092000,239.686570
  0.094000,237.109310
  0.096000,234.501090
  0.098000,231.826200
  0.100000,229.106120
  0.102000,226.305020
  0.104000,223.437260
  0.106000,220.491840
  0.108000,217.463660
  0.110000,214.357190
  0.112000,211.173800
  0.114000,207.916570
  0.116000,204.591250
  0.118000,201.199310
  0.120000,197.746320
  0.122000,194.241750
  0.124000,190.689540
  0.126000,187.093210
  0.128000,183.462440
  0.130000,179.808740
  0.132000,176.151070
  0.134000,172.513470
  0.136000,168.920580
  0.138000,165.390290
  0.140000,161.957590
  0.142000,158.630920
  0.144000,155.408950
  0.146000,152.293520
  0.148000,149.270580
  0.150000,146.335030
  0.152000,143.480160
  0.154000,140.707420
  0.156000,138.009850
  0.158000,135.388760
  0.160000,132.822800
  0.162000,130.279120
  0.164000,127.730090
  0.166000,125.141430
  0.168000,122.500890
  0.170000,119.812640
  0.172000,117.104130
  0.174000,114.404980
  0.176000,111.746120
  0.178000,109.158060
  0.180000,106.645590
  0.182000,104.199090
  0.184000,101.810130
  0.186000, 99.457320
  0.188000, 97.125440
  0.190000, 94.795720
  0.192000, 92.455650
  0.194000, 90.109410
  0.196000, 87.748470
  0.198000, 85.373980
  0.200000, 82.994310
  0.202000, 80.619910
  0.204000, 78.278180
  0.206000, 75.972680
  0.208000, 73.734410
  0.210000, 71.567030
  0.212000, 69.463240
  0.214000, 67.397110
  0.216000, 65.356300
  0.218000, 63.311600
  0.220000, 61.250040
  0.222000, 59.190820
  0.224000, 57.151700
  0.226000, 55.159520
  0.228000, 53.233960
  0.230000, 51.372240
  0.232000, 49.545390
  0.234000, 47.736720
  0.236000, 45.926340
  0.238000, 44.110590
  0.240000, 42.291820
  0.242000, 40.500740
  0.244000, 38.749030
  0.246000, 37.050100
  0.248000, 35.415640
  0.250000, 33.855050
  0.252000, 32.370570
  0.254000, 30.959720
  0.256000, 29.605750
  0.258000, 28.308560
  0.260000, 27.037940
  0.262000, 25.793350
  0.264000, 24.567550
  0.266000, 23.355790
  0.268000, 22.177070
  0.270000, 21.037730
  0.272000, 19.949980
  0.274000, 18.914460
  0.276000, 17.933870
  0.278000, 16.999000
  0.280000, 16.100480
  0.282000, 15.230430
  0.284000, 14.384340
  0.286000, 13.558420
  0.288000, 12.743610
  0.290000, 11.961040
  0.292000, 11.217240
  0.294000, 10.511200
  0.296000,  9.854310
  0.298000,  9.239160
  0.300000,  8.665780
  0.302000,  8.122430
  0.304000,  7.584900
  0.306000,  7.052410
  0.308000,  6.510980
  0.310000,  5.949650
  0.312000,  5.381560
  0.314000,  4.816230
  0.316000,  4.266990
  0.318000,  3.736980
  0.320000,  3.232610
  0.322000,  2.762110
  0.324000,  2.317570
  0.326000,  1.891500
  0.328000,  1.482930
  0.330000,  1.097220
  0.332000,  0.726780
  0.334000,  0.380660
  0.336000,  0.065910
  0.338000, -0.234060
  0.340000, -0.501890
  0.342000, -0.760800
  0.344000, -1.000490
  0.346000, -1.226440
  0.348000, -1.426080
  0.350000, -1.606340
  0.352000, -1.760270
  0.354000, -1.887250
  0.356000, -1.985300
  0.358000, -2.056550
  0.360000, -2.107650
  0.362000, -2.158790
  0.364000, -2.207750
  0.366000, -2.243880
  0.368000, -2.284090
  0.370000, -2.308690
  0.372000, -2.311190
  0.374000, -2.305040
  0.376000, -2.282030
  0.378000, -2.256240
  0.380000, -2.229260
  0.382000, -2.206560
  0.384000, -2.190780
  0.386000, -2.177530
  0.388000, -2.171000
  0.390000, -2.163190
  0.392000, -2.154610
  0.394000, -2.135560
  0.396000, -2.110110
  0.398000, -2.077210
  0.400000, -2.030080
  0.402000, -1.972120
  0.404000, -1.906620
  0.406000, -1.827640
  0.408000, -1.744630
  0.410000, -1.665660
  0.412000, -1.575900
  0.414000, -1.490410
  0.416000, -1.406350
  0.418000, -1.320100
  0.420000, -1.241950
  0.422000, -1.165370
  0.424000, -1.094440
  0.426000, -1.030470
  0.428000, -0.967680
  0.430000, -0.898710
  0.432000, -0.831320
  0.434000, -0.747050
  0.436000, -0.670310
  0.438000, -0.574780
  0.440000, -0.471430
  0.442000, -0.370270
  0.444000, -0.271600
  0.446000, -0.180710
  0.448000, -0.095200
  0.450000, -0.024440
  0.452000,  0.034880
  0.454000,  0.085060
  0.456000,  0.137450
  0.458000,  0.189860
  0.460000,  0.240430
  0.462000,  0.297960
  0.464000,  0.352030
  0.466000,  0.414780
  0.468000,  0.476030
  0.470000,  0.540950
  0.472000,  0.614270
  0.474000,  0.694170
  0.476000,  0.777430
  0.478000,  0.860070
  0.480000,  0.941200
  0.482000,  1.013910
  0.484000,  1.076840
  0.486000,  1.128310
  0.488000,  1.155430
  0.490000,  1.160910
  0.492000,  1.150000
  0.494000,  1.131010
  0.496000,  1.101390
  0.498000,  1.070980
  0.500000,  1.039380
  0.502000,  1.004890
  0.504000,  0.970750
  0.506000,  0.938940
  0.508000,  0.902830
  0.510000,  0.863140
  0.512000,  0.812520
  0.514000,  0.752590
  0.516000,  0.679880
  0.518000,  0.595400
  0.520000,  0.498160
  0.522000,  0.393170
  0.524000,  0.298760
  0.526000,  0.211350
  0.528000,  0.123400
  0.530000,  0.051300
  0.532000, -0.018910
  0.534000, -0.075120
  0.536000, -0.126980
  0.538000, -0.174650
  0.540000, -0.215620
  0.542000, -0.265640
  0.544000, -0.307750
  0.546000, -0.354970
  0.548000, -0.407030
  0.550000, -0.460410
  0.552000, -0.515440
  0.554000, -0.576340
  0.556000, -0.640100
  0.558000, -0.698920
  0.560000, -0.756620
  0.562000, -0.805760
  0.564000, -0.836660
  0.566000, -0.864850
  0.568000, -0.878990
  0.570000, -0.871380
  0.572000, -0.859490
  0.574000, -0.844070
  0.576000, -0.821090
  0.578000, -0.796080
  0.580000, -0.771510
  0.582000, -0.747430
  0.584000, -0.732330
  0.586000, -0.718170
  0.588000, -0.709190
  0.590000, -0.710310
  0.592000, -0.712240
  0.594000, -0.710840
  0.596000, -0.703510
  0.598000, -0.692580
  0.600000, -0.671170
  0.602000, -0.641200
  0.604000, -0.601540
  0.606000, -0.561140
  0.608000, -0.515680
  0.610000, -0.462500
  0.612000, -0.411930
  0.614000, -0.362810
  0.616000, -0.314580
  0.618000, -0.267230
  0.620000, -0.224510
  0.622000, -0.193650
  0.624000, -0.154660
  0.626000, -0.117980
  0.628000, -0.085030
  0.630000, -0.041310
  0.632000, -0.004200
  0.634000,  0.043660
  0.636000,  0.088390
  0.638000,  0.139720
  0.640000,  0.192430
  0.642000,  0.248300
  0.644000,  0.299860
  0.646000,  0.356560
  0.648000,  0.400900
  0.650000,  0.437230
  0.652000,  0.473360
  0.654000,  0.496890
  0.656000,  0.511400
  0.658000,  0.518560
  0.660000,  0.519170
  0.662000,  0.510130
  0.664000,  0.494170
  0.666000,  0.470960
  0.668000,  0.452000
  0.670000,  0.444060
  0.672000,  0.432000
  0.674000,  0.427260
  0.676000,  0.436240
  0.678000,  0.456600
  0.680000,  0.480190
  0.682000,  0.514330
  0.684000,  0.548530
  0.686000,  0.594670
  0.688000,  0.638900
  0.690000,  0.675880
  0.692000,  0.706990
  0.694000,  0.720380
  0.696000,  0.721890
  0.698000,  0.711300
  0.700000,  0.688240
  0.702000,  0.660830
  0.704000,  0.624460
  0.706000,  0.583190
  0.708000,  0.545720
  0.710000,  0.514060
  0.712000,  0.486120
  0.714000,  0.460040
  0.716000,  0.441640
  0.718000,  0.426490
  0.720000,  0.428060
  0.722000,  0.427590
  0.724000,  0.432480
  0.726000,  0.449460
  0.728000,  0.465620
  0.730000,  0.486910
  0.732000,  0.505070
  0.734000,  0.518960
  0.736000,  0.527160
  0.738000,  0.533750
  0.740000,  0.537140
  0.742000,  0.531770
  0.744000,  0.511240
  0.746000,  0.482910
  0.748000,  0.444940
  0.750000,  0.409240
  0.752000,  0.365240
  0.754000,  0.327150
  0.756000,  0.288220
  0.758000,  0.258640
  0.760000,  0.241320
  0.762000,  0.238470
  0.764000,  0.235410
  0.766000,  0.250970
  0.768000,  0.277010
  0.770000,  0.305860
  0.772000,  0.334330
  0.774000,  0.361570
  0.776000,  0.388270
  0.778000,  0.417300
  0.780000,  0.432400
  0.782000,  0.445670
  0.784000,  0.450330
  0.786000,  0.444130
  0.788000,  0.433410
  0.790000,  0.424670
  0.792000,  0.416770
  0.794000,  0.402640
  0.796000,  0.390970
  0.798000,  0.381220
  0.800000,  0.380510
  0.802000,  0.377030
  0.804000,  0.376370
  0.806000,  0.380410
  0.808000,  0.381700
  0.810000,  0.388530
  0.812000,  0.395130
  0.814000,  0.396130
  0.816000,  0.391410
  0.818000,  0.384560
  0.820000,  0.380620
  0.822000,  0.375310
  0.824000,  0.358110
  0.826000,  0.350890
  0.828000,  0.338060
  0.830000,  0.330820
  0.832000,  0.324560
  0.834000,  0.329310
  0.836000,  0.335420
  0.838000,  0.352510
  0.840000,  0.371710
  0.842000,  0.395040
  0.844000,  0.414310
  0.846000,  0.429410
  0.848000,  0.443750
  0.850000,  0.447900
  0.852000,  0.450890
  0.854000,  0.455810
  0.856000,  0.446450
  0.858000,  0.439500
  0.860000,  0.430340
  0.862000,  0.418150
  0.864000,  0.402100
  0.866000,  0.391610
  0.868000,  0.377950
  0.870000,  0.368990
  0.872000,  0.352830
  0.874000,  0.345180
  0.876000,  0.336640
  0.878000,  0.334540
  0.880000,  0.336020
  0.882000,  0.332400
  0.884000,  0.341330
  0.886000,  0.346010
  0.888000,  0.346260
  0.890000,  0.349220
  0.892000,  0.354240
  0.894000,  0.356330
  0.896000,  0.354730
  0.898000,  0.351170
  0.900000,  0.332020
  0.902000,  0.330420
  0.904000,  0.317860
  0.906000,  0.301190
  0.908000,  0.286760
  0.910000,  0.268990
  0.912000,  0.255030
  0.914000,  0.241040
  0.916000,  0.225460
  0.918000,  0.214660
  0.920000,  0.207710
  0.922000,  0.208120
  0.924000,  0.202270
  0.926000,  0.193890
  0.928000,  0.179760
  0.930000,  0.168150
  0.932000,  0.149170
  0.934000,  0.127010
  0.936000,  0.105560
  0.938000,  0.085460
  0.940000,  0.060130
  0.942000,  0.034850
  0.944000,  0.022940
  0.946000,  0.001440
  0.948000, -0.017090
  0.950000, -0.032770
  0.952000, -0.050320
  0.954000, -0.069170
  0.956000, -0.087940
  0.958000, -0.107530
  0.960000, -0.126720
  0.962000, -0.145310
  0.964000, -0.151790
  0.966000, -0.153830
  0.968000, -0.153050
  0.970000, -0.143890
  0.972000, -0.133590
  0.974000, -0.126250
  0.976000, -0.118220
  0.978000, -0.116190
  0.980000, -0.118190
  0.982000, -0.126630
  0.984000, -0.139950
  0.986000, -0.160870
  0.988000, -0.183190
  0.990000, -0.216690
  0.992000, -0.254700
  0.994000, -0.286560
  0.996000, -0.311490
  0.998000, -0.325450
  1.000000, -0.330500
