# z (nm)   (kJ/mol)
  0.064000,273.065110
  0.066000,270.616060
  0.068000,268.198780
  0.070000,265.803400
  0.072000,264.743070
  0.074000,261.033080
  0.076000,258.476170
  0.078000,255.732260
  0.080000,253.009910
  0.082000,250.227410
  0.084000,247.487450
  0.086000,244.667240
  0.088000,241.800020
  0.090000,238.845640
  0.092000,235.820660
  0.094000,232.697470
  0.096000,229.481190
  0.098000,226.161280
  0.100000,222.731230
  0.102000,219.191350
  0.104000,215.542670
  0.106000,211.789320
  0.108000,207.939860
  0.110000,204.004100
  0.112000,199.995960
  0.114000,195.939900
  0.116000,191.866010
  0.118000,187.804010
  0.120000,183.777440
  0.122000,179.818570
  0.124000,175.948210
  0.126000,172.192290
  0.128000,168.555110
  0.130000,165.041030
  0.132000,161.650250
  0.134000,158.363010
  0.136000,155.163830
  0.138000,152.024320
  0.140000,148.927580
  0.142000,145.851480
  0.144000,142.776440
  0.146000,139.696180
  0.148000,136.614270
  0.150000,133.543790
  0.152000,130.493640
  0.154000,127.486460
  0.156000,124.528240
  0.158000,121.627050
  0.160000,118.771640
  0.162000,115.959790
  0.164000,113.170060
  0.166000,110.400270
  0.168000,107.655800
  0.170000,104.944120
  0.172000,102.279050
  0.174000, 99.661160
  0.176000, 97.092820
  0.178000, 94.556440
  0.180000, 92.039100
  0.182000, 89.538970
  0.184000, 87.056150
  0.186000, 84.606890
  0.188000, 82.205460
  0.190000, 79.869660
  0.192000, 77.602980
  0.194000, 75.413660
  0.196000, 73.290680
  0.198000, 71.222110
  0.200000, 69.184590
  0.202000, 67.154690
  0.204000, 65.115410
  0.206000, 63.065150
  0.208000, 60.992950
  0.210000, 58.914910
  0.212000, 56.858060
  0.214000, 54.841690
  0.216000, 52.889540
  0.218000, 51.017430
  0.220000, 49.232320
  0.222000, 47.529340
  0.224000, 45.887270
  0.226000, 44.292680
  0.228000, 42.723700
  0.230000, 41.171380
  0.232000, 39.620670
  0.234000, 38.080030
  0.236000, 36.539760
  0.238000, 35.022140
  0.240000, 33.528610
  0.242000, 32.069250
  0.244000, 30.651320
  0.246000, 29.285530
  0.248000, 27.972040
  0.250000, 26.711290
  0.252000, 25.497700
  0.254000, 24.332120
  0.256000, 23.196940
  0.258000, 22.085660
  0.260000, 20.997800
  0.262000, 19.918470
  0.264000, 18.856880
  0.266000, 17.816300
  0.268000, 16.801880
  0.270000, 15.816600
  0.272000, 14.869250
  0.274000, 13.969190
  0.276000, 13.118010
  0.278000, 12.314490
  0.280000, 11.550730
  0.282000, 10.822640
  0.284000, 10.115240
  0.286000,  9.427710
  0.288000,  8.753510
  0.290000,  8.097750
  0.292000,  7.460960
  0.294000,  6.848800
  0.296000,  6.271280
  0.298000,  5.733140
  0.300000,  5.234660
  0.302000,  4.778500
  0.304000,  4.357540
  0.306000,  3.967840
  0.308000,  3.597050
  0.310000,  3.237190
  0.312000,  2.892750
  0.314000,  2.563620
  0.316000,  2.256820
  0.318000,  1.972080
  0.320000,  1.709280
  0.322000,  1.464840
  0.324000,  1.250840
  0.326000,  1.052890
  0.328000,  0.875650
  0.330000,  0.722290
  0.332000,  0.580830
  0.334000,  0.450320
  0.336000,  0.329930
  0.338000,  0.223630
  0.340000,  0.121620
  0.342000,  0.038110
  0.344000, -0.047730
  0.346000, -0.114130
  0.348000, -0.167060
  0.350000, -0.207370
  0.352000, -0.228970
  0.354000, -0.245340
  0.356000, -0.265970
  0.358000, -0.276710
  0.360000, -0.286700
  0.362000, -0.297340
  0.364000, -0.305080
  0.366000, -0.312430
  0.368000, -0.309810
  0.370000, -0.302060
  0.372000, -0.289560
  0.374000, -0.264470
  0.376000, -0.237500
  0.378000, -0.206540
  0.380000, -0.180730
  0.382000, -0.152240
  0.384000, -0.118450
  0.386000, -0.083570
  0.388000, -0.054260
  0.390000, -0.031560
  0.392000,  0.004610
  0.394000,  0.042370
  0.396000,  0.078670
  0.398000,  0.120150
  0.400000,  0.165580
  0.402000,  0.214050
  0.404000,  0.259460
  0.406000,  0.312210
  0.408000,  0.363310
  0.410000,  0.415930
  0.412000,  0.466780
  0.414000,  0.518430
  0.416000,  0.570840
  0.418000,  0.624370
  0.420000,  0.676150
  0.422000,  0.731140
  0.424000,  0.786140
  0.426000,  0.841450
  0.428000,  0.896040
  0.430000,  0.952370
  0.432000,  1.017670
  0.434000,  1.087530
  0.436000,  1.162310
  0.438000,  1.245490
  0.440000,  1.330010
  0.442000,  1.421680
  0.444000,  1.519780
  0.446000,  1.612480
  0.448000,  1.703560
  0.450000,  1.794750
  0.452000,  1.881370
  0.454000,  1.960020
  0.456000,  2.049730
  0.458000,  2.142280
  0.460000,  2.243200
  0.462000,  2.355000
  0.464000,  2.472470
  0.466000,  2.591650
  0.468000,  2.708590
  0.470000,  2.812800
  0.472000,  2.912140
  0.474000,  3.001840
  0.476000,  3.081710
  0.478000,  3.154100
  0.480000,  3.223360
  0.482000,  3.280310
  0.484000,  3.329560
  0.486000,  3.381310
  0.488000,  3.429130
  0.490000,  3.476950
  0.492000,  3.517170
  0.494000,  3.555860
  0.496000,  3.587920
  0.498000,  3.612230
  0.500000,  3.627040
  0.502000,  3.633880
  0.504000,  3.635520
  0.506000,  3.622530
  0.508000,  3.603250
  0.510000,  3.576090
  0.512000,  3.547370
  0.514000,  3.505270
  0.516000,  3.469460
  0.518000,  3.418890
  0.520000,  3.364490
  0.522000,  3.311170
  0.524000,  3.256420
  0.526000,  3.195680
  0.528000,  3.139400
  0.530000,  3.081010
  0.532000,  3.016330
  0.534000,  2.953190
  0.536000,  2.887740
  0.538000,  2.823410
  0.540000,  2.761990
  0.542000,  2.693570
  0.544000,  2.629270
  0.546000,  2.561380
  0.548000,  2.490930
  0.550000,  2.430930
  0.552000,  2.365240
  0.554000,  2.301820
  0.556000,  2.237450
  0.558000,  2.169080
  0.560000,  2.106180
  0.562000,  2.038020
  0.564000,  1.972200
  0.566000,  1.909090
  0.568000,  1.844010
  0.570000,  1.780870
  0.572000,  1.716810
  0.574000,  1.652910
  0.576000,  1.584510
  0.578000,  1.510270
  0.580000,  1.435120
  0.582000,  1.359780
  0.584000,  1.277970
  0.586000,  1.190160
  0.588000,  1.101510
  0.590000,  1.016910
  0.592000,  0.930820
  0.594000,  0.852870
  0.596000,  0.783390
  0.598000,  0.723750
  0.600000,  0.670970
  0.602000,  0.631270
  0.604000,  0.596360
  0.606000,  0.566680
  0.608000,  0.534920
  0.610000,  0.501810
  0.612000,  0.456110
  0.614000,  0.408640
  0.616000,  0.356890
  0.618000,  0.302300
  0.620000,  0.241280
  0.622000,  0.180350
  0.624000,  0.123720
  0.626000,  0.077900
  0.628000,  0.039590
  0.630000,  0.013500
  0.632000,  0.001840
  0.634000,  0.003570
  0.636000,  0.012180
  0.638000,  0.026060
  0.640000,  0.039350
  0.642000,  0.056490
  0.644000,  0.070130
  0.646000,  0.082890
  0.648000,  0.085610
  0.650000,  0.086120
  0.652000,  0.079070
  0.654000,  0.070030
  0.656000,  0.056560
  0.658000,  0.043980
  0.660000,  0.032370
  0.662000,  0.021630
  0.664000,  0.017400
  0.666000,  0.016990
  0.668000,  0.026070
  0.670000,  0.040830
  0.672000,  0.059350
  0.674000,  0.086650
  0.676000,  0.118020
  0.678000,  0.152430
  0.680000,  0.180600
  0.682000,  0.209430
  0.684000,  0.234950
  0.686000,  0.255470
  0.688000,  0.270780
  0.690000,  0.278230
  0.692000,  0.277900
  0.694000,  0.279520
  0.696000,  0.273920
  0.698000,  0.268810
  0.700000,  0.269000
  0.702000,  0.269760
  0.704000,  0.274230
  0.706000,  0.283090
  0.708000,  0.297230
  0.710000,  0.310330
  0.712000,  0.336950
  0.714000,  0.364310
  0.716000,  0.401230
  0.718000,  0.436580
  0.720000,  0.477700
  0.722000,  0.510140
  0.724000,  0.544490
  0.726000,  0.566800
  0.728000,  0.590860
  0.730000,  0.611280
  0.732000,  0.623920
  0.734000,  0.638380
  0.736000,  0.655010
  0.738000,  0.670180
  0.740000,  0.683120
  0.742000,  0.693480
  0.744000,  0.701970
  0.746000,  0.709030
  0.748000,  0.718300
  0.750000,  0.725550
  0.752000,  0.732920
  0.754000,  0.740760
  0.756000,  0.750460
  0.758000,  0.759560
  0.760000,  0.771460
  0.762000,  0.782590
  0.764000,  0.799780
  0.766000,  0.812010
  0.768000,  0.832940
  0.770000,  0.856050
  0.772000,  0.868950
  0.774000,  0.884860
  0.776000,  0.902580
  0.778000,  0.916960
  0.780000,  0.929470
  0.782000,  0.934580
  0.784000,  0.934820
  0.786000,  0.931100
  0.788000,  0.926810
  0.790000,  0.917910
  0.792000,  0.911200
  0.794000,  0.891460
  0.796000,  0.872200
  0.798000,  0.853970
  0.800000,  0.837670
  0.802000,  0.821640
  0.804000,  0.805410
  0.806000,  0.793720
  0.808000,  0.782330
  0.810000,  0.773270
  0.812000,  0.768490
  0.814000,  0.768200
  0.816000,  0.775150
  0.818000,  0.777310
  0.820000,  0.772150
  0.822000,  0.776370
  0.824000,  0.782110
  0.826000,  0.790720
  0.828000,  0.797830
  0.830000,  0.804320
  0.832000,  0.810200
  0.834000,  0.812680
  0.836000,  0.814030
  0.838000,  0.811040
  0.840000,  0.803540
  0.842000,  0.794140
  0.844000,  0.783200
  0.846000,  0.769960
  0.848000,  0.756370
  0.850000,  0.746000
  0.852000,  0.731770
  0.854000,  0.715550
  0.856000,  0.704490
  0.858000,  0.691640
  0.860000,  0.681060
  0.862000,  0.668820
  0.864000,  0.654380
  0.866000,  0.641160
  0.868000,  0.628220
  0.870000,  0.616200
  0.872000,  0.602260
  0.874000,  0.584080
  0.876000,  0.567490
  0.878000,  0.545040
  0.880000,  0.529710
  0.882000,  0.506920
  0.884000,  0.481280
  0.886000,  0.458030
  0.888000,  0.424020
  0.890000,  0.387130
  0.892000,  0.349880
  0.894000,  0.309970
  0.896000,  0.269000
  0.898000,  0.231580
  0.900000,  0.195620
  0.902000,  0.161170
  0.904000,  0.133310
  0.906000,  0.111450
  0.908000,  0.092390
  0.910000,  0.085900
  0.912000,  0.078970
  0.914000,  0.075100
  0.916000,  0.081800
  0.918000,  0.087150
  0.920000,  0.092810
  0.922000,  0.102510
  0.924000,  0.111390
  0.926000,  0.119660
  0.928000,  0.127190
  0.930000,  0.131820
  0.932000,  0.123170
  0.934000,  0.111030
  0.936000,  0.088300
  0.938000,  0.061890
  0.940000,  0.034330
  0.942000,  0.005780
  0.944000, -0.019200
  0.946000, -0.046600
  0.948000, -0.058800
  0.950000, -0.073940
  0.952000, -0.083660
  0.954000, -0.084620
  0.956000, -0.080950
  0.958000, -0.073100
  0.960000, -0.066990
  0.962000, -0.061450
  0.964000, -0.049560
  0.966000, -0.038710
  0.968000, -0.038430
  0.970000, -0.037480
  0.972000, -0.042240
  0.974000, -0.043600
  0.976000, -0.048490
  0.978000, -0.055520
  0.980000, -0.062130
  0.982000, -0.068920
  0.984000, -0.078200
  0.986000, -0.088190
  0.988000, -0.095190
  0.990000, -0.096830
  0.992000, -0.104020
  0.994000, -0.105710
  0.996000, -0.106100
  0.998000, -0.104050
  1.000000, -0.104460
