# z (nm)   (kJ/mol)
  0.052000,264.236100
  0.054000,261.960520
  0.056000,259.298390
  0.058000,256.754590
  0.060000,254.055430
  0.062000,251.729600
  0.064000,249.394470
  0.066000,247.019380
  0.068000,244.591050
  0.070000,242.159570
  0.072000,239.661280
  0.074000,237.073510
  0.076000,234.387640
  0.078000,231.579240
  0.080000,228.639260
  0.082000,225.560980
  0.084000,222.334840
  0.086000,218.967750
  0.088000,215.464400
  0.090000,211.831350
  0.092000,208.090130
  0.094000,204.245210
  0.096000,200.316850
  0.098000,196.298530
  0.100000,192.193450
  0.102000,188.005820
  0.104000,183.740030
  0.106000,179.406450
  0.108000,175.038670
  0.110000,170.674190
  0.112000,166.368140
  0.114000,162.172110
  0.116000,158.130700
  0.118000,154.262200
  0.120000,150.566610
  0.122000,147.029510
  0.124000,143.617410
  0.126000,140.300070
  0.128000,137.045850
  0.130000,133.820980
  0.132000,130.618120
  0.134000,127.420540
  0.136000,124.228290
  0.138000,121.050870
  0.140000,117.897400
  0.142000,114.783370
  0.144000,111.705750
  0.146000,108.681800
  0.148000,105.705790
  0.150000,102.774520
  0.152000, 99.875490
  0.154000, 96.994280
  0.156000, 94.124170
  0.158000, 91.270660
  0.160000, 88.440620
  0.162000, 85.656020
  0.164000, 82.933640
  0.166000, 80.291090
  0.168000, 77.726320
  0.170000, 75.224590
  0.172000, 72.766280
  0.174000, 70.328510
  0.176000, 67.886590
  0.178000, 65.434140
  0.180000, 62.978820
  0.182000, 60.536650
  0.184000, 58.118970
  0.186000, 55.762850
  0.188000, 53.494950
  0.190000, 51.321440
  0.192000, 49.245280
  0.194000, 47.244080
  0.196000, 45.295480
  0.198000, 43.366170
  0.200000, 41.423800
  0.202000, 39.487230
  0.204000, 37.568810
  0.206000, 35.695890
  0.208000, 33.874140
  0.210000, 32.130010
  0.212000, 30.450930
  0.214000, 28.813880
  0.216000, 27.209260
  0.218000, 25.612320
  0.220000, 24.027650
  0.222000, 22.443430
  0.224000, 20.880200
  0.226000, 19.354680
  0.228000, 17.891510
  0.230000, 16.490970
  0.232000, 15.171680
  0.234000, 13.924920
  0.236000, 12.721960
  0.238000, 11.555300
  0.240000, 10.403670
  0.242000,  9.257150
  0.244000,  8.103230
  0.246000,  6.961280
  0.248000,  5.846350
  0.250000,  4.768830
  0.252000,  3.756630
  0.254000,  2.815600
  0.256000,  1.937890
  0.258000,  1.117200
  0.260000,  0.343850
  0.262000, -0.383590
  0.264000, -1.075840
  0.266000, -1.741520
  0.268000, -2.380770
  0.270000, -2.988180
  0.272000, -3.586530
  0.274000, -4.160460
  0.276000, -4.712350
  0.278000, -5.248170
  0.280000, -5.754970
  0.282000, -6.233030
  0.284000, -6.686570
  0.286000, -7.093960
  0.288000, -7.469510
  0.290000, -7.816700
  0.292000, -8.120290
  0.294000, -8.396150
  0.296000, -8.645490
  0.298000, -8.873030
  0.300000, -9.088850
  0.302000, -9.292080
  0.304000, -9.487970
  0.306000, -9.675520
  0.308000, -9.850150
  0.310000,-10.003090
  0.312000,-10.131970
  0.314000,-10.239120
  0.316000,-10.319350
  0.318000,-10.371820
  0.320000,-10.413070
  0.322000,-10.431790
  0.324000,-10.439710
  0.326000,-10.440330
  0.328000,-10.429800
  0.330000,-10.408570
  0.332000,-10.368850
  0.334000,-10.313480
  0.336000,-10.240700
  0.338000,-10.163430
  0.340000,-10.076130
  0.342000, -9.994800
  0.344000, -9.925080
  0.346000, -9.864880
  0.348000, -9.807780
  0.350000, -9.751410
  0.352000, -9.690310
  0.354000, -9.607970
  0.356000, -9.508680
  0.358000, -9.389610
  0.360000, -9.247220
  0.362000, -9.087610
  0.364000, -8.907090
  0.366000, -8.716540
  0.368000, -8.504930
  0.370000, -8.295420
  0.372000, -8.078300
  0.374000, -7.853880
  0.376000, -7.625660
  0.378000, -7.383230
  0.380000, -7.137980
  0.382000, -6.878830
  0.384000, -6.605220
  0.386000, -6.319010
  0.388000, -6.015630
  0.390000, -5.711270
  0.392000, -5.406930
  0.394000, -5.097940
  0.396000, -4.787580
  0.398000, -4.482370
  0.400000, -4.189110
  0.402000, -3.908310
  0.404000, -3.629570
  0.406000, -3.366440
  0.408000, -3.109330
  0.410000, -2.859340
  0.412000, -2.615040
  0.414000, -2.384250
  0.416000, -2.156380
  0.418000, -1.928620
  0.420000, -1.700960
  0.422000, -1.479040
  0.424000, -1.252490
  0.426000, -1.034910
  0.428000, -0.816400
  0.430000, -0.601930
  0.432000, -0.388050
  0.434000, -0.172820
  0.436000,  0.037140
  0.438000,  0.244860
  0.440000,  0.449780
  0.442000,  0.642330
  0.444000,  0.827380
  0.446000,  0.994990
  0.448000,  1.149920
  0.450000,  1.292630
  0.452000,  1.414430
  0.454000,  1.520750
  0.456000,  1.620380
  0.458000,  1.711350
  0.460000,  1.792170
  0.462000,  1.867490
  0.464000,  1.937400
  0.466000,  1.988820
  0.468000,  2.034010
  0.470000,  2.064020
  0.472000,  2.076050
  0.474000,  2.073990
  0.476000,  2.050670
  0.478000,  2.008230
  0.480000,  1.947260
  0.482000,  1.873960
  0.484000,  1.797200
  0.486000,  1.709430
  0.488000,  1.616060
  0.490000,  1.521040
  0.492000,  1.427460
  0.494000,  1.343220
  0.496000,  1.258220
  0.498000,  1.179810
  0.500000,  1.105790
  0.502000,  1.028990
  0.504000,  0.953010
  0.506000,  0.883880
  0.508000,  0.801470
  0.510000,  0.724760
  0.512000,  0.643170
  0.514000,  0.551020
  0.516000,  0.462410
  0.518000,  0.368450
  0.520000,  0.273110
  0.522000,  0.180550
  0.524000,  0.092000
  0.526000,  0.009280
  0.528000, -0.060030
  0.530000, -0.133960
  0.532000, -0.188670
  0.534000, -0.238380
  0.536000, -0.281100
  0.538000, -0.323390
  0.540000, -0.356700
  0.542000, -0.388570
  0.544000, -0.417840
  0.546000, -0.458070
  0.548000, -0.498590
  0.550000, -0.545750
  0.552000, -0.595350
  0.554000, -0.649650
  0.556000, -0.705430
  0.558000, -0.762270
  0.560000, -0.810440
  0.562000, -0.860710
  0.564000, -0.891260
  0.566000, -0.918070
  0.568000, -0.928980
  0.570000, -0.933930
  0.572000, -0.931670
  0.574000, -0.924220
  0.576000, -0.912200
  0.578000, -0.907920
  0.580000, -0.902840
  0.582000, -0.895770
  0.584000, -0.898970
  0.586000, -0.903080
  0.588000, -0.906060
  0.590000, -0.912590
  0.592000, -0.911020
  0.594000, -0.902690
  0.596000, -0.883480
  0.598000, -0.860760
  0.600000, -0.828790
  0.602000, -0.795580
  0.604000, -0.757230
  0.606000, -0.723550
  0.608000, -0.702670
  0.610000, -0.678400
  0.612000, -0.662740
  0.614000, -0.655030
  0.616000, -0.647280
  0.618000, -0.638140
  0.620000, -0.626830
  0.622000, -0.611130
  0.624000, -0.592780
  0.626000, -0.572540
  0.628000, -0.534680
  0.630000, -0.495160
  0.632000, -0.450920
  0.634000, -0.396090
  0.636000, -0.344670
  0.638000, -0.286640
  0.640000, -0.228340
  0.642000, -0.174380
  0.644000, -0.122810
  0.646000, -0.074760
  0.648000, -0.025230
  0.650000,  0.015610
  0.652000,  0.054030
  0.654000,  0.085800
  0.656000,  0.113590
  0.658000,  0.134640
  0.660000,  0.152980
  0.662000,  0.169590
  0.664000,  0.186100
  0.666000,  0.209280
  0.668000,  0.223290
  0.670000,  0.235680
  0.672000,  0.255810
  0.674000,  0.278340
  0.676000,  0.300260
  0.678000,  0.323080
  0.680000,  0.349030
  0.682000,  0.376380
  0.684000,  0.404970
  0.686000,  0.428530
  0.688000,  0.443110
  0.690000,  0.460940
  0.692000,  0.474860
  0.694000,  0.487840
  0.696000,  0.499750
  0.698000,  0.509300
  0.700000,  0.516310
  0.702000,  0.526010
  0.704000,  0.533860
  0.706000,  0.545440
  0.708000,  0.559280
  0.710000,  0.573870
  0.712000,  0.585060
  0.714000,  0.596670
  0.716000,  0.613720
  0.718000,  0.623750
  0.720000,  0.628670
  0.722000,  0.627650
  0.724000,  0.627650
  0.726000,  0.617230
  0.728000,  0.608610
  0.730000,  0.598060
  0.732000,  0.589650
  0.734000,  0.575550
  0.736000,  0.566630
  0.738000,  0.549670
  0.740000,  0.531230
  0.742000,  0.512490
  0.744000,  0.497530
  0.746000,  0.478820
  0.748000,  0.462880
  0.750000,  0.448520
  0.752000,  0.436770
  0.754000,  0.426390
  0.756000,  0.423000
  0.758000,  0.415640
  0.760000,  0.405700
  0.762000,  0.394210
  0.764000,  0.386030
  0.766000,  0.373660
  0.768000,  0.364710
  0.770000,  0.344340
  0.772000,  0.324280
  0.774000,  0.300170
  0.776000,  0.277520
  0.778000,  0.250870
  0.780000,  0.226800
  0.782000,  0.201260
  0.784000,  0.182080
  0.786000,  0.163160
  0.788000,  0.146090
  0.790000,  0.132920
  0.792000,  0.129670
  0.794000,  0.124320
  0.796000,  0.116970
  0.798000,  0.119750
  0.800000,  0.122700
  0.802000,  0.124280
  0.804000,  0.131050
  0.806000,  0.132450
  0.808000,  0.133010
  0.810000,  0.135800
  0.812000,  0.136420
  0.814000,  0.140990
  0.816000,  0.138050
  0.818000,  0.146030
  0.820000,  0.139080
  0.822000,  0.135460
  0.824000,  0.133680
  0.826000,  0.136540
  0.828000,  0.131030
  0.830000,  0.118200
  0.832000,  0.109490
  0.834000,  0.098060
  0.836000,  0.085730
  0.838000,  0.073430
  0.840000,  0.059390
  0.842000,  0.049580
  0.844000,  0.039600
  0.846000,  0.028760
  0.848000,  0.023180
  0.850000,  0.021560
  0.852000,  0.021570
  0.854000,  0.024820
  0.856000,  0.032880
  0.858000,  0.035810
  0.860000,  0.041590
  0.862000,  0.049930
  0.864000,  0.053590
  0.866000,  0.060960
  0.868000,  0.069340
  0.870000,  0.081930
  0.872000,  0.091680
  0.874000,  0.103710
  0.876000,  0.120280
  0.878000,  0.137970
  0.880000,  0.155500
  0.882000,  0.173750
  0.884000,  0.186090
  0.886000,  0.201350
  0.888000,  0.210250
  0.890000,  0.214690
  0.892000,  0.213230
  0.894000,  0.210450
  0.896000,  0.207880
  0.898000,  0.196490
  0.900000,  0.190090
  0.902000,  0.177160
  0.904000,  0.169930
  0.906000,  0.160140
  0.908000,  0.154680
  0.910000,  0.152430
  0.912000,  0.158860
  0.914000,  0.167160
  0.916000,  0.174260
  0.918000,  0.185070
  0.920000,  0.187700
  0.922000,  0.189510
  0.924000,  0.192590
  0.926000,  0.195390
  0.928000,  0.193800
  0.930000,  0.186800
  0.932000,  0.178160
  0.934000,  0.172570
  0.936000,  0.166090
  0.938000,  0.155160
  0.940000,  0.143730
  0.942000,  0.132250
  0.944000,  0.119580
  0.946000,  0.104450
  0.948000,  0.084530
  0.950000,  0.061800
  0.952000,  0.037670
  0.954000,  0.005340
  0.956000, -0.024740
  0.958000, -0.055440
  0.960000, -0.081980
  0.962000, -0.107970
  0.964000, -0.134090
  0.966000, -0.150290
  0.968000, -0.163560
  0.970000, -0.172900
  0.972000, -0.180640
  0.974000, -0.182250
  0.976000, -0.186740
  0.978000, -0.188780
  0.980000, -0.185720
  0.982000, -0.187790
  0.984000, -0.187770
  0.986000, -0.191470
  0.988000, -0.200850
  0.990000, -0.207940
  0.992000, -0.218650
  0.994000, -0.230600
  0.996000, -0.241940
  0.998000, -0.255620
  1.000000, -0.269060
