# z (nm)   (kJ/mol)
  0.076000,259.429820
  0.078000,256.591860
  0.080000,254.099580
  0.082000,251.773510
  0.084000,250.214220
  0.086000,247.702400
  0.088000,253.384670
  0.090000,249.810580
  0.092000,247.080600
  0.094000,244.317750
  0.096000,241.559240
  0.098000,238.870830
  0.100000,236.184540
  0.102000,233.422070
  0.104000,230.606250
  0.106000,227.704220
  0.108000,224.689810
  0.110000,221.540250
  0.112000,218.238780
  0.114000,214.781150
  0.116000,211.178550
  0.118000,207.444360
  0.120000,203.612130
  0.122000,199.720990
  0.124000,195.801430
  0.126000,191.860700
  0.128000,187.898720
  0.130000,183.889260
  0.132000,179.806930
  0.134000,175.655900
  0.136000,171.446030
  0.138000,167.222400
  0.140000,163.043710
  0.142000,158.966190
  0.144000,155.029150
  0.146000,151.238560
  0.148000,147.594620
  0.150000,144.075690
  0.152000,140.653790
  0.154000,137.304760
  0.156000,133.997690
  0.158000,130.717960
  0.160000,127.454040
  0.162000,124.211420
  0.164000,120.992210
  0.166000,117.787250
  0.168000,114.583700
  0.170000,111.368870
  0.172000,108.146810
  0.174000,104.959600
  0.176000,101.855380
  0.178000, 98.871360
  0.180000, 96.002930
  0.182000, 93.221830
  0.184000, 90.482480
  0.186000, 87.750810
  0.188000, 85.023120
  0.190000, 82.302310
  0.192000, 79.596870
  0.194000, 76.923310
  0.196000, 74.293770
  0.198000, 71.716360
  0.200000, 69.198670
  0.202000, 66.749400
  0.204000, 64.370360
  0.206000, 62.049310
  0.208000, 59.784950
  0.210000, 57.559410
  0.212000, 55.357740
  0.214000, 53.162630
  0.216000, 50.967820
  0.218000, 48.786720
  0.220000, 46.624280
  0.222000, 44.510710
  0.224000, 42.471900
  0.226000, 40.502840
  0.228000, 38.613670
  0.230000, 36.798020
  0.232000, 35.049830
  0.234000, 33.354920
  0.236000, 31.712080
  0.238000, 30.100400
  0.240000, 28.512580
  0.242000, 26.946680
  0.244000, 25.399510
  0.246000, 23.848090
  0.248000, 22.305210
  0.250000, 20.795080
  0.252000, 19.323760
  0.254000, 17.916670
  0.256000, 16.594050
  0.258000, 15.348100
  0.260000, 14.201110
  0.262000, 13.117940
  0.264000, 12.076240
  0.266000, 11.066680
  0.268000, 10.063460
  0.270000,  9.059060
  0.272000,  8.047670
  0.274000,  7.029640
  0.276000,  6.024000
  0.278000,  5.052410
  0.280000,  4.138350
  0.282000,  3.306020
  0.284000,  2.566190
  0.286000,  1.914080
  0.288000,  1.329910
  0.290000,  0.796980
  0.292000,  0.284800
  0.294000, -0.228390
  0.296000, -0.756710
  0.298000, -1.303090
  0.300000, -1.847100
  0.302000, -2.367840
  0.304000, -2.855610
  0.306000, -3.291980
  0.308000, -3.687520
  0.310000, -4.031860
  0.312000, -4.338690
  0.314000, -4.615190
  0.316000, -4.873960
  0.318000, -5.131120
  0.320000, -5.385430
  0.322000, -5.643940
  0.324000, -5.880590
  0.326000, -6.074540
  0.328000, -6.206340
  0.330000, -6.300820
  0.332000, -6.373760
  0.334000, -6.459970
  0.336000, -6.568840
  0.338000, -6.705450
  0.340000, -6.852130
  0.342000, -6.977150
  0.344000, -7.079540
  0.346000, -7.170210
  0.348000, -7.242990
  0.350000, -7.305330
  0.352000, -7.388540
  0.354000, -7.473950
  0.356000, -7.581230
  0.358000, -7.700960
  0.360000, -7.814530
  0.362000, -7.913950
  0.364000, -7.993660
  0.366000, -8.056590
  0.368000, -8.100980
  0.370000, -8.124240
  0.372000, -8.141460
  0.374000, -8.159360
  0.376000, -8.191010
  0.378000, -8.230300
  0.380000, -8.287020
  0.382000, -8.336030
  0.384000, -8.368980
  0.386000, -8.383020
  0.388000, -8.369570
  0.390000, -8.329010
  0.392000, -8.265480
  0.394000, -8.184390
  0.396000, -8.094560
  0.398000, -7.995950
  0.400000, -7.898500
  0.402000, -7.801670
  0.404000, -7.716230
  0.406000, -7.631230
  0.408000, -7.560750
  0.410000, -7.491340
  0.412000, -7.416990
  0.414000, -7.328850
  0.416000, -7.237930
  0.418000, -7.120750
  0.420000, -6.982650
  0.422000, -6.831590
  0.424000, -6.670150
  0.426000, -6.504040
  0.428000, -6.344690
  0.430000, -6.198770
  0.432000, -6.065030
  0.434000, -5.943500
  0.436000, -5.826110
  0.438000, -5.723410
  0.440000, -5.618380
  0.442000, -5.514440
  0.444000, -5.400410
  0.446000, -5.282640
  0.448000, -5.164660
  0.450000, -5.045320
  0.452000, -4.927880
  0.454000, -4.814840
  0.456000, -4.719660
  0.458000, -4.630780
  0.460000, -4.541610
  0.462000, -4.465060
  0.464000, -4.396510
  0.466000, -4.324710
  0.468000, -4.248500
  0.470000, -4.158460
  0.472000, -4.051650
  0.474000, -3.925470
  0.476000, -3.776480
  0.478000, -3.602870
  0.480000, -3.427620
  0.482000, -3.266400
  0.484000, -3.110860
  0.486000, -2.968000
  0.488000, -2.846150
  0.490000, -2.738900
  0.492000, -2.645780
  0.494000, -2.553790
  0.496000, -2.462070
  0.498000, -2.364820
  0.500000, -2.262160
  0.502000, -2.144320
  0.504000, -2.021530
  0.506000, -1.883550
  0.508000, -1.733090
  0.510000, -1.573010
  0.512000, -1.410130
  0.514000, -1.261170
  0.516000, -1.121100
  0.518000, -1.009320
  0.520000, -0.927410
  0.522000, -0.870300
  0.524000, -0.829100
  0.526000, -0.786310
  0.528000, -0.734790
  0.530000, -0.666430
  0.532000, -0.582800
  0.534000, -0.486150
  0.536000, -0.392840
  0.538000, -0.294580
  0.540000, -0.194670
  0.542000, -0.108820
  0.544000, -0.025800
  0.546000,  0.051210
  0.548000,  0.122330
  0.550000,  0.188760
  0.552000,  0.237390
  0.554000,  0.285250
  0.556000,  0.320960
  0.558000,  0.334690
  0.560000,  0.335120
  0.562000,  0.315060
  0.564000,  0.280360
  0.566000,  0.242410
  0.568000,  0.210840
  0.570000,  0.188320
  0.572000,  0.181900
  0.574000,  0.190640
  0.576000,  0.212300
  0.578000,  0.238950
  0.580000,  0.257020
  0.582000,  0.267860
  0.584000,  0.269010
  0.586000,  0.262320
  0.588000,  0.237620
  0.590000,  0.206020
  0.592000,  0.161780
  0.594000,  0.114860
  0.596000,  0.073430
  0.598000,  0.029860
  0.600000, -0.009750
  0.602000, -0.046080
  0.604000, -0.083820
  0.606000, -0.123550
  0.608000, -0.157970
  0.610000, -0.196430
  0.612000, -0.235420
  0.614000, -0.268220
  0.616000, -0.301650
  0.618000, -0.330250
  0.620000, -0.357680
  0.622000, -0.385370
  0.624000, -0.403000
  0.626000, -0.418070
  0.628000, -0.436440
  0.630000, -0.456730
  0.632000, -0.484510
  0.634000, -0.518530
  0.636000, -0.555450
  0.638000, -0.600910
  0.640000, -0.647600
  0.642000, -0.694750
  0.644000, -0.744800
  0.646000, -0.791340
  0.648000, -0.833100
  0.650000, -0.864810
  0.652000, -0.892360
  0.654000, -0.909390
  0.656000, -0.923590
  0.658000, -0.926300
  0.660000, -0.923180
  0.662000, -0.910370
  0.664000, -0.899700
  0.666000, -0.893610
  0.668000, -0.881080
  0.670000, -0.875200
  0.672000, -0.875930
  0.674000, -0.884060
  0.676000, -0.896600
  0.678000, -0.904850
  0.680000, -0.918870
  0.682000, -0.905930
  0.684000, -0.894300
  0.686000, -0.875650
  0.688000, -0.850940
  0.690000, -0.813080
  0.692000, -0.777710
  0.694000, -0.738600
  0.696000, -0.697860
  0.698000, -0.666480
  0.700000, -0.637650
  0.702000, -0.607280
  0.704000, -0.576050
  0.706000, -0.546210
  0.708000, -0.520260
  0.710000, -0.496120
  0.712000, -0.467940
  0.714000, -0.453180
  0.716000, -0.446530
  0.718000, -0.445660
  0.720000, -0.451320
  0.722000, -0.461370
  0.724000, -0.471530
  0.726000, -0.482520
  0.728000, -0.492380
  0.730000, -0.488390
  0.732000, -0.473140
  0.734000, -0.451110
  0.736000, -0.420290
  0.738000, -0.374080
  0.740000, -0.324700
  0.742000, -0.272350
  0.744000, -0.219180
  0.746000, -0.173820
  0.748000, -0.130710
  0.750000, -0.097770
  0.752000, -0.073560
  0.754000, -0.065710
  0.756000, -0.064630
  0.758000, -0.073770
  0.760000, -0.106330
  0.762000, -0.138070
  0.764000, -0.188940
  0.766000, -0.237380
  0.768000, -0.286910
  0.770000, -0.327440
  0.772000, -0.364210
  0.774000, -0.387040
  0.776000, -0.383060
  0.778000, -0.365650
  0.780000, -0.328990
  0.782000, -0.280020
  0.784000, -0.225200
  0.786000, -0.159370
  0.788000, -0.101260
  0.790000, -0.052220
  0.792000, -0.017270
  0.794000, -0.000050
  0.796000,  0.004130
  0.798000, -0.012520
  0.800000, -0.034350
  0.802000, -0.059550
  0.804000, -0.080400
  0.806000, -0.105800
  0.808000, -0.112840
  0.810000, -0.107310
  0.812000, -0.089410
  0.814000, -0.062820
  0.816000, -0.025010
  0.818000,  0.010170
  0.820000,  0.043920
  0.822000,  0.074650
  0.824000,  0.092010
  0.826000,  0.099270
  0.828000,  0.097770
  0.830000,  0.083620
  0.832000,  0.074200
  0.834000,  0.056480
  0.836000,  0.042630
  0.838000,  0.033520
  0.840000,  0.020380
  0.842000,  0.011840
  0.844000,  0.006190
  0.846000,  0.003770
  0.848000,  0.008470
  0.850000,  0.016630
  0.852000,  0.030020
  0.854000,  0.047670
  0.856000,  0.066110
  0.858000,  0.079760
  0.860000,  0.097390
  0.862000,  0.112720
  0.864000,  0.123800
  0.866000,  0.130640
  0.868000,  0.134440
  0.870000,  0.137610
  0.872000,  0.137400
  0.874000,  0.137290
  0.876000,  0.140580
  0.878000,  0.144910
  0.880000,  0.154250
  0.882000,  0.165110
  0.884000,  0.170240
  0.886000,  0.179990
  0.888000,  0.186770
  0.890000,  0.175120
  0.892000,  0.153390
  0.894000,  0.133060
  0.896000,  0.115140
  0.898000,  0.092320
  0.900000,  0.070530
  0.902000,  0.048810
  0.904000,  0.031360
  0.906000,  0.020870
  0.908000,  0.008010
  0.910000,  0.000510
  0.912000, -0.009940
  0.914000, -0.019840
  0.916000, -0.027730
  0.918000, -0.031300
  0.920000, -0.034530
  0.922000, -0.043340
  0.924000, -0.047460
  0.926000, -0.047950
  0.928000, -0.053030
  0.930000, -0.065630
  0.932000, -0.072470
  0.934000, -0.078030
  0.936000, -0.091520
  0.938000, -0.097610
  0.940000, -0.106680
  0.942000, -0.111500
  0.944000, -0.112070
  0.946000, -0.100730
  0.948000, -0.075830
  0.950000, -0.041770
  0.952000, -0.003260
  0.954000,  0.036720
  0.956000,  0.081970
  0.958000,  0.116650
  0.960000,  0.145640
  0.962000,  0.163380
  0.964000,  0.171440
  0.966000,  0.161760
  0.968000,  0.140470
  0.970000,  0.115460
  0.972000,  0.081310
  0.974000,  0.038350
  0.976000,  0.005580
  0.978000, -0.020450
  0.980000, -0.035190
  0.982000, -0.050780
  0.984000, -0.059120
  0.986000, -0.059180
  0.988000, -0.047430
  0.990000, -0.031750
  0.992000, -0.011390
  0.994000,  0.016150
  0.996000,  0.042630
  0.998000,  0.069460
  1.000000,  0.090980
