# z (nm)   (kJ/mol)
  0.074000,262.142570
  0.076000,259.954320
  0.078000,257.810560
  0.080000,255.453150
  0.082000,253.209950
  0.084000,250.888590
  0.086000,248.763200
  0.088000,246.607880
  0.090000,244.369540
  0.092000,242.121840
  0.094000,239.869750
  0.096000,237.561430
  0.098000,235.174940
  0.100000,232.702660
  0.102000,230.124780
  0.104000,227.421820
  0.106000,224.578680
  0.108000,221.578770
  0.110000,218.401930
  0.112000,215.045310
  0.114000,211.502540
  0.116000,207.774610
  0.118000,203.880450
  0.120000,199.838890
  0.122000,195.683360
  0.124000,191.453090
  0.126000,187.192510
  0.128000,182.951330
  0.130000,178.766500
  0.132000,174.668450
  0.134000,170.678790
  0.136000,166.811880
  0.138000,163.070770
  0.140000,159.448100
  0.142000,155.935350
  0.144000,152.519340
  0.146000,149.184370
  0.148000,145.908910
  0.150000,142.677250
  0.152000,139.459650
  0.154000,136.230480
  0.156000,132.969590
  0.158000,129.681400
  0.160000,126.400270
  0.162000,123.190110
  0.164000,120.117920
  0.166000,117.234020
  0.168000,114.546790
  0.170000,111.996400
  0.172000,109.500660
  0.174000,106.984740
  0.176000,104.409010
  0.178000,101.755100
  0.180000, 99.039640
  0.182000, 96.302170
  0.184000, 93.570410
  0.186000, 90.882320
  0.188000, 88.253720
  0.190000, 85.695930
  0.192000, 83.206700
  0.194000, 80.777000
  0.196000, 78.402720
  0.198000, 76.089050
  0.200000, 73.827690
  0.202000, 71.627930
  0.204000, 69.477650
  0.206000, 67.366030
  0.208000, 65.271060
  0.210000, 63.172840
  0.212000, 61.046440
  0.214000, 58.906590
  0.216000, 56.770690
  0.218000, 54.650890
  0.220000, 52.570060
  0.222000, 50.555030
  0.224000, 48.605670
  0.226000, 46.727940
  0.228000, 44.913000
  0.230000, 43.149930
  0.232000, 41.416720
  0.234000, 39.710670
  0.236000, 38.026560
  0.238000, 36.355490
  0.240000, 34.715410
  0.242000, 33.124540
  0.244000, 31.592590
  0.246000, 30.139220
  0.248000, 28.742020
  0.250000, 27.394320
  0.252000, 26.068990
  0.254000, 24.750180
  0.256000, 23.436800
  0.258000, 22.120730
  0.260000, 20.828130
  0.262000, 19.578520
  0.264000, 18.390470
  0.266000, 17.265510
  0.268000, 16.210990
  0.270000, 15.218910
  0.272000, 14.271460
  0.274000, 13.336720
  0.276000, 12.403210
  0.278000, 11.469040
  0.280000, 10.523610
  0.282000,  9.597930
  0.284000,  8.708940
  0.286000,  7.888410
  0.288000,  7.133350
  0.290000,  6.462120
  0.292000,  5.840410
  0.294000,  5.270720
  0.296000,  4.740140
  0.298000,  4.213860
  0.300000,  3.683720
  0.302000,  3.139270
  0.304000,  2.604350
  0.306000,  2.074520
  0.308000,  1.564900
  0.310000,  1.080830
  0.312000,  0.631470
  0.314000,  0.238820
  0.316000, -0.108000
  0.318000, -0.416200
  0.320000, -0.698030
  0.322000, -0.958100
  0.324000, -1.220200
  0.326000, -1.476580
  0.328000, -1.718580
  0.330000, -1.938420
  0.332000, -2.148200
  0.334000, -2.336510
  0.336000, -2.528270
  0.338000, -2.722260
  0.340000, -2.908290
  0.342000, -3.080850
  0.344000, -3.219200
  0.346000, -3.313010
  0.348000, -3.367530
  0.350000, -3.373280
  0.352000, -3.344770
  0.354000, -3.293150
  0.356000, -3.246670
  0.358000, -3.209010
  0.360000, -3.194730
  0.362000, -3.216330
  0.364000, -3.269220
  0.366000, -3.349080
  0.368000, -3.443220
  0.370000, -3.531040
  0.372000, -3.602680
  0.374000, -3.640170
  0.376000, -3.646970
  0.378000, -3.621200
  0.380000, -3.583730
  0.382000, -3.541500
  0.384000, -3.515130
  0.386000, -3.520330
  0.388000, -3.559860
  0.390000, -3.627360
  0.392000, -3.730330
  0.394000, -3.844130
  0.396000, -3.948410
  0.398000, -4.039880
  0.400000, -4.110060
  0.402000, -4.142000
  0.404000, -4.153810
  0.406000, -4.151210
  0.408000, -4.125740
  0.410000, -4.103320
  0.412000, -4.083490
  0.414000, -4.068300
  0.416000, -4.070050
  0.418000, -4.079420
  0.420000, -4.085560
  0.422000, -4.097060
  0.424000, -4.102630
  0.426000, -4.089790
  0.428000, -4.065140
  0.430000, -4.014360
  0.432000, -3.943340
  0.434000, -3.855260
  0.436000, -3.762880
  0.438000, -3.661750
  0.440000, -3.575010
  0.442000, -3.490150
  0.444000, -3.423090
  0.446000, -3.355920
  0.448000, -3.303210
  0.450000, -3.242940
  0.452000, -3.177800
  0.454000, -3.100750
  0.456000, -3.021810
  0.458000, -2.922840
  0.460000, -2.816640
  0.462000, -2.698160
  0.464000, -2.571280
  0.466000, -2.440670
  0.468000, -2.305750
  0.470000, -2.173810
  0.472000, -2.034920
  0.474000, -1.893440
  0.476000, -1.749900
  0.478000, -1.600720
  0.480000, -1.451800
  0.482000, -1.302310
  0.484000, -1.149200
  0.486000, -0.998290
  0.488000, -0.846430
  0.490000, -0.691680
  0.492000, -0.526400
  0.494000, -0.349570
  0.496000, -0.157240
  0.498000,  0.034240
  0.500000,  0.229610
  0.502000,  0.423500
  0.504000,  0.610610
  0.506000,  0.776770
  0.508000,  0.912590
  0.510000,  1.030550
  0.512000,  1.116000
  0.514000,  1.172720
  0.516000,  1.222710
  0.518000,  1.275170
  0.520000,  1.314520
  0.522000,  1.375580
  0.524000,  1.444690
  0.526000,  1.535830
  0.528000,  1.639330
  0.530000,  1.754660
  0.532000,  1.861100
  0.534000,  1.961380
  0.536000,  2.033330
  0.538000,  2.077950
  0.540000,  2.082200
  0.542000,  2.055490
  0.544000,  1.994540
  0.546000,  1.915490
  0.548000,  1.848300
  0.550000,  1.799450
  0.552000,  1.780280
  0.554000,  1.790720
  0.556000,  1.819050
  0.558000,  1.852690
  0.560000,  1.876570
  0.562000,  1.869650
  0.564000,  1.823130
  0.566000,  1.742250
  0.568000,  1.628510
  0.570000,  1.499230
  0.572000,  1.363400
  0.574000,  1.237830
  0.576000,  1.128580
  0.578000,  1.027720
  0.580000,  0.939630
  0.582000,  0.868740
  0.584000,  0.809160
  0.586000,  0.743570
  0.588000,  0.678700
  0.590000,  0.611280
  0.592000,  0.542020
  0.594000,  0.458590
  0.596000,  0.373500
  0.598000,  0.284680
  0.600000,  0.195820
  0.602000,  0.110320
  0.604000,  0.017000
  0.606000, -0.063010
  0.608000, -0.140120
  0.610000, -0.208230
  0.612000, -0.272550
  0.614000, -0.324170
  0.616000, -0.373720
  0.618000, -0.416760
  0.620000, -0.454720
  0.622000, -0.493440
  0.624000, -0.526280
  0.626000, -0.558450
  0.628000, -0.587150
  0.630000, -0.614890
  0.632000, -0.641510
  0.634000, -0.668440
  0.636000, -0.685090
  0.638000, -0.699010
  0.640000, -0.707630
  0.642000, -0.713570
  0.644000, -0.718220
  0.646000, -0.716870
  0.648000, -0.719560
  0.650000, -0.721780
  0.652000, -0.726410
  0.654000, -0.739430
  0.656000, -0.761850
  0.658000, -0.778340
  0.660000, -0.800850
  0.662000, -0.824010
  0.664000, -0.842920
  0.666000, -0.853440
  0.668000, -0.860290
  0.670000, -0.858160
  0.672000, -0.848510
  0.674000, -0.827650
  0.676000, -0.801300
  0.678000, -0.773400
  0.680000, -0.745490
  0.682000, -0.717180
  0.684000, -0.689120
  0.686000, -0.664690
  0.688000, -0.648480
  0.690000, -0.627560
  0.692000, -0.615820
  0.694000, -0.602820
  0.696000, -0.585760
  0.698000, -0.576990
  0.700000, -0.562290
  0.702000, -0.548330
  0.704000, -0.541820
  0.706000, -0.529460
  0.708000, -0.526630
  0.710000, -0.523540
  0.712000, -0.534880
  0.714000, -0.539280
  0.716000, -0.539850
  0.718000, -0.533840
  0.720000, -0.527240
  0.722000, -0.521330
  0.724000, -0.509430
  0.726000, -0.495010
  0.728000, -0.483800
  0.730000, -0.469530
  0.732000, -0.450560
  0.734000, -0.432360
  0.736000, -0.415020
  0.738000, -0.397830
  0.740000, -0.379540
  0.742000, -0.355230
  0.744000, -0.334580
  0.746000, -0.310470
  0.748000, -0.279360
  0.750000, -0.247050
  0.752000, -0.211520
  0.754000, -0.175560
  0.756000, -0.142330
  0.758000, -0.095960
  0.760000, -0.057920
  0.762000, -0.022010
  0.764000,  0.008950
  0.766000,  0.037880
  0.768000,  0.056850
  0.770000,  0.070350
  0.772000,  0.068620
  0.774000,  0.063740
  0.776000,  0.040850
  0.778000,  0.019460
  0.780000,  0.001810
  0.782000, -0.011550
  0.784000, -0.016570
  0.786000, -0.010430
  0.788000,  0.006190
  0.790000,  0.033910
  0.792000,  0.073320
  0.794000,  0.113900
  0.796000,  0.153290
  0.798000,  0.191570
  0.800000,  0.214550
  0.802000,  0.226220
  0.804000,  0.227710
  0.806000,  0.213980
  0.808000,  0.193820
  0.810000,  0.166550
  0.812000,  0.140690
  0.814000,  0.109340
  0.816000,  0.083300
  0.818000,  0.064530
  0.820000,  0.048600
  0.822000,  0.040150
  0.824000,  0.038460
  0.826000,  0.042630
  0.828000,  0.047220
  0.830000,  0.055130
  0.832000,  0.062940
  0.834000,  0.081010
  0.836000,  0.093520
  0.838000,  0.110410
  0.840000,  0.131510
  0.842000,  0.149340
  0.844000,  0.162950
  0.846000,  0.187840
  0.848000,  0.208620
  0.850000,  0.225770
  0.852000,  0.242310
  0.854000,  0.248980
  0.856000,  0.258870
  0.858000,  0.262930
  0.860000,  0.271040
  0.862000,  0.273700
  0.864000,  0.271290
  0.866000,  0.280910
  0.868000,  0.281410
  0.870000,  0.282940
  0.872000,  0.287600
  0.874000,  0.290850
  0.876000,  0.290650
  0.878000,  0.292270
  0.880000,  0.289120
  0.882000,  0.283130
  0.884000,  0.269270
  0.886000,  0.267300
  0.888000,  0.243850
  0.890000,  0.226140
  0.892000,  0.208310
  0.894000,  0.188380
  0.896000,  0.175700
  0.898000,  0.167150
  0.900000,  0.165230
  0.902000,  0.162870
  0.904000,  0.156230
  0.906000,  0.144320
  0.908000,  0.125810
  0.910000,  0.100830
  0.912000,  0.071940
  0.914000,  0.050450
  0.916000,  0.031040
  0.918000,  0.028060
  0.920000,  0.035980
  0.922000,  0.053090
  0.924000,  0.074450
  0.926000,  0.091180
  0.928000,  0.097100
  0.930000,  0.101080
  0.932000,  0.088240
  0.934000,  0.068520
  0.936000,  0.043990
  0.938000,  0.010390
  0.940000, -0.022310
  0.942000, -0.045000
  0.944000, -0.059730
  0.946000, -0.061670
  0.948000, -0.064680
  0.950000, -0.056920
  0.952000, -0.047230
  0.954000, -0.043080
  0.956000, -0.035030
  0.958000, -0.034060
  0.960000, -0.031910
  0.962000, -0.033250
  0.964000, -0.035280
  0.966000, -0.037450
  0.968000, -0.048330
  0.970000, -0.053370
  0.972000, -0.064120
  0.974000, -0.069540
  0.976000, -0.072910
  0.978000, -0.075930
  0.980000, -0.080910
  0.982000, -0.082140
  0.984000, -0.080060
  0.986000, -0.074090
  0.988000, -0.067720
  0.990000, -0.054950
  0.992000, -0.036670
  0.994000, -0.026700
  0.996000, -0.018830
  0.998000, -0.011840
  1.000000, -0.009880
