# z (nm)   (kJ/mol)
  0.090000,262.838660
  0.092000,260.684590
  0.094000,257.954950
  0.096000,255.857570
  0.098000,253.528440
  0.100000,251.456460
  0.102000,249.359150
  0.104000,247.202230
  0.106000,245.020580
  0.108000,242.837800
  0.110000,240.595040
  0.112000,238.269370
  0.114000,235.846480
  0.116000,233.301860
  0.118000,230.621480
  0.120000,227.783880
  0.122000,224.776860
  0.124000,221.585170
  0.126000,218.202630
  0.128000,214.629090
  0.130000,210.875450
  0.132000,206.955010
  0.134000,202.888960
  0.136000,198.697710
  0.138000,194.395210
  0.140000,190.008140
  0.142000,185.539200
  0.144000,181.015310
  0.146000,176.467700
  0.148000,171.958050
  0.150000,167.555490
  0.152000,163.326020
  0.154000,159.318310
  0.156000,155.534820
  0.158000,151.920690
  0.160000,148.387550
  0.162000,144.837320
  0.164000,141.199530
  0.166000,137.452710
  0.168000,133.635470
  0.170000,129.832910
  0.172000,126.129310
  0.174000,122.590690
  0.176000,119.230250
  0.178000,116.003250
  0.180000,112.840940
  0.182000,109.703830
  0.184000,106.578460
  0.186000,103.458380
  0.188000,100.354530
  0.190000, 97.259300
  0.192000, 94.159540
  0.194000, 91.055610
  0.196000, 87.956500
  0.198000, 84.910720
  0.200000, 81.959730
  0.202000, 79.118730
  0.204000, 76.377510
  0.206000, 73.698990
  0.208000, 71.030270
  0.210000, 68.343060
  0.212000, 65.634220
  0.214000, 62.920870
  0.216000, 60.249890
  0.218000, 57.658480
  0.220000, 55.171930
  0.222000, 52.803630
  0.224000, 50.552800
  0.226000, 48.391040
  0.228000, 46.304250
  0.230000, 44.255860
  0.232000, 42.222950
  0.234000, 40.178090
  0.236000, 38.133710
  0.238000, 36.095690
  0.240000, 34.088090
  0.242000, 32.136790
  0.244000, 30.262480
  0.246000, 28.486180
  0.248000, 26.802750
  0.250000, 25.205650
  0.252000, 23.670480
  0.254000, 22.174100
  0.256000, 20.712350
  0.258000, 19.290450
  0.260000, 17.908450
  0.262000, 16.592360
  0.264000, 15.357800
  0.266000, 14.188760
  0.268000, 13.079500
  0.270000, 12.010990
  0.272000, 10.972120
  0.274000,  9.943320
  0.276000,  8.928290
  0.278000,  7.921430
  0.280000,  6.947880
  0.282000,  6.020770
  0.284000,  5.158600
  0.286000,  4.356140
  0.288000,  3.626940
  0.290000,  2.967750
  0.292000,  2.372100
  0.294000,  1.819100
  0.296000,  1.309260
  0.298000,  0.829990
  0.300000,  0.363080
  0.302000, -0.089670
  0.304000, -0.515490
  0.306000, -0.922290
  0.308000, -1.285130
  0.310000, -1.626090
  0.312000, -1.938770
  0.314000, -2.237210
  0.316000, -2.516080
  0.318000, -2.771550
  0.320000, -3.015490
  0.322000, -3.243100
  0.324000, -3.445240
  0.326000, -3.617310
  0.328000, -3.754340
  0.330000, -3.888910
  0.332000, -4.019890
  0.334000, -4.166330
  0.336000, -4.325960
  0.338000, -4.502620
  0.340000, -4.696480
  0.342000, -4.887560
  0.344000, -5.061530
  0.346000, -5.205620
  0.348000, -5.314710
  0.350000, -5.398720
  0.352000, -5.471680
  0.354000, -5.549120
  0.356000, -5.627140
  0.358000, -5.730610
  0.360000, -5.857920
  0.362000, -5.989960
  0.364000, -6.114620
  0.366000, -6.226400
  0.368000, -6.311430
  0.370000, -6.371800
  0.372000, -6.403120
  0.374000, -6.409680
  0.376000, -6.397880
  0.378000, -6.376290
  0.380000, -6.356410
  0.382000, -6.352800
  0.384000, -6.357910
  0.386000, -6.369800
  0.388000, -6.378720
  0.390000, -6.379220
  0.392000, -6.370450
  0.394000, -6.333990
  0.396000, -6.280150
  0.398000, -6.208380
  0.400000, -6.137140
  0.402000, -6.067060
  0.404000, -6.001320
  0.406000, -5.941560
  0.408000, -5.888210
  0.410000, -5.835650
  0.412000, -5.788340
  0.414000, -5.750850
  0.416000, -5.718850
  0.418000, -5.685920
  0.420000, -5.656060
  0.422000, -5.636910
  0.424000, -5.623840
  0.426000, -5.620770
  0.428000, -5.609710
  0.430000, -5.606320
  0.432000, -5.606160
  0.434000, -5.606240
  0.436000, -5.596450
  0.438000, -5.588660
  0.440000, -5.571200
  0.442000, -5.545050
  0.444000, -5.509030
  0.446000, -5.472590
  0.448000, -5.433460
  0.450000, -5.404130
  0.452000, -5.382430
  0.454000, -5.366490
  0.456000, -5.346810
  0.458000, -5.311260
  0.460000, -5.261290
  0.462000, -5.178080
  0.464000, -5.074490
  0.466000, -4.954520
  0.468000, -4.832220
  0.470000, -4.719780
  0.472000, -4.615260
  0.474000, -4.534140
  0.476000, -4.459640
  0.478000, -4.389610
  0.480000, -4.308210
  0.482000, -4.199170
  0.484000, -4.065750
  0.486000, -3.907390
  0.488000, -3.723780
  0.490000, -3.530650
  0.492000, -3.324810
  0.494000, -3.122080
  0.496000, -2.922190
  0.498000, -2.725640
  0.500000, -2.539830
  0.502000, -2.366180
  0.504000, -2.194080
  0.506000, -2.021400
  0.508000, -1.849620
  0.510000, -1.664740
  0.512000, -1.457410
  0.514000, -1.244940
  0.516000, -1.035220
  0.518000, -0.826560
  0.520000, -0.636410
  0.522000, -0.471710
  0.524000, -0.324750
  0.526000, -0.186190
  0.528000, -0.063210
  0.530000,  0.059010
  0.532000,  0.183640
  0.534000,  0.316680
  0.536000,  0.448120
  0.538000,  0.587450
  0.540000,  0.719740
  0.542000,  0.841060
  0.544000,  0.932540
  0.546000,  1.015670
  0.548000,  1.079130
  0.550000,  1.127900
  0.552000,  1.168270
  0.554000,  1.205040
  0.556000,  1.250570
  0.558000,  1.305130
  0.560000,  1.358300
  0.562000,  1.404740
  0.564000,  1.442440
  0.566000,  1.470200
  0.568000,  1.484170
  0.570000,  1.476470
  0.572000,  1.458400
  0.574000,  1.436840
  0.576000,  1.409800
  0.578000,  1.374010
  0.580000,  1.347210
  0.582000,  1.320780
  0.584000,  1.290730
  0.586000,  1.260300
  0.588000,  1.229780
  0.590000,  1.196690
  0.592000,  1.168380
  0.594000,  1.135090
  0.596000,  1.102040
  0.598000,  1.068980
  0.600000,  1.020680
  0.602000,  0.963390
  0.604000,  0.892800
  0.606000,  0.816690
  0.608000,  0.731110
  0.610000,  0.649840
  0.612000,  0.567540
  0.614000,  0.503190
  0.616000,  0.448870
  0.618000,  0.408330
  0.620000,  0.385450
  0.622000,  0.382210
  0.624000,  0.375530
  0.626000,  0.376630
  0.628000,  0.362300
  0.630000,  0.334140
  0.632000,  0.270270
  0.634000,  0.174860
  0.636000,  0.046500
  0.638000, -0.091270
  0.640000, -0.231320
  0.642000, -0.343470
  0.644000, -0.421690
  0.646000, -0.442820
  0.648000, -0.421270
  0.650000, -0.363360
  0.652000, -0.294510
  0.654000, -0.232080
  0.656000, -0.190690
  0.658000, -0.174780
  0.660000, -0.183570
  0.662000, -0.214050
  0.664000, -0.259860
  0.666000, -0.302560
  0.668000, -0.330450
  0.670000, -0.352480
  0.672000, -0.371820
  0.674000, -0.383150
  0.676000, -0.387640
  0.678000, -0.393520
  0.680000, -0.397980
  0.682000, -0.406100
  0.684000, -0.411020
  0.686000, -0.415060
  0.688000, -0.417130
  0.690000, -0.412320
  0.692000, -0.401830
  0.694000, -0.382070
  0.696000, -0.360890
  0.698000, -0.331640
  0.700000, -0.305910
  0.702000, -0.283350
  0.704000, -0.256440
  0.706000, -0.234870
  0.708000, -0.218270
  0.710000, -0.214200
  0.712000, -0.215280
  0.714000, -0.222710
  0.716000, -0.231860
  0.718000, -0.240170
  0.720000, -0.255460
  0.722000, -0.270280
  0.724000, -0.275390
  0.726000, -0.280470
  0.728000, -0.276590
  0.730000, -0.269110
  0.732000, -0.253390
  0.734000, -0.225590
  0.736000, -0.199750
  0.738000, -0.167870
  0.740000, -0.132500
  0.742000, -0.100370
  0.744000, -0.062410
  0.746000, -0.026190
  0.748000,  0.007620
  0.750000,  0.034980
  0.752000,  0.059910
  0.754000,  0.084780
  0.756000,  0.094310
  0.758000,  0.107050
  0.760000,  0.118390
  0.762000,  0.124520
  0.764000,  0.126020
  0.766000,  0.131510
  0.768000,  0.148930
  0.770000,  0.158350
  0.772000,  0.177320
  0.774000,  0.198510
  0.776000,  0.226670
  0.778000,  0.248270
  0.780000,  0.282150
  0.782000,  0.313040
  0.784000,  0.329450
  0.786000,  0.346650
  0.788000,  0.359020
  0.790000,  0.363680
  0.792000,  0.363360
  0.794000,  0.344070
  0.796000,  0.324190
  0.798000,  0.302590
  0.800000,  0.279100
  0.802000,  0.256640
  0.804000,  0.243710
  0.806000,  0.232110
  0.808000,  0.233630
  0.810000,  0.245820
  0.812000,  0.265840
  0.814000,  0.287280
  0.816000,  0.305570
  0.818000,  0.318860
  0.820000,  0.336940
  0.822000,  0.362730
  0.824000,  0.376500
  0.826000,  0.395950
  0.828000,  0.416580
  0.830000,  0.443150
  0.832000,  0.466470
  0.834000,  0.485090
  0.836000,  0.502800
  0.838000,  0.517030
  0.840000,  0.512220
  0.842000,  0.500130
  0.844000,  0.481160
  0.846000,  0.457280
  0.848000,  0.435400
  0.850000,  0.413610
  0.852000,  0.396160
  0.854000,  0.380700
  0.856000,  0.375810
  0.858000,  0.377970
  0.860000,  0.383440
  0.862000,  0.390440
  0.864000,  0.392520
  0.866000,  0.396910
  0.868000,  0.397230
  0.870000,  0.388630
  0.872000,  0.370450
  0.874000,  0.356650
  0.876000,  0.344950
  0.878000,  0.330740
  0.880000,  0.312510
  0.882000,  0.301930
  0.884000,  0.298510
  0.886000,  0.288500
  0.888000,  0.266180
  0.890000,  0.244110
  0.892000,  0.221450
  0.894000,  0.192460
  0.896000,  0.165180
  0.898000,  0.148630
  0.900000,  0.138790
  0.902000,  0.140160
  0.904000,  0.150420
  0.906000,  0.166390
  0.908000,  0.182310
  0.910000,  0.201990
  0.912000,  0.203600
  0.914000,  0.192230
  0.916000,  0.177820
  0.918000,  0.156580
  0.920000,  0.136120
  0.922000,  0.122690
  0.924000,  0.115490
  0.926000,  0.108950
  0.928000,  0.110500
  0.930000,  0.111550
  0.932000,  0.122870
  0.934000,  0.126020
  0.936000,  0.122180
  0.938000,  0.108860
  0.940000,  0.097310
  0.942000,  0.082490
  0.944000,  0.069510
  0.946000,  0.060440
  0.948000,  0.045590
  0.950000,  0.030660
  0.952000,  0.021070
  0.954000,  0.013180
  0.956000,  0.011910
  0.958000, -0.000410
  0.960000, -0.008470
  0.962000, -0.021510
  0.964000, -0.032680
  0.966000, -0.047300
  0.968000, -0.062060
  0.970000, -0.083780
  0.972000, -0.102010
  0.974000, -0.122050
  0.976000, -0.138790
  0.978000, -0.152950
  0.980000, -0.165090
  0.982000, -0.178330
  0.984000, -0.190840
  0.986000, -0.201240
  0.988000, -0.205670
  0.990000, -0.218460
  0.992000, -0.225820
  0.994000, -0.236530
  0.996000, -0.245750
  0.998000, -0.264310
  1.000000, -0.284840
