# z (nm)   (kJ/mol)
  0.078000,257.849950
  0.080000,255.602880
  0.082000,253.388870
  0.084000,251.204540
  0.086000,248.679470
  0.088000,246.124070
  0.090000,243.807850
  0.092000,241.432690
  0.094000,239.011560
  0.096000,236.536810
  0.098000,233.982110
  0.100000,231.337900
  0.102000,228.594430
  0.104000,225.739120
  0.106000,222.753740
  0.108000,219.624310
  0.110000,216.341290
  0.112000,212.901150
  0.114000,209.294830
  0.116000,205.518740
  0.118000,201.576970
  0.120000,197.479450
  0.122000,193.241280
  0.124000,188.881680
  0.126000,184.431400
  0.128000,179.931020
  0.130000,175.414970
  0.132000,170.921780
  0.134000,166.488050
  0.136000,162.147290
  0.138000,157.930060
  0.140000,153.842800
  0.142000,149.889680
  0.144000,146.054230
  0.146000,142.315830
  0.148000,138.649330
  0.150000,135.025600
  0.152000,131.431810
  0.154000,127.864160
  0.156000,124.330920
  0.158000,120.858410
  0.160000,117.470730
  0.162000,114.189520
  0.164000,111.014460
  0.166000,107.933540
  0.168000,104.893740
  0.170000,101.843370
  0.172000, 98.728290
  0.174000, 95.518020
  0.176000, 92.235170
  0.178000, 88.906810
  0.180000, 85.596090
  0.182000, 82.375770
  0.184000, 79.295460
  0.186000, 76.384170
  0.188000, 73.651780
  0.190000, 71.072160
  0.192000, 68.591910
  0.194000, 66.165500
  0.196000, 63.740990
  0.198000, 61.278830
  0.200000, 58.782550
  0.202000, 56.269660
  0.204000, 53.783140
  0.206000, 51.369660
  0.208000, 49.065550
  0.210000, 46.892510
  0.212000, 44.855340
  0.214000, 42.944000
  0.216000, 41.119880
  0.218000, 39.337290
  0.220000, 37.539720
  0.222000, 35.694010
  0.224000, 33.800080
  0.226000, 31.884100
  0.228000, 30.000470
  0.230000, 28.208020
  0.232000, 26.537900
  0.234000, 25.013110
  0.236000, 23.607660
  0.238000, 22.288110
  0.240000, 21.016500
  0.242000, 19.750290
  0.244000, 18.479920
  0.246000, 17.195740
  0.248000, 15.905690
  0.250000, 14.610720
  0.252000, 13.340260
  0.254000, 12.120930
  0.256000, 10.968520
  0.258000,  9.884950
  0.260000,  8.865470
  0.262000,  7.904290
  0.264000,  6.971630
  0.266000,  6.058990
  0.268000,  5.148460
  0.270000,  4.243480
  0.272000,  3.358020
  0.274000,  2.507060
  0.276000,  1.692820
  0.278000,  0.937090
  0.280000,  0.233650
  0.282000, -0.416650
  0.284000, -1.028050
  0.286000, -1.603630
  0.288000, -2.164680
  0.290000, -2.701550
  0.292000, -3.224050
  0.294000, -3.724140
  0.296000, -4.198680
  0.298000, -4.638970
  0.300000, -5.046830
  0.302000, -5.409520
  0.304000, -5.738060
  0.306000, -6.036490
  0.308000, -6.308930
  0.310000, -6.557560
  0.312000, -6.790220
  0.314000, -7.001690
  0.316000, -7.201850
  0.318000, -7.380450
  0.320000, -7.534460
  0.322000, -7.657220
  0.324000, -7.737710
  0.326000, -7.783730
  0.328000, -7.789700
  0.330000, -7.767610
  0.332000, -7.738800
  0.334000, -7.708820
  0.336000, -7.698140
  0.338000, -7.694050
  0.340000, -7.690740
  0.342000, -7.673770
  0.344000, -7.643310
  0.346000, -7.583930
  0.348000, -7.510590
  0.350000, -7.411970
  0.352000, -7.313650
  0.354000, -7.231170
  0.356000, -7.159060
  0.358000, -7.102060
  0.360000, -7.059880
  0.362000, -7.008590
  0.364000, -6.941780
  0.366000, -6.858900
  0.368000, -6.781570
  0.370000, -6.733400
  0.372000, -6.721360
  0.374000, -6.740680
  0.376000, -6.766930
  0.378000, -6.779670
  0.380000, -6.767320
  0.382000, -6.729320
  0.384000, -6.673690
  0.386000, -6.618860
  0.388000, -6.577750
  0.390000, -6.546790
  0.392000, -6.536630
  0.394000, -6.547910
  0.396000, -6.577190
  0.398000, -6.620850
  0.400000, -6.671740
  0.402000, -6.705620
  0.404000, -6.735770
  0.406000, -6.754680
  0.408000, -6.753850
  0.410000, -6.734140
  0.412000, -6.703100
  0.414000, -6.667560
  0.416000, -6.630170
  0.418000, -6.589170
  0.420000, -6.549200
  0.422000, -6.514260
  0.424000, -6.490080
  0.426000, -6.465950
  0.428000, -6.433100
  0.430000, -6.402620
  0.432000, -6.368000
  0.434000, -6.327300
  0.436000, -6.283970
  0.438000, -6.228950
  0.440000, -6.148740
  0.442000, -6.044230
  0.444000, -5.910530
  0.446000, -5.760410
  0.448000, -5.596600
  0.450000, -5.426100
  0.452000, -5.261940
  0.454000, -5.099780
  0.456000, -4.961590
  0.458000, -4.842920
  0.460000, -4.732330
  0.462000, -4.618750
  0.464000, -4.505490
  0.466000, -4.379150
  0.468000, -4.237120
  0.470000, -4.080860
  0.472000, -3.917690
  0.474000, -3.738440
  0.476000, -3.546920
  0.478000, -3.347510
  0.480000, -3.136130
  0.482000, -2.925830
  0.484000, -2.716090
  0.486000, -2.522590
  0.488000, -2.346820
  0.490000, -2.197640
  0.492000, -2.072770
  0.494000, -1.963220
  0.496000, -1.864710
  0.498000, -1.767390
  0.500000, -1.665670
  0.502000, -1.555410
  0.504000, -1.437030
  0.506000, -1.317310
  0.508000, -1.203530
  0.510000, -1.108410
  0.512000, -1.039240
  0.514000, -0.993480
  0.516000, -0.957710
  0.518000, -0.930790
  0.520000, -0.894090
  0.522000, -0.833970
  0.524000, -0.767120
  0.526000, -0.690460
  0.528000, -0.606120
  0.530000, -0.519940
  0.532000, -0.444840
  0.534000, -0.364970
  0.536000, -0.299190
  0.538000, -0.233150
  0.540000, -0.160010
  0.542000, -0.072900
  0.544000,  0.010800
  0.546000,  0.103820
  0.548000,  0.201110
  0.550000,  0.287320
  0.552000,  0.364870
  0.554000,  0.432780
  0.556000,  0.490560
  0.558000,  0.548430
  0.560000,  0.599190
  0.562000,  0.640710
  0.564000,  0.685580
  0.566000,  0.731800
  0.568000,  0.786050
  0.570000,  0.834540
  0.572000,  0.864510
  0.574000,  0.865580
  0.576000,  0.836830
  0.578000,  0.787170
  0.580000,  0.712160
  0.582000,  0.639610
  0.584000,  0.567100
  0.586000,  0.509050
  0.588000,  0.466150
  0.590000,  0.439600
  0.592000,  0.423900
  0.594000,  0.408660
  0.596000,  0.389870
  0.598000,  0.358340
  0.600000,  0.303750
  0.602000,  0.229730
  0.604000,  0.141640
  0.606000,  0.046730
  0.608000, -0.049850
  0.610000, -0.142570
  0.612000, -0.230060
  0.614000, -0.310160
  0.616000, -0.376470
  0.618000, -0.438110
  0.620000, -0.488560
  0.622000, -0.523350
  0.624000, -0.561400
  0.626000, -0.598670
  0.628000, -0.640600
  0.630000, -0.682860
  0.632000, -0.736300
  0.634000, -0.792240
  0.636000, -0.843390
  0.638000, -0.899260
  0.640000, -0.950120
  0.642000, -0.992260
  0.644000, -1.030180
  0.646000, -1.063450
  0.648000, -1.086190
  0.650000, -1.109810
  0.652000, -1.124430
  0.654000, -1.137100
  0.656000, -1.158080
  0.658000, -1.179090
  0.660000, -1.204670
  0.662000, -1.229760
  0.664000, -1.252750
  0.666000, -1.270540
  0.668000, -1.281860
  0.670000, -1.289070
  0.672000, -1.288820
  0.674000, -1.280370
  0.676000, -1.269840
  0.678000, -1.259350
  0.680000, -1.242570
  0.682000, -1.221420
  0.684000, -1.201920
  0.686000, -1.186090
  0.688000, -1.175760
  0.690000, -1.167140
  0.692000, -1.167280
  0.694000, -1.167440
  0.696000, -1.171940
  0.698000, -1.178880
  0.700000, -1.187170
  0.702000, -1.192290
  0.704000, -1.195270
  0.706000, -1.188100
  0.708000, -1.174150
  0.710000, -1.148420
  0.712000, -1.122980
  0.714000, -1.085140
  0.716000, -1.042370
  0.718000, -0.998270
  0.720000, -0.948310
  0.722000, -0.905310
  0.724000, -0.862880
  0.726000, -0.823190
  0.728000, -0.788010
  0.730000, -0.760510
  0.732000, -0.738930
  0.734000, -0.721510
  0.736000, -0.715520
  0.738000, -0.710100
  0.740000, -0.709300
  0.742000, -0.710230
  0.744000, -0.710360
  0.746000, -0.705380
  0.748000, -0.692680
  0.750000, -0.665950
  0.752000, -0.627440
  0.754000, -0.586610
  0.756000, -0.531440
  0.758000, -0.484970
  0.760000, -0.438910
  0.762000, -0.396650
  0.764000, -0.368900
  0.766000, -0.349550
  0.768000, -0.345400
  0.770000, -0.345100
  0.772000, -0.351200
  0.774000, -0.354250
  0.776000, -0.347980
  0.778000, -0.332600
  0.780000, -0.303800
  0.782000, -0.269080
  0.784000, -0.223490
  0.786000, -0.181100
  0.788000, -0.138250
  0.790000, -0.101660
  0.792000, -0.075690
  0.794000, -0.051750
  0.796000, -0.037170
  0.798000, -0.033630
  0.800000, -0.039860
  0.802000, -0.059070
  0.804000, -0.082140
  0.806000, -0.099050
  0.808000, -0.110150
  0.810000, -0.108850
  0.812000, -0.087100
  0.814000, -0.041300
  0.816000,  0.020220
  0.818000,  0.089370
  0.820000,  0.165090
  0.822000,  0.244960
  0.824000,  0.303300
  0.826000,  0.337590
  0.828000,  0.348440
  0.830000,  0.344290
  0.832000,  0.318400
  0.834000,  0.280230
  0.836000,  0.235480
  0.838000,  0.195870
  0.840000,  0.166760
  0.842000,  0.151560
  0.844000,  0.151200
  0.846000,  0.170830
  0.848000,  0.195670
  0.850000,  0.237130
  0.852000,  0.280290
  0.854000,  0.329940
  0.856000,  0.377450
  0.858000,  0.427240
  0.860000,  0.471650
  0.862000,  0.507340
  0.864000,  0.521780
  0.866000,  0.508560
  0.868000,  0.463680
  0.870000,  0.390120
  0.872000,  0.301240
  0.874000,  0.200060
  0.876000,  0.096050
  0.878000,  0.016980
  0.880000, -0.025880
  0.882000, -0.032580
  0.884000, -0.005660
  0.886000,  0.061380
  0.888000,  0.150890
  0.890000,  0.252580
  0.892000,  0.345090
  0.894000,  0.429120
  0.896000,  0.478700
  0.898000,  0.498570
  0.900000,  0.487160
  0.902000,  0.455650
  0.904000,  0.404550
  0.906000,  0.358390
  0.908000,  0.302800
  0.910000,  0.251360
  0.912000,  0.217680
  0.914000,  0.181790
  0.916000,  0.158350
  0.918000,  0.136340
  0.920000,  0.129010
  0.922000,  0.124210
  0.924000,  0.121010
  0.926000,  0.119540
  0.928000,  0.111790
  0.930000,  0.098700
  0.932000,  0.081670
  0.934000,  0.060350
  0.936000,  0.032040
  0.938000,  0.007070
  0.940000, -0.013620
  0.942000, -0.027920
  0.944000, -0.039800
  0.946000, -0.045680
  0.948000, -0.050640
  0.950000, -0.063770
  0.952000, -0.080620
  0.954000, -0.101960
  0.956000, -0.121550
  0.958000, -0.140160
  0.960000, -0.154390
  0.962000, -0.156790
  0.964000, -0.151510
  0.966000, -0.141040
  0.968000, -0.129930
  0.970000, -0.117580
  0.972000, -0.104130
  0.974000, -0.093810
  0.976000, -0.082030
  0.978000, -0.079350
  0.980000, -0.078740
  0.982000, -0.078620
  0.984000, -0.081110
  0.986000, -0.085890
  0.988000, -0.099810
  0.990000, -0.116860
  0.992000, -0.135140
  0.994000, -0.157970
  0.996000, -0.180460
  0.998000, -0.204970
  1.000000, -0.236450
