# z (nm)   (kJ/mol)
  0.112000,264.770950
  0.114000,261.547740
  0.116000,258.779870
  0.118000,255.963870
  0.120000,253.135620
  0.122000,250.455320
  0.124000,247.742920
  0.126000,244.993200
  0.128000,242.188980
  0.130000,239.278970
  0.132000,236.248540
  0.134000,233.098900
  0.136000,229.806500
  0.138000,226.371460
  0.140000,222.787900
  0.142000,219.061710
  0.144000,215.210550
  0.146000,211.240970
  0.148000,207.172580
  0.150000,203.027080
  0.152000,198.818810
  0.154000,194.553520
  0.156000,190.242890
  0.158000,185.897250
  0.160000,181.522310
  0.162000,177.142080
  0.164000,172.780680
  0.166000,168.475160
  0.168000,164.268220
  0.170000,160.186230
  0.172000,156.262700
  0.174000,152.496080
  0.176000,148.881880
  0.178000,145.393100
  0.180000,142.006800
  0.182000,138.691520
  0.184000,135.437290
  0.186000,132.221580
  0.188000,129.044500
  0.190000,125.897310
  0.192000,122.785130
  0.194000,119.702960
  0.196000,116.648590
  0.198000,113.612470
  0.200000,110.592970
  0.202000,107.594200
  0.204000,104.623490
  0.206000,101.687140
  0.208000, 98.795380
  0.210000, 95.960020
  0.212000, 93.187780
  0.214000, 90.488220
  0.216000, 87.863760
  0.218000, 85.292480
  0.220000, 82.774420
  0.222000, 80.289490
  0.224000, 77.818990
  0.226000, 75.352190
  0.228000, 72.911900
  0.230000, 70.526420
  0.232000, 68.228510
  0.234000, 66.030900
  0.236000, 63.931370
  0.238000, 61.913440
  0.240000, 59.946120
  0.242000, 58.004740
  0.244000, 56.067310
  0.246000, 54.150660
  0.248000, 52.246490
  0.250000, 50.362080
  0.252000, 48.506590
  0.254000, 46.679400
  0.256000, 44.897330
  0.258000, 43.151750
  0.260000, 41.456110
  0.262000, 39.794340
  0.264000, 38.148370
  0.266000, 36.530100
  0.268000, 34.937920
  0.270000, 33.391670
  0.272000, 31.895680
  0.274000, 30.477940
  0.276000, 29.127720
  0.278000, 27.837810
  0.280000, 26.598890
  0.282000, 25.397680
  0.284000, 24.225590
  0.286000, 23.080470
  0.288000, 21.971760
  0.290000, 20.882540
  0.292000, 19.829830
  0.294000, 18.795710
  0.296000, 17.799060
  0.298000, 16.832520
  0.300000, 15.896370
  0.302000, 15.007710
  0.304000, 14.170470
  0.306000, 13.370000
  0.308000, 12.604480
  0.310000, 11.866210
  0.312000, 11.149140
  0.314000, 10.456020
  0.316000,  9.784600
  0.318000,  9.146640
  0.320000,  8.544050
  0.322000,  7.981610
  0.324000,  7.462150
  0.326000,  6.980810
  0.328000,  6.532320
  0.330000,  6.109190
  0.332000,  5.695450
  0.334000,  5.286630
  0.336000,  4.884510
  0.338000,  4.484930
  0.340000,  4.096530
  0.342000,  3.725160
  0.344000,  3.373550
  0.346000,  3.054130
  0.348000,  2.781400
  0.350000,  2.539520
  0.352000,  2.330300
  0.354000,  2.138780
  0.356000,  1.970730
  0.358000,  1.814800
  0.360000,  1.659530
  0.362000,  1.500710
  0.364000,  1.344440
  0.366000,  1.196970
  0.368000,  1.044010
  0.370000,  0.901270
  0.372000,  0.760710
  0.374000,  0.637070
  0.376000,  0.526110
  0.378000,  0.429050
  0.380000,  0.351870
  0.382000,  0.295890
  0.384000,  0.249990
  0.386000,  0.224020
  0.388000,  0.208820
  0.390000,  0.211310
  0.392000,  0.214870
  0.394000,  0.226260
  0.396000,  0.240460
  0.398000,  0.255370
  0.400000,  0.282610
  0.402000,  0.300830
  0.404000,  0.325720
  0.406000,  0.334190
  0.408000,  0.347000
  0.410000,  0.354200
  0.412000,  0.345890
  0.414000,  0.342060
  0.416000,  0.336200
  0.418000,  0.350610
  0.420000,  0.361200
  0.422000,  0.390720
  0.424000,  0.429590
  0.426000,  0.479790
  0.428000,  0.538540
  0.430000,  0.616230
  0.432000,  0.692130
  0.434000,  0.760400
  0.436000,  0.827960
  0.438000,  0.893450
  0.440000,  0.945970
  0.442000,  0.990850
  0.444000,  1.025040
  0.446000,  1.052390
  0.448000,  1.074820
  0.450000,  1.097940
  0.452000,  1.111280
  0.454000,  1.134140
  0.456000,  1.159830
  0.458000,  1.185830
  0.460000,  1.209910
  0.462000,  1.237020
  0.464000,  1.262820
  0.466000,  1.290390
  0.468000,  1.322370
  0.470000,  1.355870
  0.472000,  1.382070
  0.474000,  1.412930
  0.476000,  1.449010
  0.478000,  1.480800
  0.480000,  1.510440
  0.482000,  1.530590
  0.484000,  1.546090
  0.486000,  1.556400
  0.488000,  1.561560
  0.490000,  1.559930
  0.492000,  1.577250
  0.494000,  1.589010
  0.496000,  1.619430
  0.498000,  1.668510
  0.500000,  1.724920
  0.502000,  1.793500
  0.504000,  1.871520
  0.506000,  1.942220
  0.508000,  2.007540
  0.510000,  2.056250
  0.512000,  2.088240
  0.514000,  2.107540
  0.516000,  2.119080
  0.518000,  2.117410
  0.520000,  2.118440
  0.522000,  2.129270
  0.524000,  2.157240
  0.526000,  2.203610
  0.528000,  2.273820
  0.530000,  2.362460
  0.532000,  2.463490
  0.534000,  2.572760
  0.536000,  2.684910
  0.538000,  2.792450
  0.540000,  2.894320
  0.542000,  2.980120
  0.544000,  3.048110
  0.546000,  3.103600
  0.548000,  3.135650
  0.550000,  3.152740
  0.552000,  3.164750
  0.554000,  3.167320
  0.556000,  3.165270
  0.558000,  3.169650
  0.560000,  3.182790
  0.562000,  3.206590
  0.564000,  3.235160
  0.566000,  3.271850
  0.568000,  3.313710
  0.570000,  3.344730
  0.572000,  3.368190
  0.574000,  3.374910
  0.576000,  3.365500
  0.578000,  3.341070
  0.580000,  3.290750
  0.582000,  3.228500
  0.584000,  3.150090
  0.586000,  3.068670
  0.588000,  2.984620
  0.590000,  2.907840
  0.592000,  2.832020
  0.594000,  2.755560
  0.596000,  2.687800
  0.598000,  2.617290
  0.600000,  2.549730
  0.602000,  2.475360
  0.604000,  2.398540
  0.606000,  2.311980
  0.608000,  2.222080
  0.610000,  2.133440
  0.612000,  2.044440
  0.614000,  1.956720
  0.616000,  1.869050
  0.618000,  1.787090
  0.620000,  1.705290
  0.622000,  1.627730
  0.624000,  1.555190
  0.626000,  1.475810
  0.628000,  1.392300
  0.630000,  1.317710
  0.632000,  1.245850
  0.634000,  1.174740
  0.636000,  1.106290
  0.638000,  1.041650
  0.640000,  0.969160
  0.642000,  0.903870
  0.644000,  0.838010
  0.646000,  0.771640
  0.648000,  0.708200
  0.650000,  0.641580
  0.652000,  0.570060
  0.654000,  0.500560
  0.656000,  0.434170
  0.658000,  0.370260
  0.660000,  0.305300
  0.662000,  0.243160
  0.664000,  0.190880
  0.666000,  0.145320
  0.668000,  0.100760
  0.670000,  0.060850
  0.672000,  0.021880
  0.674000, -0.017160
  0.676000, -0.052740
  0.678000, -0.088530
  0.680000, -0.122540
  0.682000, -0.158940
  0.684000, -0.198640
  0.686000, -0.242010
  0.688000, -0.287130
  0.690000, -0.339750
  0.692000, -0.390390
  0.694000, -0.434950
  0.696000, -0.480550
  0.698000, -0.524740
  0.700000, -0.564170
  0.702000, -0.593980
  0.704000, -0.611130
  0.706000, -0.628690
  0.708000, -0.642010
  0.710000, -0.647330
  0.712000, -0.648250
  0.714000, -0.645070
  0.716000, -0.646130
  0.718000, -0.649530
  0.720000, -0.655460
  0.722000, -0.668070
  0.724000, -0.683450
  0.726000, -0.703620
  0.728000, -0.721120
  0.730000, -0.741890
  0.732000, -0.764920
  0.734000, -0.779960
  0.736000, -0.790670
  0.738000, -0.795820
  0.740000, -0.790480
  0.742000, -0.774940
  0.744000, -0.749480
  0.746000, -0.718560
  0.748000, -0.677810
  0.750000, -0.641410
  0.752000, -0.606750
  0.754000, -0.577110
  0.756000, -0.547350
  0.758000, -0.521890
  0.760000, -0.498450
  0.762000, -0.478960
  0.764000, -0.461470
  0.766000, -0.445220
  0.768000, -0.436240
  0.770000, -0.425130
  0.772000, -0.422570
  0.774000, -0.418930
  0.776000, -0.417260
  0.778000, -0.411960
  0.780000, -0.409690
  0.782000, -0.402980
  0.784000, -0.394440
  0.786000, -0.379460
  0.788000, -0.360030
  0.790000, -0.340690
  0.792000, -0.316570
  0.794000, -0.287990
  0.796000, -0.262700
  0.798000, -0.235630
  0.800000, -0.204610
  0.802000, -0.177340
  0.804000, -0.149070
  0.806000, -0.128390
  0.808000, -0.104400
  0.810000, -0.083480
  0.812000, -0.064650
  0.814000, -0.051550
  0.816000, -0.042480
  0.818000, -0.028000
  0.820000, -0.015860
  0.822000, -0.004810
  0.824000,  0.003660
  0.826000,  0.015030
  0.828000,  0.031410
  0.830000,  0.047800
  0.832000,  0.065300
  0.834000,  0.085760
  0.836000,  0.110170
  0.838000,  0.132070
  0.840000,  0.151490
  0.842000,  0.180250
  0.844000,  0.207040
  0.846000,  0.233220
  0.848000,  0.257790
  0.850000,  0.276380
  0.852000,  0.299200
  0.854000,  0.318910
  0.856000,  0.337710
  0.858000,  0.354260
  0.860000,  0.364880
  0.862000,  0.377510
  0.864000,  0.387310
  0.866000,  0.398140
  0.868000,  0.401490
  0.870000,  0.407920
  0.872000,  0.410690
  0.874000,  0.411230
  0.876000,  0.409660
  0.878000,  0.403350
  0.880000,  0.396580
  0.882000,  0.379800
  0.884000,  0.364630
  0.886000,  0.351210
  0.888000,  0.335890
  0.890000,  0.313870
  0.892000,  0.306010
  0.894000,  0.297210
  0.896000,  0.291970
  0.898000,  0.297560
  0.900000,  0.293910
  0.902000,  0.298770
  0.904000,  0.306510
  0.906000,  0.315340
  0.908000,  0.322320
  0.910000,  0.330560
  0.912000,  0.329170
  0.914000,  0.323460
  0.916000,  0.315220
  0.918000,  0.302650
  0.920000,  0.281560
  0.922000,  0.253060
  0.924000,  0.219260
  0.926000,  0.185310
  0.928000,  0.146920
  0.930000,  0.110780
  0.932000,  0.073500
  0.934000,  0.043350
  0.936000,  0.016650
  0.938000, -0.006430
  0.940000, -0.022410
  0.942000, -0.041630
  0.944000, -0.049590
  0.946000, -0.054430
  0.948000, -0.058330
  0.950000, -0.065440
  0.952000, -0.067560
  0.954000, -0.073560
  0.956000, -0.083190
  0.958000, -0.095990
  0.960000, -0.107810
  0.962000, -0.114970
  0.964000, -0.125960
  0.966000, -0.127960
  0.968000, -0.131340
  0.970000, -0.140730
  0.972000, -0.148510
  0.974000, -0.150430
  0.976000, -0.154760
  0.978000, -0.158120
  0.980000, -0.164210
  0.982000, -0.167880
  0.984000, -0.174690
  0.986000, -0.186000
  0.988000, -0.194220
  0.990000, -0.205280
  0.992000, -0.211140
  0.994000, -0.219470
  0.996000, -0.223490
  0.998000, -0.223580
  1.000000, -0.225280
