# z (nm)   (kJ/mol)
  0.098000,251.671130
  0.100000,249.300490
  0.102000,246.773950
  0.104000,244.199030
  0.106000,241.660660
  0.108000,239.219400
  0.110000,236.722180
  0.112000,234.235880
  0.114000,231.738120
  0.116000,229.180380
  0.118000,226.551710
  0.120000,223.833830
  0.122000,220.988400
  0.124000,217.966780
  0.126000,214.727760
  0.128000,211.229580
  0.130000,207.463480
  0.132000,203.449240
  0.134000,199.252100
  0.136000,194.951790
  0.138000,190.638760
  0.140000,186.358540
  0.142000,182.118220
  0.144000,177.898580
  0.146000,173.678620
  0.148000,169.444480
  0.150000,165.201370
  0.152000,160.982970
  0.154000,156.829670
  0.156000,152.768420
  0.158000,148.833860
  0.160000,145.033330
  0.162000,141.384600
  0.164000,137.888300
  0.166000,134.541970
  0.168000,131.325700
  0.170000,128.192210
  0.172000,125.090020
  0.174000,121.962380
  0.176000,118.779800
  0.178000,115.536950
  0.180000,112.263910
  0.182000,109.022320
  0.184000,105.870110
  0.186000,102.858080
  0.188000, 99.989720
  0.190000, 97.235210
  0.192000, 94.538500
  0.194000, 91.839620
  0.196000, 89.099280
  0.198000, 86.319110
  0.200000, 83.531790
  0.202000, 80.791230
  0.204000, 78.148770
  0.206000, 75.612370
  0.208000, 73.178910
  0.210000, 70.800970
  0.212000, 68.435970
  0.214000, 66.046890
  0.216000, 63.663690
  0.218000, 61.319690
  0.220000, 59.062580
  0.222000, 56.932320
  0.224000, 54.933070
  0.226000, 53.019200
  0.228000, 51.135660
  0.230000, 49.213990
  0.232000, 47.245040
  0.234000, 45.252610
  0.236000, 43.287350
  0.238000, 41.396310
  0.240000, 39.601560
  0.242000, 37.891810
  0.244000, 36.250420
  0.246000, 34.660110
  0.248000, 33.082950
  0.250000, 31.513600
  0.252000, 29.918210
  0.254000, 28.298090
  0.256000, 26.661900
  0.258000, 25.040470
  0.260000, 23.464050
  0.262000, 21.959620
  0.264000, 20.542760
  0.266000, 19.214520
  0.268000, 17.948750
  0.270000, 16.717720
  0.272000, 15.497980
  0.274000, 14.275440
  0.276000, 13.037520
  0.278000, 11.801570
  0.280000, 10.589970
  0.282000,  9.423830
  0.284000,  8.317700
  0.286000,  7.275870
  0.288000,  6.284450
  0.290000,  5.334400
  0.292000,  4.431040
  0.294000,  3.550210
  0.296000,  2.699730
  0.298000,  1.874250
  0.300000,  1.062450
  0.302000,  0.276640
  0.304000, -0.478980
  0.306000, -1.205850
  0.308000, -1.898250
  0.310000, -2.544840
  0.312000, -3.139620
  0.314000, -3.695810
  0.316000, -4.202490
  0.318000, -4.683530
  0.320000, -5.133850
  0.322000, -5.565020
  0.324000, -5.974120
  0.326000, -6.376980
  0.328000, -6.779080
  0.330000, -7.178260
  0.332000, -7.577550
  0.334000, -7.965200
  0.336000, -8.329860
  0.338000, -8.658220
  0.340000, -8.933860
  0.342000, -9.166340
  0.344000, -9.342730
  0.346000, -9.481750
  0.348000, -9.604710
  0.350000, -9.753010
  0.352000, -9.929990
  0.354000,-10.137100
  0.356000,-10.346130
  0.358000,-10.550690
  0.360000,-10.716850
  0.362000,-10.844200
  0.364000,-10.932120
  0.366000,-10.967510
  0.368000,-10.963220
  0.370000,-10.915320
  0.372000,-10.829470
  0.374000,-10.740550
  0.376000,-10.661610
  0.378000,-10.617170
  0.380000,-10.613210
  0.382000,-10.645230
  0.384000,-10.688430
  0.386000,-10.721940
  0.388000,-10.724780
  0.390000,-10.706260
  0.392000,-10.660100
  0.394000,-10.598810
  0.396000,-10.526590
  0.398000,-10.460220
  0.400000,-10.396030
  0.402000,-10.348900
  0.404000,-10.315080
  0.406000,-10.292960
  0.408000,-10.275290
  0.410000,-10.268860
  0.412000,-10.264940
  0.414000,-10.244580
  0.416000,-10.212490
  0.418000,-10.166190
  0.420000,-10.101380
  0.422000,-10.025030
  0.424000, -9.947950
  0.426000, -9.870300
  0.428000, -9.806040
  0.430000, -9.738200
  0.432000, -9.672660
  0.434000, -9.615340
  0.436000, -9.569660
  0.438000, -9.541670
  0.440000, -9.524070
  0.442000, -9.514610
  0.444000, -9.514320
  0.446000, -9.519520
  0.448000, -9.505280
  0.450000, -9.482620
  0.452000, -9.447290
  0.454000, -9.408000
  0.456000, -9.360600
  0.458000, -9.328380
  0.460000, -9.314180
  0.462000, -9.315740
  0.464000, -9.333160
  0.466000, -9.357120
  0.468000, -9.372820
  0.470000, -9.368760
  0.472000, -9.346040
  0.474000, -9.299400
  0.476000, -9.237440
  0.478000, -9.175670
  0.480000, -9.128920
  0.482000, -9.108820
  0.484000, -9.102430
  0.486000, -9.109900
  0.488000, -9.111870
  0.490000, -9.106840
  0.492000, -9.087470
  0.494000, -9.028220
  0.496000, -8.932710
  0.498000, -8.821830
  0.500000, -8.696380
  0.502000, -8.577480
  0.504000, -8.472360
  0.506000, -8.387380
  0.508000, -8.322240
  0.510000, -8.275090
  0.512000, -8.229030
  0.514000, -8.182380
  0.516000, -8.119640
  0.518000, -8.043910
  0.520000, -7.948180
  0.522000, -7.845950
  0.524000, -7.714280
  0.526000, -7.567160
  0.528000, -7.394840
  0.530000, -7.208290
  0.532000, -7.009970
  0.534000, -6.810930
  0.536000, -6.614300
  0.538000, -6.419070
  0.540000, -6.229510
  0.542000, -6.030730
  0.544000, -5.821420
  0.546000, -5.597780
  0.548000, -5.357440
  0.550000, -5.096520
  0.552000, -4.813910
  0.554000, -4.515340
  0.556000, -4.205070
  0.558000, -3.887720
  0.560000, -3.571590
  0.562000, -3.269340
  0.564000, -2.980720
  0.566000, -2.708270
  0.568000, -2.447760
  0.570000, -2.209140
  0.572000, -1.977480
  0.574000, -1.760510
  0.576000, -1.553510
  0.578000, -1.360810
  0.580000, -1.183590
  0.582000, -1.015770
  0.584000, -0.866170
  0.586000, -0.717800
  0.588000, -0.582800
  0.590000, -0.459550
  0.592000, -0.366260
  0.594000, -0.301630
  0.596000, -0.282070
  0.598000, -0.296610
  0.600000, -0.331130
  0.602000, -0.378640
  0.604000, -0.415430
  0.606000, -0.432330
  0.608000, -0.424010
  0.610000, -0.409520
  0.612000, -0.403750
  0.614000, -0.411200
  0.616000, -0.438220
  0.618000, -0.496560
  0.620000, -0.578510
  0.622000, -0.668800
  0.624000, -0.749670
  0.626000, -0.811860
  0.628000, -0.854220
  0.630000, -0.868480
  0.632000, -0.864010
  0.634000, -0.848630
  0.636000, -0.839820
  0.638000, -0.835970
  0.640000, -0.846090
  0.642000, -0.879620
  0.644000, -0.932700
  0.646000, -0.993000
  0.648000, -1.044950
  0.650000, -1.077220
  0.652000, -1.095720
  0.654000, -1.100380
  0.656000, -1.097410
  0.658000, -1.099160
  0.660000, -1.105230
  0.662000, -1.122650
  0.664000, -1.137990
  0.666000, -1.155230
  0.668000, -1.168780
  0.670000, -1.179700
  0.672000, -1.181150
  0.674000, -1.180420
  0.676000, -1.176710
  0.678000, -1.167250
  0.680000, -1.159950
  0.682000, -1.147590
  0.684000, -1.139230
  0.686000, -1.129710
  0.688000, -1.117030
  0.690000, -1.107090
  0.692000, -1.090390
  0.694000, -1.076380
  0.696000, -1.058470
  0.698000, -1.045170
  0.700000, -1.034030
  0.702000, -1.023960
  0.704000, -1.009170
  0.706000, -1.001840
  0.708000, -0.979100
  0.710000, -0.952070
  0.712000, -0.918230
  0.714000, -0.877260
  0.716000, -0.842140
  0.718000, -0.812030
  0.720000, -0.788680
  0.722000, -0.768820
  0.724000, -0.752680
  0.726000, -0.742980
  0.728000, -0.734250
  0.730000, -0.718820
  0.732000, -0.712620
  0.734000, -0.695570
  0.736000, -0.675320
  0.738000, -0.645360
  0.740000, -0.607990
  0.742000, -0.567280
  0.744000, -0.522060
  0.746000, -0.480290
  0.748000, -0.440970
  0.750000, -0.408500
  0.752000, -0.385900
  0.754000, -0.372630
  0.756000, -0.372850
  0.758000, -0.371120
  0.760000, -0.372300
  0.762000, -0.370280
  0.764000, -0.364010
  0.766000, -0.345630
  0.768000, -0.317190
  0.770000, -0.278430
  0.772000, -0.230540
  0.774000, -0.184740
  0.776000, -0.155280
  0.778000, -0.124070
  0.780000, -0.099230
  0.782000, -0.083820
  0.784000, -0.069560
  0.786000, -0.057330
  0.788000, -0.036270
  0.790000, -0.016720
  0.792000,  0.006140
  0.794000,  0.037140
  0.796000,  0.066600
  0.798000,  0.088250
  0.800000,  0.104850
  0.802000,  0.108270
  0.804000,  0.096680
  0.806000,  0.074140
  0.808000,  0.053570
  0.810000,  0.038400
  0.812000,  0.029800
  0.814000,  0.035620
  0.816000,  0.054950
  0.818000,  0.088900
  0.820000,  0.125940
  0.822000,  0.169140
  0.824000,  0.204880
  0.826000,  0.229820
  0.828000,  0.243750
  0.830000,  0.238570
  0.832000,  0.227580
  0.834000,  0.207120
  0.836000,  0.181720
  0.838000,  0.156480
  0.840000,  0.138750
  0.842000,  0.124920
  0.844000,  0.121130
  0.846000,  0.124240
  0.848000,  0.127030
  0.850000,  0.130940
  0.852000,  0.135580
  0.854000,  0.135020
  0.856000,  0.133510
  0.858000,  0.127640
  0.860000,  0.120550
  0.862000,  0.120520
  0.864000,  0.118610
  0.866000,  0.116560
  0.868000,  0.113110
  0.870000,  0.113940
  0.872000,  0.116030
  0.874000,  0.109680
  0.876000,  0.103590
  0.878000,  0.101800
  0.880000,  0.092680
  0.882000,  0.087690
  0.884000,  0.081050
  0.886000,  0.078530
  0.888000,  0.075190
  0.890000,  0.075400
  0.892000,  0.080840
  0.894000,  0.098770
  0.896000,  0.113490
  0.898000,  0.132780
  0.900000,  0.147910
  0.902000,  0.162180
  0.904000,  0.160320
  0.906000,  0.157800
  0.908000,  0.136620
  0.910000,  0.101240
  0.912000,  0.061680
  0.914000,  0.020500
  0.916000, -0.022560
  0.918000, -0.051180
  0.920000, -0.072710
  0.922000, -0.080460
  0.924000, -0.073800
  0.926000, -0.051830
  0.928000, -0.023560
  0.930000,  0.012050
  0.932000,  0.045840
  0.934000,  0.075240
  0.936000,  0.098510
  0.938000,  0.101610
  0.940000,  0.088150
  0.942000,  0.069090
  0.944000,  0.041170
  0.946000,  0.004940
  0.948000, -0.034740
  0.950000, -0.071420
  0.952000, -0.097620
  0.954000, -0.116750
  0.956000, -0.131900
  0.958000, -0.139560
  0.960000, -0.142890
  0.962000, -0.142330
  0.964000, -0.140630
  0.966000, -0.130670
  0.968000, -0.114850
  0.970000, -0.101150
  0.972000, -0.076520
  0.974000, -0.050790
  0.976000, -0.018340
  0.978000,  0.007140
  0.980000,  0.040320
  0.982000,  0.067530
  0.984000,  0.082850
  0.986000,  0.088480
  0.988000,  0.083080
  0.990000,  0.069500
  0.992000,  0.053270
  0.994000,  0.034960
  0.996000,  0.016020
  0.998000,  0.001730
  1.000000,  0.004430
