# z (nm)   (kJ/mol)
  0.096000,264.691590
  0.098000,260.449390
  0.100000,257.139690
  0.102000,254.279160
  0.104000,251.558860
  0.106000,248.850260
  0.108000,246.085900
  0.110000,243.265910
  0.112000,240.363200
  0.114000,237.339220
  0.116000,234.183800
  0.118000,230.874180
  0.120000,227.396990
  0.122000,223.739670
  0.124000,219.896510
  0.126000,215.879590
  0.128000,211.697900
  0.130000,207.376900
  0.132000,202.946120
  0.134000,198.448990
  0.136000,193.921080
  0.138000,189.398730
  0.140000,184.923790
  0.142000,180.530810
  0.144000,176.255410
  0.146000,172.123250
  0.148000,168.153070
  0.150000,164.349400
  0.152000,160.713300
  0.154000,157.229540
  0.156000,153.879080
  0.158000,150.626470
  0.160000,147.457270
  0.162000,144.345030
  0.164000,141.276860
  0.166000,138.235950
  0.168000,135.218540
  0.170000,132.215400
  0.172000,129.220410
  0.174000,126.244590
  0.176000,123.285770
  0.178000,120.340520
  0.180000,117.411730
  0.182000,114.507770
  0.184000,111.650630
  0.186000,108.840270
  0.188000,106.090580
  0.190000,103.403360
  0.192000,100.770270
  0.194000, 98.158390
  0.196000, 95.566090
  0.198000, 92.968780
  0.200000, 90.363410
  0.202000, 87.756300
  0.204000, 85.151380
  0.206000, 82.565570
  0.208000, 80.004380
  0.210000, 77.481910
  0.212000, 75.017920
  0.214000, 72.609980
  0.216000, 70.270000
  0.218000, 68.013110
  0.220000, 65.841210
  0.222000, 63.746900
  0.224000, 61.714040
  0.226000, 59.714420
  0.228000, 57.738270
  0.230000, 55.764660
  0.232000, 53.790780
  0.234000, 51.832820
  0.236000, 49.908850
  0.238000, 48.048850
  0.240000, 46.273410
  0.242000, 44.596430
  0.244000, 43.013050
  0.246000, 41.508930
  0.248000, 40.045120
  0.250000, 38.592050
  0.252000, 37.132100
  0.254000, 35.660040
  0.256000, 34.188040
  0.258000, 32.731140
  0.260000, 31.325690
  0.262000, 30.001120
  0.264000, 28.753670
  0.266000, 27.566680
  0.268000, 26.434740
  0.270000, 25.311670
  0.272000, 24.196430
  0.274000, 23.094770
  0.276000, 22.013190
  0.278000, 20.969860
  0.280000, 19.986980
  0.282000, 19.079630
  0.284000, 18.237000
  0.286000, 17.438690
  0.288000, 16.673990
  0.290000, 15.910480
  0.292000, 15.149150
  0.294000, 14.369190
  0.296000, 13.575120
  0.298000, 12.795920
  0.300000, 12.031650
  0.302000, 11.310290
  0.304000, 10.648690
  0.306000, 10.051730
  0.308000,  9.528230
  0.310000,  9.063550
  0.312000,  8.651530
  0.314000,  8.248410
  0.316000,  7.827880
  0.318000,  7.373590
  0.320000,  6.867530
  0.322000,  6.314470
  0.324000,  5.739780
  0.326000,  5.179800
  0.328000,  4.666520
  0.330000,  4.223550
  0.332000,  3.867760
  0.334000,  3.568960
  0.336000,  3.320000
  0.338000,  3.084370
  0.340000,  2.844370
  0.342000,  2.586460
  0.344000,  2.304250
  0.346000,  2.000120
  0.348000,  1.701650
  0.350000,  1.405580
  0.352000,  1.120130
  0.354000,  0.853830
  0.356000,  0.617530
  0.358000,  0.413800
  0.360000,  0.242360
  0.362000,  0.081610
  0.364000, -0.073560
  0.366000, -0.237500
  0.368000, -0.398200
  0.370000, -0.545540
  0.372000, -0.661060
  0.374000, -0.731690
  0.376000, -0.754220
  0.378000, -0.751300
  0.380000, -0.741870
  0.382000, -0.741610
  0.384000, -0.757520
  0.386000, -0.792480
  0.388000, -0.842590
  0.390000, -0.893140
  0.392000, -0.944770
  0.394000, -0.985910
  0.396000, -1.010210
  0.398000, -1.017860
  0.400000, -1.005110
  0.402000, -0.979100
  0.404000, -0.955110
  0.406000, -0.919060
  0.408000, -0.868460
  0.410000, -0.810790
  0.412000, -0.743700
  0.414000, -0.666700
  0.416000, -0.580290
  0.418000, -0.490060
  0.420000, -0.400090
  0.422000, -0.317670
  0.424000, -0.253160
  0.426000, -0.209930
  0.428000, -0.175330
  0.430000, -0.152460
  0.432000, -0.124840
  0.434000, -0.094490
  0.436000, -0.051200
  0.438000,  0.009780
  0.440000,  0.091440
  0.442000,  0.187800
  0.444000,  0.293840
  0.446000,  0.408210
  0.448000,  0.530740
  0.450000,  0.649210
  0.452000,  0.761420
  0.454000,  0.866640
  0.456000,  0.953220
  0.458000,  1.016550
  0.460000,  1.062770
  0.462000,  1.089330
  0.464000,  1.101590
  0.466000,  1.110890
  0.468000,  1.125150
  0.470000,  1.154810
  0.472000,  1.207970
  0.474000,  1.292290
  0.476000,  1.397250
  0.478000,  1.517880
  0.480000,  1.652590
  0.482000,  1.770490
  0.484000,  1.864830
  0.486000,  1.934750
  0.488000,  1.969600
  0.490000,  1.980240
  0.492000,  1.984190
  0.494000,  1.977780
  0.496000,  1.977900
  0.498000,  1.992060
  0.500000,  2.023770
  0.502000,  2.074280
  0.504000,  2.137430
  0.506000,  2.214580
  0.508000,  2.295460
  0.510000,  2.370190
  0.512000,  2.444400
  0.514000,  2.515680
  0.516000,  2.581840
  0.518000,  2.638320
  0.520000,  2.689840
  0.522000,  2.729940
  0.524000,  2.756530
  0.526000,  2.777410
  0.528000,  2.790560
  0.530000,  2.801600
  0.532000,  2.812650
  0.534000,  2.832120
  0.536000,  2.848560
  0.538000,  2.867250
  0.540000,  2.891640
  0.542000,  2.911380
  0.544000,  2.928240
  0.546000,  2.947290
  0.548000,  2.957710
  0.550000,  2.965770
  0.552000,  2.974590
  0.554000,  2.982190
  0.556000,  2.988280
  0.558000,  2.981550
  0.560000,  2.971480
  0.562000,  2.953100
  0.564000,  2.927690
  0.566000,  2.895040
  0.568000,  2.850470
  0.570000,  2.806650
  0.572000,  2.755240
  0.574000,  2.700680
  0.576000,  2.648850
  0.578000,  2.600320
  0.580000,  2.547710
  0.582000,  2.499830
  0.584000,  2.450310
  0.586000,  2.398860
  0.588000,  2.343340
  0.590000,  2.283200
  0.592000,  2.222610
  0.594000,  2.152260
  0.596000,  2.082690
  0.598000,  2.005450
  0.600000,  1.917600
  0.602000,  1.816930
  0.604000,  1.712940
  0.606000,  1.596010
  0.608000,  1.470400
  0.610000,  1.338470
  0.612000,  1.228430
  0.614000,  1.130120
  0.616000,  1.047130
  0.618000,  0.977230
  0.620000,  0.924270
  0.622000,  0.876960
  0.624000,  0.836690
  0.626000,  0.796360
  0.628000,  0.754410
  0.630000,  0.717000
  0.632000,  0.669410
  0.634000,  0.612360
  0.636000,  0.554920
  0.638000,  0.491720
  0.640000,  0.429390
  0.642000,  0.370480
  0.644000,  0.318920
  0.646000,  0.272260
  0.648000,  0.230410
  0.650000,  0.195310
  0.652000,  0.164080
  0.654000,  0.135670
  0.656000,  0.104500
  0.658000,  0.079530
  0.660000,  0.058020
  0.662000,  0.033580
  0.664000,  0.008020
  0.666000, -0.020480
  0.668000, -0.059570
  0.670000, -0.097060
  0.672000, -0.126360
  0.674000, -0.157900
  0.676000, -0.192880
  0.678000, -0.232300
  0.680000, -0.267210
  0.682000, -0.299840
  0.684000, -0.332230
  0.686000, -0.372110
  0.688000, -0.404180
  0.690000, -0.434350
  0.692000, -0.464160
  0.694000, -0.490530
  0.696000, -0.510080
  0.698000, -0.532450
  0.700000, -0.544270
  0.702000, -0.542290
  0.704000, -0.537640
  0.706000, -0.529400
  0.708000, -0.519660
  0.710000, -0.508470
  0.712000, -0.496400
  0.714000, -0.482370
  0.716000, -0.468450
  0.718000, -0.455990
  0.720000, -0.436750
  0.722000, -0.425070
  0.724000, -0.413750
  0.726000, -0.398720
  0.728000, -0.389890
  0.730000, -0.382680
  0.732000, -0.375310
  0.734000, -0.380600
  0.736000, -0.385520
  0.738000, -0.390970
  0.740000, -0.404940
  0.742000, -0.423850
  0.744000, -0.439500
  0.746000, -0.459120
  0.748000, -0.476150
  0.750000, -0.488720
  0.752000, -0.497430
  0.754000, -0.500510
  0.756000, -0.498320
  0.758000, -0.491040
  0.760000, -0.473830
  0.762000, -0.442100
  0.764000, -0.408680
  0.766000, -0.375540
  0.768000, -0.342450
  0.770000, -0.302630
  0.772000, -0.263790
  0.774000, -0.229350
  0.776000, -0.197310
  0.778000, -0.181100
  0.780000, -0.171290
  0.782000, -0.169680
  0.784000, -0.174570
  0.786000, -0.180300
  0.788000, -0.187980
  0.790000, -0.197500
  0.792000, -0.200350
  0.794000, -0.198550
  0.796000, -0.188800
  0.798000, -0.169780
  0.800000, -0.141750
  0.802000, -0.105140
  0.804000, -0.063650
  0.806000, -0.025340
  0.808000,  0.018870
  0.810000,  0.044050
  0.812000,  0.071300
  0.814000,  0.086620
  0.816000,  0.090610
  0.818000,  0.088440
  0.820000,  0.072220
  0.822000,  0.052400
  0.824000,  0.037180
  0.826000,  0.019210
  0.828000,  0.004670
  0.830000, -0.008690
  0.832000, -0.021460
  0.834000, -0.031630
  0.836000, -0.038440
  0.838000, -0.036700
  0.840000, -0.035990
  0.842000, -0.021860
  0.844000, -0.005220
  0.846000,  0.016430
  0.848000,  0.041670
  0.850000,  0.070200
  0.852000,  0.101790
  0.854000,  0.125360
  0.856000,  0.143270
  0.858000,  0.163260
  0.860000,  0.171850
  0.862000,  0.186090
  0.864000,  0.195700
  0.866000,  0.198400
  0.868000,  0.193750
  0.870000,  0.191580
  0.872000,  0.185820
  0.874000,  0.179610
  0.876000,  0.180730
  0.878000,  0.181520
  0.880000,  0.181610
  0.882000,  0.186260
  0.884000,  0.196280
  0.886000,  0.204800
  0.888000,  0.224240
  0.890000,  0.240490
  0.892000,  0.247050
  0.894000,  0.251290
  0.896000,  0.248520
  0.898000,  0.245360
  0.900000,  0.229040
  0.902000,  0.206180
  0.904000,  0.183810
  0.906000,  0.158980
  0.908000,  0.133750
  0.910000,  0.120230
  0.912000,  0.109300
  0.914000,  0.099200
  0.916000,  0.099620
  0.918000,  0.109480
  0.920000,  0.122660
  0.922000,  0.142970
  0.924000,  0.157540
  0.926000,  0.166260
  0.928000,  0.171770
  0.930000,  0.170030
  0.932000,  0.161080
  0.934000,  0.142780
  0.936000,  0.116850
  0.938000,  0.089510
  0.940000,  0.060680
  0.942000,  0.031290
  0.944000,  0.011660
  0.946000, -0.003570
  0.948000,  0.005200
  0.950000,  0.004840
  0.952000,  0.014210
  0.954000,  0.035800
  0.956000,  0.048030
  0.958000,  0.055600
  0.960000,  0.051810
  0.962000,  0.042130
  0.964000,  0.024230
  0.966000, -0.011400
  0.968000, -0.051120
  0.970000, -0.093890
  0.972000, -0.136180
  0.974000, -0.176140
  0.976000, -0.207430
  0.978000, -0.224260
  0.980000, -0.235280
  0.982000, -0.234880
  0.984000, -0.231210
  0.986000, -0.218140
  0.988000, -0.202710
  0.990000, -0.187230
  0.992000, -0.170300
  0.994000, -0.160300
  0.996000, -0.159920
  0.998000, -0.166340
  1.000000, -0.177190
