# z (nm)   (kJ/mol)
  0.116000,256.631440
  0.118000,254.246670
  0.120000,251.220860
  0.122000,248.699630
  0.124000,246.210690
  0.126000,243.767590
  0.128000,241.261470
  0.130000,238.701090
  0.132000,236.128370
  0.134000,233.490750
  0.136000,230.775590
  0.138000,227.963180
  0.140000,225.039000
  0.142000,221.981470
  0.144000,218.767060
  0.146000,215.377770
  0.148000,211.801330
  0.150000,208.025450
  0.152000,204.053710
  0.154000,199.909400
  0.156000,195.630310
  0.158000,191.250980
  0.160000,186.818660
  0.162000,182.364980
  0.164000,177.901790
  0.166000,173.442020
  0.168000,168.981810
  0.170000,164.519050
  0.172000,160.062650
  0.174000,155.630530
  0.176000,151.240540
  0.178000,146.927970
  0.180000,142.718280
  0.182000,138.623760
  0.184000,134.657020
  0.186000,130.810450
  0.188000,127.081160
  0.190000,123.461030
  0.192000,119.950910
  0.194000,116.550780
  0.196000,113.248400
  0.198000,110.022360
  0.200000,106.852310
  0.202000,103.712850
  0.204000,100.566830
  0.206000, 97.379050
  0.208000, 94.132060
  0.210000, 90.852010
  0.212000, 87.587530
  0.214000, 84.402990
  0.216000, 81.358080
  0.218000, 78.470580
  0.220000, 75.730420
  0.222000, 73.109400
  0.224000, 70.574360
  0.226000, 68.087690
  0.228000, 65.643250
  0.230000, 63.222280
  0.232000, 60.825810
  0.234000, 58.468420
  0.236000, 56.146750
  0.238000, 53.858470
  0.240000, 51.598760
  0.242000, 49.368370
  0.244000, 47.173360
  0.246000, 45.024360
  0.248000, 42.941430
  0.250000, 40.931410
  0.252000, 39.005610
  0.254000, 37.155570
  0.256000, 35.379660
  0.258000, 33.665170
  0.260000, 31.992330
  0.262000, 30.342150
  0.264000, 28.696670
  0.266000, 27.047210
  0.268000, 25.404230
  0.270000, 23.779380
  0.272000, 22.181660
  0.274000, 20.625200
  0.276000, 19.145920
  0.278000, 17.762530
  0.280000, 16.486580
  0.282000, 15.307860
  0.284000, 14.207170
  0.286000, 13.147940
  0.288000, 12.110770
  0.290000, 11.077410
  0.292000, 10.041710
  0.294000,  9.023850
  0.296000,  8.040200
  0.298000,  7.102350
  0.300000,  6.221350
  0.302000,  5.396850
  0.304000,  4.627580
  0.306000,  3.909760
  0.308000,  3.249150
  0.310000,  2.627360
  0.312000,  2.050810
  0.314000,  1.492310
  0.316000,  0.945260
  0.318000,  0.407080
  0.320000, -0.131480
  0.322000, -0.654760
  0.324000, -1.153230
  0.326000, -1.618560
  0.328000, -2.046720
  0.330000, -2.429710
  0.332000, -2.774730
  0.334000, -3.080720
  0.336000, -3.372200
  0.338000, -3.654850
  0.340000, -3.931240
  0.342000, -4.210390
  0.344000, -4.482040
  0.346000, -4.741920
  0.348000, -4.979310
  0.350000, -5.190310
  0.352000, -5.363450
  0.354000, -5.507990
  0.356000, -5.628690
  0.358000, -5.749570
  0.360000, -5.869560
  0.362000, -5.982320
  0.364000, -6.103300
  0.366000, -6.220170
  0.368000, -6.330950
  0.370000, -6.431090
  0.372000, -6.513180
  0.374000, -6.586970
  0.376000, -6.628190
  0.378000, -6.662300
  0.380000, -6.677140
  0.382000, -6.662200
  0.384000, -6.630540
  0.386000, -6.585440
  0.388000, -6.530440
  0.390000, -6.484300
  0.392000, -6.444890
  0.394000, -6.424690
  0.396000, -6.412670
  0.398000, -6.398820
  0.400000, -6.373890
  0.402000, -6.326560
  0.404000, -6.246650
  0.406000, -6.139890
  0.408000, -6.014990
  0.410000, -5.868810
  0.412000, -5.723230
  0.414000, -5.588820
  0.416000, -5.478540
  0.418000, -5.394640
  0.420000, -5.341360
  0.422000, -5.303590
  0.424000, -5.291910
  0.426000, -5.288330
  0.428000, -5.263770
  0.430000, -5.220290
  0.432000, -5.138950
  0.434000, -5.037600
  0.436000, -4.927560
  0.438000, -4.803380
  0.440000, -4.687000
  0.442000, -4.592510
  0.444000, -4.508530
  0.446000, -4.445930
  0.448000, -4.407430
  0.450000, -4.372080
  0.452000, -4.342660
  0.454000, -4.314860
  0.456000, -4.282670
  0.458000, -4.233860
  0.460000, -4.177580
  0.462000, -4.119450
  0.464000, -4.067090
  0.466000, -4.014750
  0.468000, -3.974350
  0.470000, -3.941750
  0.472000, -3.914450
  0.474000, -3.877930
  0.476000, -3.826560
  0.478000, -3.766520
  0.480000, -3.691220
  0.482000, -3.616060
  0.484000, -3.540910
  0.486000, -3.482400
  0.488000, -3.428600
  0.490000, -3.388250
  0.492000, -3.356790
  0.494000, -3.321850
  0.496000, -3.276540
  0.498000, -3.213330
  0.500000, -3.143010
  0.502000, -3.057300
  0.504000, -2.961490
  0.506000, -2.855140
  0.508000, -2.741410
  0.510000, -2.620590
  0.512000, -2.503390
  0.514000, -2.393350
  0.516000, -2.285910
  0.518000, -2.190640
  0.520000, -2.099400
  0.522000, -2.012650
  0.524000, -1.928800
  0.526000, -1.847750
  0.528000, -1.763320
  0.530000, -1.673010
  0.532000, -1.576380
  0.534000, -1.475230
  0.536000, -1.364960
  0.538000, -1.259010
  0.540000, -1.154530
  0.542000, -1.063770
  0.544000, -0.982060
  0.546000, -0.918190
  0.548000, -0.874630
  0.550000, -0.836430
  0.552000, -0.809330
  0.554000, -0.790740
  0.556000, -0.751950
  0.558000, -0.716920
  0.560000, -0.675490
  0.562000, -0.624430
  0.564000, -0.568230
  0.566000, -0.514470
  0.568000, -0.462290
  0.570000, -0.416440
  0.572000, -0.377920
  0.574000, -0.344440
  0.576000, -0.320190
  0.578000, -0.297060
  0.580000, -0.274050
  0.582000, -0.244520
  0.584000, -0.213980
  0.586000, -0.183200
  0.588000, -0.145830
  0.590000, -0.106080
  0.592000, -0.079440
  0.594000, -0.055240
  0.596000, -0.054600
  0.598000, -0.059130
  0.600000, -0.066470
  0.602000, -0.068590
  0.604000, -0.069750
  0.606000, -0.053070
  0.608000, -0.037740
  0.610000, -0.011130
  0.612000,  0.020070
  0.614000,  0.055980
  0.616000,  0.083780
  0.618000,  0.108330
  0.620000,  0.109730
  0.622000,  0.102440
  0.624000,  0.087250
  0.626000,  0.061360
  0.628000,  0.029960
  0.630000,  0.002070
  0.632000, -0.018780
  0.634000, -0.023860
  0.636000, -0.023510
  0.638000, -0.006580
  0.640000,  0.003600
  0.642000,  0.015640
  0.644000,  0.027140
  0.646000,  0.025500
  0.648000,  0.022660
  0.650000,  0.016830
  0.652000, -0.002230
  0.654000, -0.034520
  0.656000, -0.064890
  0.658000, -0.102530
  0.660000, -0.139750
  0.662000, -0.174280
  0.664000, -0.208750
  0.666000, -0.234150
  0.668000, -0.252700
  0.670000, -0.275240
  0.672000, -0.288480
  0.674000, -0.309280
  0.676000, -0.328590
  0.678000, -0.355860
  0.680000, -0.384250
  0.682000, -0.412600
  0.684000, -0.448530
  0.686000, -0.482050
  0.688000, -0.511450
  0.690000, -0.538930
  0.692000, -0.558820
  0.694000, -0.582550
  0.696000, -0.600660
  0.698000, -0.612450
  0.700000, -0.619800
  0.702000, -0.624650
  0.704000, -0.638370
  0.706000, -0.648360
  0.708000, -0.656560
  0.710000, -0.661780
  0.712000, -0.660710
  0.714000, -0.661800
  0.716000, -0.653160
  0.718000, -0.653750
  0.720000, -0.655650
  0.722000, -0.653880
  0.724000, -0.659420
  0.726000, -0.668150
  0.728000, -0.695690
  0.730000, -0.715850
  0.732000, -0.736990
  0.734000, -0.762540
  0.736000, -0.783040
  0.738000, -0.804790
  0.740000, -0.821870
  0.742000, -0.831490
  0.744000, -0.843330
  0.746000, -0.855890
  0.748000, -0.867030
  0.750000, -0.881080
  0.752000, -0.895930
  0.754000, -0.920790
  0.756000, -0.938760
  0.758000, -0.963800
  0.760000, -0.983990
  0.762000, -0.995760
  0.764000, -1.000880
  0.766000, -0.988380
  0.768000, -0.968070
  0.770000, -0.940350
  0.772000, -0.899610
  0.774000, -0.856990
  0.776000, -0.808890
  0.778000, -0.766300
  0.780000, -0.725970
  0.782000, -0.698270
  0.784000, -0.681810
  0.786000, -0.663880
  0.788000, -0.661520
  0.790000, -0.659100
  0.792000, -0.658790
  0.794000, -0.665000
  0.796000, -0.666180
  0.798000, -0.660810
  0.800000, -0.654100
  0.802000, -0.642490
  0.804000, -0.624540
  0.806000, -0.596100
  0.808000, -0.561790
  0.810000, -0.523890
  0.812000, -0.481270
  0.814000, -0.430660
  0.816000, -0.379410
  0.818000, -0.332770
  0.820000, -0.290200
  0.822000, -0.255430
  0.824000, -0.228260
  0.826000, -0.208540
  0.828000, -0.195590
  0.830000, -0.190190
  0.832000, -0.192640
  0.834000, -0.192690
  0.836000, -0.194280
  0.838000, -0.195870
  0.840000, -0.197770
  0.842000, -0.186010
  0.844000, -0.173530
  0.846000, -0.157200
  0.848000, -0.141420
  0.850000, -0.122780
  0.852000, -0.109520
  0.854000, -0.099480
  0.856000, -0.091640
  0.858000, -0.084020
  0.860000, -0.073290
  0.862000, -0.066560
  0.864000, -0.070190
  0.866000, -0.084490
  0.868000, -0.092030
  0.870000, -0.101600
  0.872000, -0.098330
  0.874000, -0.087220
  0.876000, -0.065080
  0.878000, -0.039110
  0.880000, -0.010110
  0.882000,  0.018630
  0.884000,  0.037860
  0.886000,  0.040800
  0.888000,  0.037270
  0.890000,  0.025770
  0.892000,  0.014780
  0.894000,  0.006400
  0.896000,  0.003170
  0.898000,  0.013300
  0.900000,  0.034260
  0.902000,  0.062090
  0.904000,  0.093330
  0.906000,  0.121180
  0.908000,  0.145870
  0.910000,  0.164510
  0.912000,  0.180400
  0.914000,  0.191550
  0.916000,  0.189160
  0.918000,  0.189180
  0.920000,  0.182570
  0.922000,  0.170130
  0.924000,  0.151270
  0.926000,  0.128020
  0.928000,  0.097840
  0.930000,  0.071780
  0.932000,  0.048280
  0.934000,  0.030180
  0.936000,  0.022340
  0.938000,  0.016450
  0.940000,  0.021310
  0.942000,  0.034540
  0.944000,  0.051590
  0.946000,  0.077820
  0.948000,  0.094910
  0.950000,  0.108450
  0.952000,  0.107960
  0.954000,  0.102730
  0.956000,  0.088740
  0.958000,  0.062010
  0.960000,  0.035780
  0.962000,  0.005330
  0.964000, -0.028070
  0.966000, -0.060760
  0.968000, -0.095590
  0.970000, -0.127780
  0.972000, -0.149830
  0.974000, -0.173280
  0.976000, -0.187810
  0.978000, -0.196670
  0.980000, -0.194210
  0.982000, -0.186340
  0.984000, -0.176020
  0.986000, -0.158230
  0.988000, -0.143970
  0.990000, -0.139100
  0.992000, -0.152120
  0.994000, -0.166820
  0.996000, -0.199630
  0.998000, -0.236970
  1.000000, -0.274120
