# z (nm)   (kJ/mol)
  0.044000,270.034390
  0.046000,267.798410
  0.048000,265.600160
  0.050000,263.103990
  0.052000,260.919780
  0.054000,258.549480
  0.056000,256.298010
  0.058000,254.025990
  0.060000,251.720250
  0.062000,249.407080
  0.064000,247.015470
  0.066000,244.578950
  0.068000,242.078120
  0.070000,239.486290
  0.072000,236.804830
  0.074000,234.004640
  0.076000,231.080450
  0.078000,228.017770
  0.080000,224.797790
  0.082000,221.418040
  0.084000,217.870680
  0.086000,214.163850
  0.088000,210.302780
  0.090000,206.324340
  0.092000,202.257940
  0.094000,198.140130
  0.096000,194.014770
  0.098000,189.926080
  0.100000,185.903980
  0.102000,181.967630
  0.104000,178.127020
  0.106000,174.373990
  0.108000,170.696690
  0.110000,167.074360
  0.112000,163.492410
  0.114000,159.941010
  0.116000,156.416520
  0.118000,152.931440
  0.120000,149.503530
  0.122000,146.142540
  0.124000,142.872140
  0.126000,139.705600
  0.128000,136.647160
  0.130000,133.692440
  0.132000,130.833210
  0.134000,128.040090
  0.136000,125.300180
  0.138000,122.580710
  0.140000,119.865830
  0.142000,117.136800
  0.144000,114.392560
  0.146000,111.635930
  0.148000,108.868790
  0.150000,106.105780
  0.152000,103.344920
  0.154000,100.603180
  0.156000, 97.895070
  0.158000, 95.220340
  0.160000, 92.592620
  0.162000, 90.012520
  0.164000, 87.491330
  0.166000, 85.028450
  0.168000, 82.625390
  0.170000, 80.286340
  0.172000, 78.005230
  0.174000, 75.784330
  0.176000, 73.603460
  0.178000, 71.456610
  0.180000, 69.322550
  0.182000, 67.198550
  0.184000, 65.073650
  0.186000, 62.953760
  0.188000, 60.852980
  0.190000, 58.785920
  0.192000, 56.774110
  0.194000, 54.830060
  0.196000, 52.960780
  0.198000, 51.160250
  0.200000, 49.413520
  0.202000, 47.710290
  0.204000, 46.033980
  0.206000, 44.373700
  0.208000, 42.721050
  0.210000, 41.081430
  0.212000, 39.464260
  0.214000, 37.876530
  0.216000, 36.330750
  0.218000, 34.821380
  0.220000, 33.355650
  0.222000, 31.932730
  0.224000, 30.540450
  0.226000, 29.180280
  0.228000, 27.840080
  0.230000, 26.516860
  0.232000, 25.205850
  0.234000, 23.900390
  0.236000, 22.616760
  0.238000, 21.348860
  0.240000, 20.117070
  0.242000, 18.939150
  0.244000, 17.832070
  0.246000, 16.806540
  0.248000, 15.867880
  0.250000, 15.005790
  0.252000, 14.199330
  0.254000, 13.417100
  0.256000, 12.636970
  0.258000, 11.831560
  0.260000, 10.988020
  0.262000, 10.098580
  0.264000,  9.186260
  0.266000,  8.284000
  0.268000,  7.426510
  0.270000,  6.652060
  0.272000,  5.974500
  0.274000,  5.397200
  0.276000,  4.908030
  0.278000,  4.454560
  0.280000,  4.006230
  0.282000,  3.539550
  0.284000,  3.049450
  0.286000,  2.531460
  0.288000,  2.018760
  0.290000,  1.521780
  0.292000,  1.064330
  0.294000,  0.666190
  0.296000,  0.319890
  0.298000,  0.028420
  0.300000, -0.225530
  0.302000, -0.463480
  0.304000, -0.678500
  0.306000, -0.887210
  0.308000, -1.096590
  0.310000, -1.310760
  0.312000, -1.519040
  0.314000, -1.719600
  0.316000, -1.912990
  0.318000, -2.092050
  0.320000, -2.249110
  0.322000, -2.389090
  0.324000, -2.501110
  0.326000, -2.600710
  0.328000, -2.674740
  0.330000, -2.737680
  0.332000, -2.788910
  0.334000, -2.834810
  0.336000, -2.881170
  0.338000, -2.923180
  0.340000, -2.964920
  0.342000, -3.005230
  0.344000, -3.035940
  0.346000, -3.059120
  0.348000, -3.071810
  0.350000, -3.063840
  0.352000, -3.052070
  0.354000, -3.028160
  0.356000, -2.986730
  0.358000, -2.937380
  0.360000, -2.881160
  0.362000, -2.823450
  0.364000, -2.760440
  0.366000, -2.693720
  0.368000, -2.630740
  0.370000, -2.560260
  0.372000, -2.481600
  0.374000, -2.400290
  0.376000, -2.312360
  0.378000, -2.223400
  0.380000, -2.133050
  0.382000, -2.039990
  0.384000, -1.937800
  0.386000, -1.835650
  0.388000, -1.731760
  0.390000, -1.624420
  0.392000, -1.515420
  0.394000, -1.399500
  0.396000, -1.276300
  0.398000, -1.151210
  0.400000, -1.016620
  0.402000, -0.865990
  0.404000, -0.711590
  0.406000, -0.543780
  0.408000, -0.368520
  0.410000, -0.190830
  0.412000, -0.007770
  0.414000,  0.168720
  0.416000,  0.337050
  0.418000,  0.508770
  0.420000,  0.665030
  0.422000,  0.812690
  0.424000,  0.949100
  0.426000,  1.074060
  0.428000,  1.189710
  0.430000,  1.300840
  0.432000,  1.411590
  0.434000,  1.522690
  0.436000,  1.630040
  0.438000,  1.745490
  0.440000,  1.862340
  0.442000,  1.980240
  0.444000,  2.085570
  0.446000,  2.195490
  0.448000,  2.302390
  0.450000,  2.398600
  0.452000,  2.486880
  0.454000,  2.563270
  0.456000,  2.632810
  0.458000,  2.690850
  0.460000,  2.737640
  0.462000,  2.772450
  0.464000,  2.797600
  0.466000,  2.820920
  0.468000,  2.834360
  0.470000,  2.845520
  0.472000,  2.848050
  0.474000,  2.837130
  0.476000,  2.826170
  0.478000,  2.796040
  0.480000,  2.756150
  0.482000,  2.715880
  0.484000,  2.674790
  0.486000,  2.619280
  0.488000,  2.563550
  0.490000,  2.498980
  0.492000,  2.444320
  0.494000,  2.384050
  0.496000,  2.323090
  0.498000,  2.264020
  0.500000,  2.202050
  0.502000,  2.143890
  0.504000,  2.076350
  0.506000,  2.005200
  0.508000,  1.924880
  0.510000,  1.833450
  0.512000,  1.746640
  0.514000,  1.645180
  0.516000,  1.545510
  0.518000,  1.449330
  0.520000,  1.353540
  0.522000,  1.265130
  0.524000,  1.173390
  0.526000,  1.096170
  0.528000,  1.016540
  0.530000,  0.947780
  0.532000,  0.888090
  0.534000,  0.829630
  0.536000,  0.775300
  0.538000,  0.728020
  0.540000,  0.679760
  0.542000,  0.632970
  0.544000,  0.572910
  0.546000,  0.523840
  0.548000,  0.472530
  0.550000,  0.421610
  0.552000,  0.372260
  0.554000,  0.323340
  0.556000,  0.284590
  0.558000,  0.241100
  0.560000,  0.194590
  0.562000,  0.160250
  0.564000,  0.127660
  0.566000,  0.091580
  0.568000,  0.058060
  0.570000,  0.032220
  0.572000,  0.005890
  0.574000, -0.016200
  0.576000, -0.035130
  0.578000, -0.058600
  0.580000, -0.084500
  0.582000, -0.107800
  0.584000, -0.131600
  0.586000, -0.155360
  0.588000, -0.182760
  0.590000, -0.209450
  0.592000, -0.234020
  0.594000, -0.254510
  0.596000, -0.271770
  0.598000, -0.283920
  0.600000, -0.287400
  0.602000, -0.294090
  0.604000, -0.300250
  0.606000, -0.303020
  0.608000, -0.313220
  0.610000, -0.325020
  0.612000, -0.338130
  0.614000, -0.356130
  0.616000, -0.376990
  0.618000, -0.397060
  0.620000, -0.413220
  0.622000, -0.427330
  0.624000, -0.436380
  0.626000, -0.437580
  0.628000, -0.426620
  0.630000, -0.399040
  0.632000, -0.365110
  0.634000, -0.329800
  0.636000, -0.289200
  0.638000, -0.254660
  0.640000, -0.218550
  0.642000, -0.187200
  0.644000, -0.165330
  0.646000, -0.152380
  0.648000, -0.145040
  0.650000, -0.141390
  0.652000, -0.146840
  0.654000, -0.156310
  0.656000, -0.159980
  0.658000, -0.161130
  0.660000, -0.163780
  0.662000, -0.162110
  0.664000, -0.153690
  0.666000, -0.141660
  0.668000, -0.125520
  0.670000, -0.106060
  0.672000, -0.086290
  0.674000, -0.064290
  0.676000, -0.042900
  0.678000, -0.020930
  0.680000, -0.000370
  0.682000,  0.023190
  0.684000,  0.039990
  0.686000,  0.062460
  0.688000,  0.078870
  0.690000,  0.089490
  0.692000,  0.101090
  0.694000,  0.116070
  0.696000,  0.129950
  0.698000,  0.139880
  0.700000,  0.151960
  0.702000,  0.165550
  0.704000,  0.168310
  0.706000,  0.171140
  0.708000,  0.182070
  0.710000,  0.194490
  0.712000,  0.212570
  0.714000,  0.224120
  0.716000,  0.237000
  0.718000,  0.254090
  0.720000,  0.277220
  0.722000,  0.291260
  0.724000,  0.304590
  0.726000,  0.317570
  0.728000,  0.324310
  0.730000,  0.331960
  0.732000,  0.342420
  0.734000,  0.351400
  0.736000,  0.355530
  0.738000,  0.358780
  0.740000,  0.367550
  0.742000,  0.375650
  0.744000,  0.386830
  0.746000,  0.403230
  0.748000,  0.417350
  0.750000,  0.434670
  0.752000,  0.450370
  0.754000,  0.459940
  0.756000,  0.477940
  0.758000,  0.477960
  0.760000,  0.484390
  0.762000,  0.486140
  0.764000,  0.478270
  0.766000,  0.471190
  0.768000,  0.461980
  0.770000,  0.447780
  0.772000,  0.434260
  0.774000,  0.418120
  0.776000,  0.397750
  0.778000,  0.386520
  0.780000,  0.377110
  0.782000,  0.367360
  0.784000,  0.368440
  0.786000,  0.370750
  0.788000,  0.374530
  0.790000,  0.381880
  0.792000,  0.392660
  0.794000,  0.411060
  0.796000,  0.424560
  0.798000,  0.436740
  0.800000,  0.449450
  0.802000,  0.458350
  0.804000,  0.468920
  0.806000,  0.474720
  0.808000,  0.477900
  0.810000,  0.482340
  0.812000,  0.476350
  0.814000,  0.476850
  0.816000,  0.469820
  0.818000,  0.468780
  0.820000,  0.467520
  0.822000,  0.465170
  0.824000,  0.463990
  0.826000,  0.455140
  0.828000,  0.448900
  0.830000,  0.443210
  0.832000,  0.435630
  0.834000,  0.430520
  0.836000,  0.424190
  0.838000,  0.411310
  0.840000,  0.397850
  0.842000,  0.387390
  0.844000,  0.368580
  0.846000,  0.353720
  0.848000,  0.339000
  0.850000,  0.324610
  0.852000,  0.310730
  0.854000,  0.299390
  0.856000,  0.285900
  0.858000,  0.272880
  0.860000,  0.266320
  0.862000,  0.255630
  0.864000,  0.241910
  0.866000,  0.229550
  0.868000,  0.220700
  0.870000,  0.206370
  0.872000,  0.189030
  0.874000,  0.171670
  0.876000,  0.153960
  0.878000,  0.132950
  0.880000,  0.110290
  0.882000,  0.090960
  0.884000,  0.073270
  0.886000,  0.059820
  0.888000,  0.049000
  0.890000,  0.039280
  0.892000,  0.033320
  0.894000,  0.034670
  0.896000,  0.038670
  0.898000,  0.046420
  0.900000,  0.059770
  0.902000,  0.072320
  0.904000,  0.082860
  0.906000,  0.095630
  0.908000,  0.108890
  0.910000,  0.121880
  0.912000,  0.125000
  0.914000,  0.127100
  0.916000,  0.128310
  0.918000,  0.119920
  0.920000,  0.106750
  0.922000,  0.090810
  0.924000,  0.078370
  0.926000,  0.059430
  0.928000,  0.035460
  0.930000,  0.012510
  0.932000, -0.011780
  0.934000, -0.028850
  0.936000, -0.039850
  0.938000, -0.052520
  0.940000, -0.059440
  0.942000, -0.063780
  0.944000, -0.066210
  0.946000, -0.070650
  0.948000, -0.071410
  0.950000, -0.072040
  0.952000, -0.070450
  0.954000, -0.069440
  0.956000, -0.067610
  0.958000, -0.059640
  0.960000, -0.058130
  0.962000, -0.056160
  0.964000, -0.056220
  0.966000, -0.053230
  0.968000, -0.046890
  0.970000, -0.036380
  0.972000, -0.030220
  0.974000, -0.020480
  0.976000, -0.011500
  0.978000, -0.005320
  0.980000,  0.003420
  0.982000,  0.010500
  0.984000,  0.011400
  0.986000,  0.011640
  0.988000,  0.004320
  0.990000, -0.002000
  0.992000, -0.014450
  0.994000, -0.028590
  0.996000, -0.044150
  0.998000, -0.060970
  1.000000, -0.078170
