# z (nm)   (kJ/mol)
  0.128000,258.738090
  0.130000,255.374190
  0.132000,252.196640
  0.134000,249.467200
  0.136000,246.902870
  0.138000,244.415780
  0.140000,241.962530
  0.142000,239.421340
  0.144000,236.840210
  0.146000,234.178610
  0.148000,231.412520
  0.150000,228.517160
  0.152000,225.481840
  0.154000,222.283440
  0.156000,218.912080
  0.158000,215.366730
  0.160000,211.640570
  0.162000,207.740260
  0.164000,203.671860
  0.166000,199.447760
  0.168000,195.084210
  0.170000,190.582800
  0.172000,185.943510
  0.174000,181.160440
  0.176000,176.244080
  0.178000,171.225600
  0.180000,166.168700
  0.182000,161.163880
  0.184000,156.308180
  0.186000,151.669650
  0.188000,147.279710
  0.190000,143.125690
  0.192000,139.157520
  0.194000,135.304130
  0.196000,131.491570
  0.198000,127.663110
  0.200000,123.795550
  0.202000,119.906550
  0.204000,116.039880
  0.206000,112.237220
  0.208000,108.544230
  0.210000,104.999730
  0.212000,101.630040
  0.214000, 98.457040
  0.216000, 95.472140
  0.218000, 92.611380
  0.220000, 89.743410
  0.222000, 86.755130
  0.224000, 83.649680
  0.226000, 80.554160
  0.228000, 77.595130
  0.230000, 74.803180
  0.232000, 72.083450
  0.234000, 69.364600
  0.236000, 66.638990
  0.238000, 63.978060
  0.240000, 61.449420
  0.242000, 59.073460
  0.244000, 56.813330
  0.246000, 54.598930
  0.248000, 52.383430
  0.250000, 50.133570
  0.252000, 47.873010
  0.254000, 45.643500
  0.256000, 43.489620
  0.258000, 41.444690
  0.260000, 39.540650
  0.262000, 37.761320
  0.264000, 36.064020
  0.266000, 34.390170
  0.268000, 32.690760
  0.270000, 30.957980
  0.272000, 29.221980
  0.274000, 27.540780
  0.276000, 25.964630
  0.278000, 24.515720
  0.280000, 23.170380
  0.282000, 21.881260
  0.284000, 20.622960
  0.286000, 19.373980
  0.288000, 18.139440
  0.290000, 16.933380
  0.292000, 15.786800
  0.294000, 14.721430
  0.296000, 13.734610
  0.298000, 12.813350
  0.300000, 11.924440
  0.302000, 11.056660
  0.304000, 10.194660
  0.306000,  9.327180
  0.308000,  8.471500
  0.310000,  7.657040
  0.312000,  6.904830
  0.314000,  6.226020
  0.316000,  5.609200
  0.318000,  5.043870
  0.320000,  4.498970
  0.322000,  3.958380
  0.324000,  3.410420
  0.326000,  2.863610
  0.328000,  2.320460
  0.330000,  1.817300
  0.332000,  1.368910
  0.334000,  0.976400
  0.336000,  0.629290
  0.338000,  0.329360
  0.340000,  0.041510
  0.342000, -0.240430
  0.344000, -0.532780
  0.346000, -0.825350
  0.348000, -1.113400
  0.350000, -1.396800
  0.352000, -1.643880
  0.354000, -1.869300
  0.356000, -2.045020
  0.358000, -2.202960
  0.360000, -2.326750
  0.362000, -2.432110
  0.364000, -2.530000
  0.366000, -2.640340
  0.368000, -2.776150
  0.370000, -2.924170
  0.372000, -3.075280
  0.374000, -3.205230
  0.376000, -3.298890
  0.378000, -3.331080
  0.380000, -3.305840
  0.382000, -3.240590
  0.384000, -3.163610
  0.386000, -3.093140
  0.388000, -3.055730
  0.390000, -3.044440
  0.392000, -3.049660
  0.394000, -3.045480
  0.396000, -3.027230
  0.398000, -2.984220
  0.400000, -2.913480
  0.402000, -2.821130
  0.404000, -2.716420
  0.406000, -2.612540
  0.408000, -2.519990
  0.410000, -2.438670
  0.412000, -2.363760
  0.414000, -2.317130
  0.416000, -2.281360
  0.418000, -2.258090
  0.420000, -2.225250
  0.422000, -2.176400
  0.424000, -2.109430
  0.426000, -2.023470
  0.428000, -1.919640
  0.430000, -1.809340
  0.432000, -1.709540
  0.434000, -1.617630
  0.436000, -1.529170
  0.438000, -1.438790
  0.440000, -1.358270
  0.442000, -1.262520
  0.444000, -1.157900
  0.446000, -1.042890
  0.448000, -0.906110
  0.450000, -0.750660
  0.452000, -0.582930
  0.454000, -0.421030
  0.456000, -0.267540
  0.458000, -0.119010
  0.460000,  0.008710
  0.462000,  0.111980
  0.464000,  0.208580
  0.466000,  0.291700
  0.468000,  0.376390
  0.470000,  0.469140
  0.472000,  0.572260
  0.474000,  0.692700
  0.476000,  0.828320
  0.478000,  0.958380
  0.480000,  1.084130
  0.482000,  1.199270
  0.484000,  1.292750
  0.486000,  1.370780
  0.488000,  1.435280
  0.490000,  1.498180
  0.492000,  1.559400
  0.494000,  1.636780
  0.496000,  1.712740
  0.498000,  1.798790
  0.500000,  1.902110
  0.502000,  2.003140
  0.504000,  2.117440
  0.506000,  2.236470
  0.508000,  2.360050
  0.510000,  2.486900
  0.512000,  2.600160
  0.514000,  2.693710
  0.516000,  2.775730
  0.518000,  2.845260
  0.520000,  2.905760
  0.522000,  2.956090
  0.524000,  2.996270
  0.526000,  3.031950
  0.528000,  3.073250
  0.530000,  3.128910
  0.532000,  3.192150
  0.534000,  3.270450
  0.536000,  3.346280
  0.538000,  3.403840
  0.540000,  3.447340
  0.542000,  3.469270
  0.544000,  3.461100
  0.546000,  3.444290
  0.548000,  3.426330
  0.550000,  3.419810
  0.552000,  3.419380
  0.554000,  3.408470
  0.556000,  3.389410
  0.558000,  3.363220
  0.560000,  3.318180
  0.562000,  3.283160
  0.564000,  3.255350
  0.566000,  3.246670
  0.568000,  3.245830
  0.570000,  3.251260
  0.572000,  3.244530
  0.574000,  3.207650
  0.576000,  3.145000
  0.578000,  3.051440
  0.580000,  2.931790
  0.582000,  2.807350
  0.584000,  2.684740
  0.586000,  2.579260
  0.588000,  2.486250
  0.590000,  2.408020
  0.592000,  2.331340
  0.594000,  2.267070
  0.596000,  2.206310
  0.598000,  2.156890
  0.600000,  2.106730
  0.602000,  2.058870
  0.604000,  2.011320
  0.606000,  1.955080
  0.608000,  1.901170
  0.610000,  1.839320
  0.612000,  1.786270
  0.614000,  1.742630
  0.616000,  1.705490
  0.618000,  1.681820
  0.620000,  1.669880
  0.622000,  1.668280
  0.624000,  1.674500
  0.626000,  1.669340
  0.628000,  1.665110
  0.630000,  1.663810
  0.632000,  1.658990
  0.634000,  1.644670
  0.636000,  1.629210
  0.638000,  1.602250
  0.640000,  1.566430
  0.642000,  1.527470
  0.644000,  1.485370
  0.646000,  1.447450
  0.648000,  1.420420
  0.650000,  1.415040
  0.652000,  1.422490
  0.654000,  1.443410
  0.656000,  1.470430
  0.658000,  1.514000
  0.660000,  1.544860
  0.662000,  1.574490
  0.664000,  1.586750
  0.666000,  1.578410
  0.668000,  1.553200
  0.670000,  1.508730
  0.672000,  1.454690
  0.674000,  1.393970
  0.676000,  1.336530
  0.678000,  1.288040
  0.680000,  1.245860
  0.682000,  1.216320
  0.684000,  1.196170
  0.686000,  1.186790
  0.688000,  1.181590
  0.690000,  1.170130
  0.692000,  1.154940
  0.694000,  1.124500
  0.696000,  1.083270
  0.698000,  1.032500
  0.700000,  0.964070
  0.702000,  0.899150
  0.704000,  0.842910
  0.706000,  0.796700
  0.708000,  0.762050
  0.710000,  0.743730
  0.712000,  0.713590
  0.714000,  0.683460
  0.716000,  0.643060
  0.718000,  0.594510
  0.720000,  0.548100
  0.722000,  0.510510
  0.724000,  0.489240
  0.726000,  0.480510
  0.728000,  0.490470
  0.730000,  0.497680
  0.732000,  0.497710
  0.734000,  0.484980
  0.736000,  0.452850
  0.738000,  0.387290
  0.740000,  0.302290
  0.742000,  0.205930
  0.744000,  0.105570
  0.746000,  0.010240
  0.748000, -0.061820
  0.750000, -0.109320
  0.752000, -0.129960
  0.754000, -0.133450
  0.756000, -0.120510
  0.758000, -0.099610
  0.760000, -0.085680
  0.762000, -0.077400
  0.764000, -0.079850
  0.766000, -0.098100
  0.768000, -0.134480
  0.770000, -0.183290
  0.772000, -0.240240
  0.774000, -0.295550
  0.776000, -0.352820
  0.778000, -0.393530
  0.780000, -0.420430
  0.782000, -0.422460
  0.784000, -0.406310
  0.786000, -0.371200
  0.788000, -0.324630
  0.790000, -0.283940
  0.792000, -0.255610
  0.794000, -0.245310
  0.796000, -0.264870
  0.798000, -0.305740
  0.800000, -0.360890
  0.802000, -0.422950
  0.804000, -0.483560
  0.806000, -0.537190
  0.808000, -0.576490
  0.810000, -0.597700
  0.812000, -0.604750
  0.814000, -0.602790
  0.816000, -0.588320
  0.818000, -0.564060
  0.820000, -0.543500
  0.822000, -0.520480
  0.824000, -0.496350
  0.826000, -0.474220
  0.828000, -0.464090
  0.830000, -0.460320
  0.832000, -0.468890
  0.834000, -0.482930
  0.836000, -0.503450
  0.838000, -0.531030
  0.840000, -0.565720
  0.842000, -0.594240
  0.844000, -0.618800
  0.846000, -0.635720
  0.848000, -0.635620
  0.850000, -0.623110
  0.852000, -0.596930
  0.854000, -0.564790
  0.856000, -0.524620
  0.858000, -0.495370
  0.860000, -0.465630
  0.862000, -0.447520
  0.864000, -0.442000
  0.866000, -0.450950
  0.868000, -0.468830
  0.870000, -0.482690
  0.872000, -0.496520
  0.874000, -0.498490
  0.876000, -0.483670
  0.878000, -0.455960
  0.880000, -0.416730
  0.882000, -0.366100
  0.884000, -0.314860
  0.886000, -0.269730
  0.888000, -0.226300
  0.890000, -0.190760
  0.892000, -0.167810
  0.894000, -0.155410
  0.896000, -0.153340
  0.898000, -0.162300
  0.900000, -0.174860
  0.902000, -0.196570
  0.904000, -0.214640
  0.906000, -0.221390
  0.908000, -0.229450
  0.910000, -0.224170
  0.912000, -0.214040
  0.914000, -0.194330
  0.916000, -0.163850
  0.918000, -0.128290
  0.920000, -0.089550
  0.922000, -0.042800
  0.924000, -0.003600
  0.926000,  0.034660
  0.928000,  0.065430
  0.930000,  0.089810
  0.932000,  0.104400
  0.934000,  0.109520
  0.936000,  0.110390
  0.938000,  0.103120
  0.940000,  0.086900
  0.942000,  0.073970
  0.944000,  0.066140
  0.946000,  0.063100
  0.948000,  0.057800
  0.950000,  0.066920
  0.952000,  0.078380
  0.954000,  0.099610
  0.956000,  0.122970
  0.958000,  0.137240
  0.960000,  0.144740
  0.962000,  0.143670
  0.964000,  0.138740
  0.966000,  0.127730
  0.968000,  0.119290
  0.970000,  0.105720
  0.972000,  0.087400
  0.974000,  0.069870
  0.976000,  0.050280
  0.978000,  0.032280
  0.980000,  0.017880
  0.982000,  0.000730
  0.984000, -0.014750
  0.986000, -0.034620
  0.988000, -0.049800
  0.990000, -0.067250
  0.992000, -0.084680
  0.994000, -0.089980
  0.996000, -0.091080
  0.998000, -0.083100
  1.000000, -0.070730
