# z (nm)   (kJ/mol)
  0.112000,257.261170
  0.114000,255.074590
  0.116000,252.935240
  0.118000,250.828300
  0.120000,248.504270
  0.122000,245.986100
  0.124000,243.483500
  0.126000,241.174180
  0.128000,238.726130
  0.130000,236.253920
  0.132000,233.696250
  0.134000,231.044410
  0.136000,228.275480
  0.138000,225.363430
  0.140000,222.297670
  0.142000,219.074010
  0.144000,215.685780
  0.146000,212.128590
  0.148000,208.397630
  0.150000,204.499280
  0.152000,200.435610
  0.154000,196.221430
  0.156000,191.866390
  0.158000,187.381780
  0.160000,182.781900
  0.162000,178.079680
  0.164000,173.289360
  0.166000,168.437240
  0.168000,163.549990
  0.170000,158.693490
  0.172000,153.933280
  0.174000,149.338110
  0.176000,144.969220
  0.178000,140.848810
  0.180000,136.953090
  0.182000,133.218390
  0.184000,129.579020
  0.186000,125.950650
  0.188000,122.284380
  0.190000,118.551610
  0.192000,114.755580
  0.194000,110.932870
  0.196000,107.129740
  0.198000,103.392830
  0.200000, 99.755130
  0.202000, 96.226940
  0.204000, 92.801750
  0.206000, 89.453430
  0.208000, 86.161330
  0.210000, 82.910630
  0.212000, 79.702200
  0.214000, 76.549790
  0.216000, 73.487350
  0.218000, 70.536010
  0.220000, 67.683580
  0.222000, 64.907940
  0.224000, 62.171670
  0.226000, 59.459340
  0.228000, 56.749300
  0.230000, 54.062570
  0.232000, 51.431740
  0.234000, 48.894060
  0.236000, 46.481650
  0.238000, 44.200630
  0.240000, 42.032890
  0.242000, 39.965110
  0.244000, 37.950010
  0.246000, 35.962790
  0.248000, 33.977230
  0.250000, 31.984790
  0.252000, 30.024150
  0.254000, 28.155070
  0.256000, 26.425420
  0.258000, 24.848290
  0.260000, 23.376570
  0.262000, 21.945940
  0.264000, 20.502510
  0.266000, 19.046790
  0.268000, 17.588360
  0.270000, 16.163130
  0.272000, 14.799420
  0.274000, 13.536810
  0.276000, 12.387690
  0.278000, 11.337790
  0.280000, 10.358120
  0.282000,  9.426030
  0.284000,  8.521640
  0.286000,  7.632520
  0.288000,  6.766330
  0.290000,  5.924540
  0.292000,  5.125650
  0.294000,  4.362770
  0.296000,  3.647490
  0.298000,  2.988690
  0.300000,  2.393840
  0.302000,  1.864030
  0.304000,  1.393130
  0.306000,  0.952820
  0.308000,  0.510190
  0.310000,  0.031390
  0.312000, -0.482160
  0.314000, -1.002610
  0.316000, -1.498940
  0.318000, -1.920130
  0.320000, -2.253080
  0.322000, -2.499760
  0.324000, -2.698480
  0.326000, -2.903020
  0.328000, -3.160550
  0.330000, -3.502320
  0.332000, -3.909130
  0.334000, -4.353470
  0.336000, -4.778280
  0.338000, -5.137860
  0.340000, -5.426630
  0.342000, -5.649760
  0.344000, -5.837100
  0.346000, -6.021970
  0.348000, -6.234290
  0.350000, -6.488450
  0.352000, -6.786650
  0.354000, -7.098280
  0.356000, -7.419060
  0.358000, -7.737290
  0.360000, -8.042220
  0.362000, -8.329780
  0.364000, -8.605490
  0.366000, -8.851850
  0.368000, -9.065290
  0.370000, -9.242960
  0.372000, -9.394550
  0.374000, -9.533960
  0.376000, -9.667310
  0.378000, -9.822550
  0.380000, -9.982420
  0.382000,-10.135210
  0.384000,-10.275430
  0.386000,-10.388430
  0.388000,-10.468780
  0.390000,-10.508650
  0.392000,-10.515160
  0.394000,-10.482560
  0.396000,-10.433640
  0.398000,-10.366350
  0.400000,-10.300330
  0.402000,-10.234130
  0.404000,-10.175320
  0.406000,-10.117990
  0.408000,-10.060250
  0.410000,-10.007090
  0.412000, -9.944630
  0.414000, -9.876410
  0.416000, -9.794600
  0.418000, -9.708100
  0.420000, -9.616810
  0.422000, -9.531610
  0.424000, -9.452610
  0.426000, -9.372810
  0.428000, -9.295550
  0.430000, -9.218790
  0.432000, -9.129730
  0.434000, -9.022940
  0.436000, -8.905730
  0.438000, -8.766140
  0.440000, -8.607710
  0.442000, -8.437290
  0.444000, -8.263970
  0.446000, -8.101680
  0.448000, -7.973720
  0.450000, -7.885270
  0.452000, -7.837320
  0.454000, -7.821910
  0.456000, -7.808580
  0.458000, -7.748140
  0.460000, -7.622490
  0.462000, -7.430870
  0.464000, -7.192760
  0.466000, -6.949680
  0.468000, -6.749660
  0.470000, -6.611120
  0.472000, -6.520730
  0.474000, -6.454600
  0.476000, -6.397230
  0.478000, -6.339320
  0.480000, -6.250240
  0.482000, -6.133980
  0.484000, -5.986980
  0.486000, -5.817180
  0.488000, -5.649770
  0.490000, -5.494860
  0.492000, -5.368030
  0.494000, -5.260270
  0.496000, -5.185870
  0.498000, -5.146290
  0.500000, -5.131220
  0.502000, -5.128100
  0.504000, -5.118530
  0.506000, -5.090600
  0.508000, -5.057290
  0.510000, -4.997320
  0.512000, -4.929910
  0.514000, -4.858660
  0.516000, -4.790900
  0.518000, -4.728950
  0.520000, -4.680010
  0.522000, -4.649980
  0.524000, -4.615340
  0.526000, -4.597290
  0.528000, -4.578210
  0.530000, -4.573990
  0.532000, -4.572400
  0.534000, -4.561210
  0.536000, -4.547730
  0.538000, -4.513860
  0.540000, -4.452540
  0.542000, -4.358030
  0.544000, -4.239890
  0.546000, -4.098050
  0.548000, -3.939540
  0.550000, -3.793860
  0.552000, -3.664300
  0.554000, -3.585010
  0.556000, -3.535630
  0.558000, -3.524130
  0.560000, -3.519250
  0.562000, -3.494320
  0.564000, -3.422040
  0.566000, -3.292650
  0.568000, -3.119490
  0.570000, -2.929350
  0.572000, -2.741080
  0.574000, -2.573340
  0.576000, -2.433410
  0.578000, -2.319560
  0.580000, -2.231440
  0.582000, -2.156300
  0.584000, -2.092470
  0.586000, -2.034840
  0.588000, -1.962550
  0.590000, -1.900120
  0.592000, -1.828870
  0.594000, -1.755650
  0.596000, -1.685810
  0.598000, -1.614510
  0.600000, -1.548390
  0.602000, -1.485850
  0.604000, -1.418810
  0.606000, -1.360580
  0.608000, -1.291430
  0.610000, -1.220700
  0.612000, -1.155500
  0.614000, -1.087010
  0.616000, -1.023880
  0.618000, -0.963370
  0.620000, -0.913440
  0.622000, -0.870560
  0.624000, -0.822680
  0.626000, -0.780240
  0.628000, -0.732060
  0.630000, -0.680270
  0.632000, -0.619120
  0.634000, -0.554180
  0.636000, -0.489310
  0.638000, -0.429670
  0.640000, -0.376990
  0.642000, -0.339740
  0.644000, -0.315760
  0.646000, -0.302200
  0.648000, -0.303740
  0.650000, -0.322770
  0.652000, -0.356030
  0.654000, -0.397860
  0.656000, -0.450400
  0.658000, -0.505960
  0.660000, -0.537210
  0.662000, -0.553470
  0.664000, -0.554370
  0.666000, -0.528270
  0.668000, -0.489560
  0.670000, -0.448220
  0.672000, -0.408350
  0.674000, -0.376940
  0.676000, -0.361120
  0.678000, -0.362020
  0.680000, -0.384390
  0.682000, -0.418820
  0.684000, -0.464820
  0.686000, -0.516880
  0.688000, -0.570150
  0.690000, -0.614750
  0.692000, -0.652960
  0.694000, -0.679080
  0.696000, -0.700530
  0.698000, -0.706810
  0.700000, -0.716460
  0.702000, -0.708260
  0.704000, -0.688230
  0.706000, -0.671240
  0.708000, -0.647690
  0.710000, -0.629430
  0.712000, -0.610460
  0.714000, -0.591820
  0.716000, -0.594280
  0.718000, -0.606690
  0.720000, -0.626030
  0.722000, -0.648110
  0.724000, -0.664180
  0.726000, -0.673160
  0.728000, -0.672230
  0.730000, -0.664420
  0.732000, -0.647300
  0.734000, -0.629840
  0.736000, -0.613770
  0.738000, -0.594020
  0.740000, -0.583350
  0.742000, -0.581790
  0.744000, -0.581180
  0.746000, -0.588000
  0.748000, -0.590010
  0.750000, -0.599920
  0.752000, -0.597300
  0.754000, -0.597000
  0.756000, -0.590180
  0.758000, -0.575880
  0.760000, -0.547210
  0.762000, -0.513310
  0.764000, -0.467470
  0.766000, -0.418990
  0.768000, -0.369430
  0.770000, -0.319660
  0.772000, -0.276060
  0.774000, -0.244900
  0.776000, -0.223450
  0.778000, -0.222530
  0.780000, -0.225440
  0.782000, -0.233050
  0.784000, -0.236250
  0.786000, -0.232630
  0.788000, -0.218090
  0.790000, -0.190210
  0.792000, -0.147790
  0.794000, -0.100600
  0.796000, -0.050420
  0.798000, -0.004270
  0.800000,  0.037200
  0.802000,  0.069630
  0.804000,  0.087330
  0.806000,  0.090600
  0.808000,  0.081560
  0.810000,  0.064500
  0.812000,  0.035250
  0.814000,  0.003320
  0.816000, -0.020850
  0.818000, -0.038220
  0.820000, -0.053150
  0.822000, -0.053130
  0.824000, -0.042710
  0.826000, -0.021190
  0.828000,  0.008450
  0.830000,  0.035360
  0.832000,  0.059860
  0.834000,  0.078820
  0.836000,  0.084780
  0.838000,  0.089620
  0.840000,  0.092630
  0.842000,  0.082980
  0.844000,  0.063150
  0.846000,  0.041850
  0.848000,  0.020200
  0.850000,  0.001540
  0.852000, -0.022760
  0.854000, -0.048610
  0.856000, -0.065980
  0.858000, -0.080880
  0.860000, -0.080510
  0.862000, -0.079820
  0.864000, -0.076110
  0.866000, -0.066920
  0.868000, -0.047950
  0.870000, -0.026130
  0.872000, -0.004820
  0.874000,  0.012840
  0.876000,  0.029280
  0.878000,  0.043540
  0.880000,  0.049990
  0.882000,  0.058330
  0.884000,  0.055120
  0.886000,  0.050800
  0.888000,  0.047470
  0.890000,  0.042000
  0.892000,  0.044670
  0.894000,  0.050420
  0.896000,  0.049510
  0.898000,  0.050510
  0.900000,  0.055800
  0.902000,  0.052080
  0.904000,  0.050790
  0.906000,  0.033660
  0.908000,  0.021290
  0.910000,  0.004860
  0.912000, -0.015130
  0.914000, -0.028350
  0.916000, -0.035120
  0.918000, -0.036790
  0.920000, -0.031470
  0.922000, -0.016430
  0.924000, -0.002060
  0.926000,  0.018350
  0.928000,  0.036250
  0.930000,  0.059510
  0.932000,  0.077940
  0.934000,  0.086990
  0.936000,  0.091970
  0.938000,  0.084630
  0.940000,  0.071920
  0.942000,  0.052540
  0.944000,  0.029010
  0.946000, -0.005010
  0.948000, -0.039750
  0.950000, -0.072950
  0.952000, -0.094330
  0.954000, -0.108340
  0.956000, -0.112730
  0.958000, -0.103540
  0.960000, -0.089410
  0.962000, -0.060320
  0.964000, -0.031670
  0.966000, -0.000120
  0.968000,  0.031590
  0.970000,  0.051740
  0.972000,  0.061150
  0.974000,  0.070490
  0.976000,  0.059320
  0.978000,  0.051070
  0.980000,  0.042320
  0.982000,  0.030170
  0.984000,  0.009920
  0.986000, -0.005880
  0.988000, -0.014240
  0.990000, -0.024580
  0.992000, -0.030830
  0.994000, -0.041420
  0.996000, -0.050920
  0.998000, -0.059140
  1.000000, -0.069030
