# z (nm)   (kJ/mol)
  0.094000,271.259860
  0.096000,268.132140
  0.098000,265.776780
  0.100000,263.035690
  0.102000,260.565160
  0.104000,258.152740
  0.106000,255.733190
  0.108000,253.322300
  0.110000,250.881960
  0.112000,248.399870
  0.114000,245.874230
  0.116000,243.291900
  0.118000,240.630140
  0.120000,237.884380
  0.122000,235.033070
  0.124000,232.062070
  0.126000,228.951970
  0.128000,225.709600
  0.130000,222.336240
  0.132000,218.846250
  0.134000,215.258980
  0.136000,211.597950
  0.138000,207.894410
  0.140000,204.168850
  0.142000,200.430610
  0.144000,196.687350
  0.146000,192.935240
  0.148000,189.156270
  0.150000,185.354290
  0.152000,181.523820
  0.154000,177.665860
  0.156000,173.796160
  0.158000,169.939630
  0.160000,166.120110
  0.162000,162.363600
  0.164000,158.685430
  0.166000,155.106430
  0.168000,151.632480
  0.170000,148.257820
  0.172000,144.978210
  0.174000,141.777690
  0.176000,138.640650
  0.178000,135.564960
  0.180000,132.540190
  0.182000,129.558220
  0.184000,126.618900
  0.186000,123.715420
  0.188000,120.853330
  0.190000,118.026400
  0.192000,115.238150
  0.194000,112.487250
  0.196000,109.770100
  0.198000,107.085300
  0.200000,104.430860
  0.202000,101.801000
  0.204000, 99.186090
  0.206000, 96.587550
  0.208000, 94.001870
  0.210000, 91.430380
  0.212000, 88.877070
  0.214000, 86.355190
  0.216000, 83.871180
  0.218000, 81.434530
  0.220000, 79.055400
  0.222000, 76.730660
  0.224000, 74.460440
  0.226000, 72.235250
  0.228000, 70.045590
  0.230000, 67.891130
  0.232000, 65.760860
  0.234000, 63.661510
  0.236000, 61.587040
  0.238000, 59.540150
  0.240000, 57.518440
  0.242000, 55.542100
  0.244000, 53.603720
  0.246000, 51.709750
  0.248000, 49.861730
  0.250000, 48.062640
  0.252000, 46.317710
  0.254000, 44.629250
  0.256000, 42.983060
  0.258000, 41.382950
  0.260000, 39.817570
  0.262000, 38.287530
  0.264000, 36.787590
  0.266000, 35.317370
  0.268000, 33.874510
  0.270000, 32.465450
  0.272000, 31.100290
  0.274000, 29.769140
  0.276000, 28.480100
  0.278000, 27.234640
  0.280000, 26.037850
  0.282000, 24.891570
  0.284000, 23.786700
  0.286000, 22.728300
  0.288000, 21.704800
  0.290000, 20.713830
  0.292000, 19.746810
  0.294000, 18.813360
  0.296000, 17.903190
  0.298000, 17.012730
  0.300000, 16.156940
  0.302000, 15.339880
  0.304000, 14.553750
  0.306000, 13.808640
  0.308000, 13.113590
  0.310000, 12.456590
  0.312000, 11.839590
  0.314000, 11.268240
  0.316000, 10.733460
  0.318000, 10.227380
  0.320000,  9.741590
  0.322000,  9.274190
  0.324000,  8.818350
  0.326000,  8.379960
  0.328000,  7.951930
  0.330000,  7.523860
  0.332000,  7.119160
  0.334000,  6.727950
  0.336000,  6.361220
  0.338000,  6.016240
  0.340000,  5.697690
  0.342000,  5.404240
  0.344000,  5.145370
  0.346000,  4.908620
  0.348000,  4.710150
  0.350000,  4.531260
  0.352000,  4.373740
  0.354000,  4.231130
  0.356000,  4.082480
  0.358000,  3.930340
  0.360000,  3.768920
  0.362000,  3.590800
  0.364000,  3.398750
  0.366000,  3.194310
  0.368000,  2.992980
  0.370000,  2.809670
  0.372000,  2.669570
  0.374000,  2.575180
  0.376000,  2.522770
  0.378000,  2.510940
  0.380000,  2.525010
  0.382000,  2.549410
  0.384000,  2.571100
  0.386000,  2.568350
  0.388000,  2.540010
  0.390000,  2.488940
  0.392000,  2.426340
  0.394000,  2.359170
  0.396000,  2.291560
  0.398000,  2.235000
  0.400000,  2.189720
  0.402000,  2.161820
  0.404000,  2.152170
  0.406000,  2.160650
  0.408000,  2.177290
  0.410000,  2.204300
  0.412000,  2.243790
  0.414000,  2.291030
  0.416000,  2.337040
  0.418000,  2.380310
  0.420000,  2.422880
  0.422000,  2.466420
  0.424000,  2.510210
  0.426000,  2.543770
  0.428000,  2.577330
  0.430000,  2.604270
  0.432000,  2.624160
  0.434000,  2.638810
  0.436000,  2.651860
  0.438000,  2.665940
  0.440000,  2.691150
  0.442000,  2.714590
  0.444000,  2.747500
  0.446000,  2.797010
  0.448000,  2.852370
  0.450000,  2.917060
  0.452000,  2.989100
  0.454000,  3.079850
  0.456000,  3.175610
  0.458000,  3.274570
  0.460000,  3.376910
  0.462000,  3.475360
  0.464000,  3.567560
  0.466000,  3.658370
  0.468000,  3.745120
  0.470000,  3.825670
  0.472000,  3.899540
  0.474000,  3.969370
  0.476000,  4.039860
  0.478000,  4.104130
  0.480000,  4.173930
  0.482000,  4.245910
  0.484000,  4.320370
  0.486000,  4.399890
  0.488000,  4.486070
  0.490000,  4.575530
  0.492000,  4.669990
  0.494000,  4.767860
  0.496000,  4.861820
  0.498000,  4.956510
  0.500000,  5.054670
  0.502000,  5.138480
  0.504000,  5.217870
  0.506000,  5.291220
  0.508000,  5.355610
  0.510000,  5.415160
  0.512000,  5.467270
  0.514000,  5.511030
  0.516000,  5.544580
  0.518000,  5.565110
  0.520000,  5.577890
  0.522000,  5.580290
  0.524000,  5.571970
  0.526000,  5.554970
  0.528000,  5.530040
  0.530000,  5.498560
  0.532000,  5.469750
  0.534000,  5.441320
  0.536000,  5.410300
  0.538000,  5.387700
  0.540000,  5.365230
  0.542000,  5.330490
  0.544000,  5.287150
  0.546000,  5.231490
  0.548000,  5.165680
  0.550000,  5.083760
  0.552000,  4.983050
  0.554000,  4.867320
  0.556000,  4.750760
  0.558000,  4.628570
  0.560000,  4.506560
  0.562000,  4.387710
  0.564000,  4.281330
  0.566000,  4.185710
  0.568000,  4.096570
  0.570000,  4.004120
  0.572000,  3.912360
  0.574000,  3.819760
  0.576000,  3.729510
  0.578000,  3.634280
  0.580000,  3.536400
  0.582000,  3.435570
  0.584000,  3.328970
  0.586000,  3.227260
  0.588000,  3.126650
  0.590000,  3.019170
  0.592000,  2.911340
  0.594000,  2.805610
  0.596000,  2.698990
  0.598000,  2.592240
  0.600000,  2.485510
  0.602000,  2.380350
  0.604000,  2.280900
  0.606000,  2.186270
  0.608000,  2.102650
  0.610000,  2.024950
  0.612000,  1.952230
  0.614000,  1.882880
  0.616000,  1.815440
  0.618000,  1.750470
  0.620000,  1.689630
  0.622000,  1.635880
  0.624000,  1.573450
  0.626000,  1.504120
  0.628000,  1.433720
  0.630000,  1.355190
  0.632000,  1.270410
  0.634000,  1.189000
  0.636000,  1.108520
  0.638000,  1.035430
  0.640000,  0.972710
  0.642000,  0.912850
  0.644000,  0.878370
  0.646000,  0.863500
  0.648000,  0.872830
  0.650000,  0.898490
  0.652000,  0.948620
  0.654000,  1.008130
  0.656000,  1.070890
  0.658000,  1.106990
  0.660000,  1.087920
  0.662000,  0.982360
  0.664000,  0.784540
  0.666000,  0.515060
  0.668000,  0.216510
  0.670000, -0.031660
  0.672000, -0.169620
  0.674000, -0.147620
  0.676000,  0.014850
  0.678000,  0.270940
  0.680000,  0.547880
  0.682000,  0.770020
  0.684000,  0.902520
  0.686000,  0.925810
  0.688000,  0.878150
  0.690000,  0.782650
  0.692000,  0.661600
  0.694000,  0.544970
  0.696000,  0.438990
  0.698000,  0.355100
  0.700000,  0.284600
  0.702000,  0.238460
  0.704000,  0.212960
  0.706000,  0.197720
  0.708000,  0.191060
  0.710000,  0.201200
  0.712000,  0.213730
  0.714000,  0.227090
  0.716000,  0.249030
  0.718000,  0.268180
  0.720000,  0.293460
  0.722000,  0.319320
  0.724000,  0.340030
  0.726000,  0.358150
  0.728000,  0.374560
  0.730000,  0.384210
  0.732000,  0.391700
  0.734000,  0.395720
  0.736000,  0.399610
  0.738000,  0.399880
  0.740000,  0.398920
  0.742000,  0.401110
  0.744000,  0.398270
  0.746000,  0.399130
  0.748000,  0.399720
  0.750000,  0.409550
  0.752000,  0.420740
  0.754000,  0.438360
  0.756000,  0.462440
  0.758000,  0.490730
  0.760000,  0.529510
  0.762000,  0.568560
  0.764000,  0.609010
  0.766000,  0.654080
  0.768000,  0.700400
  0.770000,  0.744560
  0.772000,  0.784240
  0.774000,  0.817120
  0.776000,  0.849380
  0.778000,  0.868000
  0.780000,  0.895100
  0.782000,  0.906600
  0.784000,  0.918140
  0.786000,  0.925470
  0.788000,  0.928270
  0.790000,  0.933600
  0.792000,  0.938100
  0.794000,  0.948100
  0.796000,  0.959060
  0.798000,  0.966900
  0.800000,  0.979880
  0.802000,  0.997770
  0.804000,  1.009030
  0.806000,  1.018780
  0.808000,  1.029410
  0.810000,  1.045040
  0.812000,  1.063320
  0.814000,  1.075640
  0.816000,  1.091250
  0.818000,  1.105630
  0.820000,  1.125810
  0.822000,  1.141560
  0.824000,  1.162790
  0.826000,  1.174750
  0.828000,  1.181810
  0.830000,  1.189950
  0.832000,  1.189990
  0.834000,  1.184040
  0.836000,  1.173470
  0.838000,  1.158310
  0.840000,  1.143400
  0.842000,  1.124670
  0.844000,  1.110110
  0.846000,  1.098940
  0.848000,  1.088850
  0.850000,  1.083650
  0.852000,  1.076390
  0.854000,  1.077260
  0.856000,  1.078650
  0.858000,  1.073380
  0.860000,  1.062520
  0.862000,  1.058150
  0.864000,  1.042020
  0.866000,  1.021960
  0.868000,  0.999270
  0.870000,  0.978810
  0.872000,  0.950280
  0.874000,  0.922050
  0.876000,  0.894230
  0.878000,  0.862710
  0.880000,  0.828960
  0.882000,  0.798530
  0.884000,  0.762350
  0.886000,  0.725190
  0.888000,  0.687630
  0.890000,  0.648880
  0.892000,  0.609010
  0.894000,  0.571930
  0.896000,  0.541330
  0.898000,  0.515160
  0.900000,  0.488630
  0.902000,  0.467250
  0.904000,  0.446170
  0.906000,  0.436530
  0.908000,  0.424400
  0.910000,  0.418930
  0.912000,  0.405300
  0.914000,  0.395660
  0.916000,  0.386440
  0.918000,  0.371140
  0.920000,  0.355230
  0.922000,  0.337800
  0.924000,  0.307270
  0.926000,  0.271690
  0.928000,  0.234360
  0.930000,  0.194360
  0.932000,  0.147600
  0.934000,  0.110170
  0.936000,  0.067900
  0.938000,  0.030510
  0.940000, -0.004280
  0.942000, -0.032970
  0.944000, -0.056050
  0.946000, -0.081690
  0.948000, -0.095330
  0.950000, -0.108530
  0.952000, -0.120700
  0.954000, -0.128730
  0.956000, -0.136150
  0.958000, -0.136030
  0.960000, -0.140050
  0.962000, -0.148110
  0.964000, -0.159730
  0.966000, -0.162670
  0.968000, -0.166580
  0.970000, -0.176470
  0.972000, -0.177970
  0.974000, -0.189610
  0.976000, -0.202300
  0.978000, -0.220890
  0.980000, -0.236210
  0.982000, -0.249780
  0.984000, -0.259760
  0.986000, -0.272710
  0.988000, -0.282340
  0.990000, -0.297620
  0.992000, -0.307400
  0.994000, -0.312010
  0.996000, -0.309420
  0.998000, -0.316750
  1.000000, -0.319880
