# PMF between COM of SGLU and Gold slab.
# 
# SGLU
# z (nm)   (kJ/mol)
  0.166400,242.156700
  0.169600,232.420100
  0.172800,221.517200
  0.176000,209.740000
  0.179200,197.479300
  0.182400,185.230300
  0.185600,173.595300
  0.188800,162.953300
  0.192000,153.129300
  0.195200,143.815300
  0.198400,134.944300
  0.201600,126.534300
  0.204800,118.626300
  0.208000,111.234300
  0.211200,104.165300
  0.214400, 97.047300
  0.217600, 89.667300
  0.220800, 82.168300
  0.224000, 74.854300
  0.227200, 67.940300
  0.230400, 61.159300
  0.233600, 54.175300
  0.236800, 47.092300
  0.240000, 39.944300
  0.243200, 32.575300
  0.246400, 25.138300
  0.249600, 17.999300
  0.252800, 11.277300
  0.256000,  4.915300
  0.259200, -0.986700
  0.262400, -6.328700
  0.265600,-11.203700
  0.268800,-15.663700
  0.272000,-19.578700
  0.275200,-22.867700
  0.278400,-25.683700
  0.281600,-28.297700
  0.284800,-30.794700
  0.288000,-33.051700
  0.291200,-34.975700
  0.294400,-36.686700
  0.297600,-38.337700
  0.300800,-39.936700
  0.304000,-41.407700
  0.307200,-42.715700
  0.310400,-43.806700
  0.313600,-44.520700
  0.316800,-44.773700
  0.320000,-44.659700
  0.323200,-44.325700
  0.326400,-43.836700
  0.329600,-43.215700
  0.332800,-42.566700
  0.336000,-42.016700
  0.339200,-41.613700
  0.342400,-41.228700
  0.345600,-40.745700
  0.348800,-40.155700
  0.352000,-39.542700
  0.355200,-38.955700
  0.358400,-38.384700
  0.361600,-37.851700
  0.364800,-37.353700
  0.368000,-36.814700
  0.371200,-36.245700
  0.374400,-35.719700
  0.377600,-35.232700
  0.380800,-34.725700
  0.384000,-34.221700
  0.387200,-33.718700
  0.390400,-33.150700
  0.393600,-32.509700
  0.396800,-31.867700
  0.400000,-31.254700
  0.403200,-30.641700
  0.406400,-29.965700
  0.409600,-29.201700
  0.412800,-28.429700
  0.416000,-27.745700
  0.419200,-27.144700
  0.422400,-26.572700
  0.425600,-26.026700
  0.428800,-25.523700
  0.432000,-25.107700
  0.435200,-24.746700
  0.438400,-24.387700
  0.441600,-23.985700
  0.444800,-23.572700
  0.448000,-23.177700
  0.451200,-22.783700
  0.454400,-22.379700
  0.457600,-22.009700
  0.460800,-21.697700
  0.464000,-21.434700
  0.467200,-21.181700
  0.470400,-20.945700
  0.473600,-20.771700
  0.476800,-20.669700
  0.480000,-20.620700
  0.483200,-20.628700
  0.486400,-20.693700
  0.489600,-20.781700
  0.492800,-20.819700
  0.496000,-20.778700
  0.499200,-20.675700
  0.502400,-20.510700
  0.505600,-20.271700
  0.508800,-19.910700
  0.512000,-19.438700
  0.515200,-18.905700
  0.518400,-18.334700
  0.521600,-17.721700
  0.524800,-17.041700
  0.528000,-16.311700
  0.531200,-15.554700
  0.534400,-14.793700
  0.537600,-14.053700
  0.540800,-13.345700
  0.544000,-12.663700
  0.547200,-12.050700
  0.550400,-11.532700
  0.553600,-11.098700
  0.556800,-10.746700
  0.560000,-10.451700
  0.563200,-10.215700
  0.566400,-10.033700
  0.569600, -9.914700
  0.572800, -9.840700
  0.576000, -9.793700
  0.579200, -9.735700
  0.582400, -9.636700
  0.585600, -9.516700
  0.588800, -9.411700
  0.592000, -9.347700
  0.595200, -9.304700
  0.598400, -9.244700
  0.601600, -9.145700
  0.604800, -9.018700
  0.608000, -8.909700
  0.611200, -8.840700
  0.614400, -8.794700
  0.617600, -8.733700
  0.620800, -8.629700
  0.624000, -8.495700
  0.627200, -8.351700
  0.630400, -8.222700
  0.633600, -8.104700
  0.636800, -7.987700
  0.640000, -7.865700
  0.643200, -7.728700
  0.646400, -7.584700
  0.649600, -7.439700
  0.652800, -7.301700
  0.656000, -7.185700
  0.659200, -7.085700
  0.662400, -6.983700
  0.665600, -6.866700
  0.668800, -6.737700
  0.672000, -6.621700
  0.675200, -6.552700
  0.678400, -6.509700
  0.681600, -6.445700
  0.684800, -6.358700
  0.688000, -6.268700
  0.691200, -6.190700
  0.694400, -6.093700
  0.697600, -5.984700
  0.700800, -5.900700
  0.704000, -5.893700
  0.707200, -5.962700
  0.710400, -6.014700
  0.713600, -5.952700
  0.716800, -5.792700
  0.720000, -5.648700
  0.723200, -5.601700
  0.726400, -5.645700
  0.729600, -5.683700
  0.732800, -5.657700
  0.736000, -5.567700
  0.739200, -5.453700
  0.742400, -5.347700
  0.745600, -5.258700
  0.748800, -5.180700
  0.752000, -5.105700
  0.755200, -5.032700
  0.758400, -4.944700
  0.761600, -4.834700
  0.764800, -4.687700
  0.768000, -4.509700
  0.771200, -4.310700
  0.774400, -4.115700
  0.777600, -3.931700
  0.780800, -3.772700
  0.784000, -3.624700
  0.787200, -3.473700
  0.790400, -3.306700
  0.793600, -3.119700
  0.796800, -2.921700
  0.800000, -2.733700
  0.803200, -2.562700
  0.806400, -2.423700
  0.809600, -2.285700
  0.812800, -2.120700
  0.816000, -1.925700
  0.819200, -1.715700
  0.822400, -1.514700
  0.825600, -1.364700
  0.828800, -1.273700
  0.832000, -1.230700
  0.835200, -1.212700
  0.838400, -1.194700
  0.841600, -1.178700
  0.844800, -1.144700
  0.848000, -1.085700
  0.851200, -1.007700
  0.854400, -0.934700
  0.857600, -0.911700
  0.860800, -0.960700
  0.864000, -1.042700
  0.867200, -1.098700
  0.870400, -1.096700
  0.873600, -1.048700
  0.876800, -1.003700
  0.880000, -1.015700
  0.883200, -1.086700
  0.886400, -1.199700
  0.889600, -1.293700
  0.892800, -1.348700
  0.896000, -1.356700
  0.899200, -1.335700
  0.902400, -1.297700
  0.905600, -1.259700
  0.908800, -1.242700
  0.912000, -1.268700
  0.915200, -1.336700
  0.918400, -1.441700
  0.921600, -1.540700
  0.924800, -1.611700
  0.928000, -1.649700
  0.931200, -1.656700
  0.934400, -1.652700
  0.937600, -1.654700
  0.940800, -1.657700
  0.944000, -1.653700
  0.947200, -1.655700
  0.950400, -1.675700
  0.953600, -1.706700
  0.956800, -1.717700
  0.960000, -1.689700
  0.963200, -1.624700
  0.966400, -1.553700
  0.969600, -1.495700
  0.972800, -1.439700
  0.976000, -1.376700
  0.979200, -1.295700
  0.982400, -1.225700
  0.985600, -1.197700
  0.988800, -1.210700
  0.992000, -1.234700
  0.995200, -1.245700
  0.998400, -1.197700
  1.001600, -1.100700
  1.004800, -0.992700
  1.008000, -0.903700
  1.011200, -0.859700
  1.014400, -0.845700
  1.017600, -0.837700
  1.020800, -0.797700
  1.024000, -0.733700
  1.027200, -0.657700
  1.030400, -0.604700
  1.033600, -0.581700
  1.036800, -0.581700
  1.040000, -0.560700
  1.043200, -0.484700
  1.046400, -0.363700
  1.049600, -0.243700
  1.052800, -0.169700
  1.056000, -0.164700
  1.059200, -0.219700
  1.062400, -0.286700
  1.065600, -0.318700
  1.068800, -0.297700
  1.072000, -0.208700
  1.075200, -0.082700
  1.078400,  0.038300
  1.081600,  0.117300
  1.084800,  0.135300
  1.088000,  0.112300
  1.091200,  0.066300
  1.094400,  0.033300
  1.097600,  0.026300
  1.100800,  0.058300
  1.104000,  0.107300
  1.107200,  0.162300
  1.110400,  0.212300
  1.113600,  0.262300
  1.116800,  0.306300
  1.120000,  0.341300
  1.123200,  0.362300
  1.126400,  0.362300
  1.129600,  0.344300
  1.132800,  0.311300
  1.136000,  0.279300
  1.139200,  0.267300
  1.142400,  0.296300
  1.145600,  0.368300
  1.148800,  0.452300
  1.152000,  0.524300
  1.155200,  0.567300
  1.158400,  0.561300
  1.161600,  0.501300
  1.164800,  0.411300
  1.168000,  0.326300
  1.171200,  0.285300
  1.174400,  0.304300
  1.177600,  0.378300
  1.180800,  0.465300
  1.184000,  0.512300
  1.187200,  0.514300
  1.190400,  0.484300
  1.193600,  0.438300
  1.196800,  0.385300
  1.200000,  0.349300
  1.203200,  0.336300
  1.206400,  0.347300
  1.209600,  0.376300
  1.212800,  0.399300
  1.216000,  0.407300
  1.219200,  0.412300
  1.222400,  0.409300
  1.225600,  0.396300
  1.228800,  0.367300
  1.232000,  0.338300
  1.235200,  0.300300
  1.238400,  0.266300
  1.241600,  0.235300
  1.244800,  0.213300
  1.248000,  0.199300
  1.251200,  0.197300
  1.254400,  0.204300
  1.257600,  0.199300
  1.260800,  0.168300
  1.264000,  0.116300
  1.267200,  0.091300
  1.270400,  0.121300
  1.273600,  0.196300
  1.276800,  0.270300
  1.280000,  0.318300
  1.283200,  0.316300
  1.286400,  0.269300
  1.289600,  0.204300
  1.292800,  0.161300
  1.296000,  0.155300
  1.299200,  0.179300
  1.302400,  0.213300
  1.305600,  0.255300
  1.308800,  0.289300
  1.312000,  0.298300
  1.315200,  0.274300
  1.318400,  0.223300
  1.321600,  0.152300
  1.324800,  0.078300
  1.328000,  0.029300
  1.331200,  0.025300
  1.334400,  0.057300
  1.337600,  0.107300
  1.340800,  0.148300
  1.344000,  0.137300
  1.347200,  0.075300
  1.350400, -0.012700
  1.353600, -0.053700
  1.356800, -0.023700
  1.360000,  0.042300
  1.363200,  0.080300
  1.366400,  0.064300
  1.369600,  0.007300
  1.372800, -0.048700
  1.376000, -0.053700
  1.379200, -0.008700
  1.382400,  0.065300
  1.385600,  0.136300
  1.388800,  0.190300
  1.392000,  0.225300
  1.395200,  0.223300
  1.398400,  0.191300
  1.401600,  0.146300
  1.404800,  0.126300
  1.408000,  0.121300
  1.411200,  0.122300
  1.414400,  0.106300
  1.417600,  0.079300
  1.420800,  0.066300
  1.424000,  0.078300
  1.427200,  0.084300
  1.430400,  0.064300
  1.433600,  0.032300
  1.436800,  0.020300
  1.440000,  0.051300
  1.443200,  0.084300
  1.446400,  0.086300
  1.449600,  0.042300
  1.452800, -0.011700
  1.456000, -0.044700
  1.459200, -0.028700
  1.462400,  0.017300
  1.465600,  0.057300
  1.468800,  0.068300
  1.472000,  0.036300
  1.475200, -0.021700
  1.478400, -0.052700
  1.481600, -0.036700
  1.484800, -0.009700
  1.488000,  0.004300
  1.491200,  0.011300
  1.494400,  0.033300
  1.497600,  0.068300
  1.500800,  0.089300
  1.504000,  0.066300
  1.507200, -0.003700
  1.510400, -0.074700
  1.513600, -0.109700
  1.516800, -0.102700
  1.520000, -0.101700
  1.523200, -0.107700
  1.526400, -0.096700
  1.529600, -0.071700
  1.532800, -0.053700
  1.536000, -0.065700
  1.539200, -0.087700
  1.542400, -0.083700
  1.545600, -0.045700
  1.548800,  0.007300
  1.552000,  0.057300
  1.555200,  0.074300
  1.558400,  0.049300
  1.561600, -0.023700
  1.564800, -0.088700
  1.568000, -0.082700
  1.571200, -0.004700
  1.574400,  0.106300
  1.577600,  0.184300
  1.580800,  0.187300
  1.584000,  0.128300
  1.587200,  0.038300
  1.590400, -0.035700
  1.593600, -0.049700
  1.596800, -0.018700
  1.600000,  0.017300
