# PMF between COM of SMET and Gold slab.
# 
# SMET
# z (nm)   (kJ/mol)
  0.147200,241.279320
  0.150400,229.805520
  0.153600,217.686220
  0.156800,205.342520
  0.160000,192.998520
  0.163200,180.927520
  0.166400,170.141520
  0.169600,161.313520
  0.172800,154.082520
  0.176000,147.344520
  0.179200,140.269520
  0.182400,133.210520
  0.185600,126.803520
  0.188800,121.166520
  0.192000,116.017520
  0.195200,111.048520
  0.198400,106.152520
  0.201600,101.501520
  0.204800, 97.312520
  0.208000, 93.525520
  0.211200, 89.916520
  0.214400, 86.288520
  0.217600, 82.350520
  0.220800, 77.907520
  0.224000, 73.112520
  0.227200, 67.877520
  0.230400, 61.742520
  0.233600, 54.637520
  0.236800, 46.972520
  0.240000, 39.308520
  0.243200, 32.203520
  0.246400, 25.995520
  0.249600, 20.476520
  0.252800, 15.145520
  0.256000,  9.888520
  0.259200,  5.011520
  0.262400,  0.738520
  0.265600, -2.991480
  0.268800, -6.360480
  0.272000, -9.423480
  0.275200,-12.142480
  0.278400,-14.538480
  0.281600,-16.698480
  0.284800,-18.691480
  0.288000,-20.483480
  0.291200,-22.028480
  0.294400,-23.353480
  0.297600,-24.541480
  0.300800,-25.629480
  0.304000,-26.606480
  0.307200,-27.514480
  0.310400,-28.385480
  0.313600,-29.168480
  0.316800,-29.732480
  0.320000,-30.023480
  0.323200,-30.149480
  0.326400,-30.294480
  0.329600,-30.529480
  0.332800,-30.740480
  0.336000,-30.807480
  0.339200,-30.736480
  0.342400,-30.624480
  0.345600,-30.509480
  0.348800,-30.345480
  0.352000,-30.047480
  0.355200,-29.578480
  0.358400,-28.998480
  0.361600,-28.388480
  0.364800,-27.724480
  0.368000,-26.948480
  0.371200,-26.083480
  0.374400,-25.210480
  0.377600,-24.378480
  0.380800,-23.573480
  0.384000,-22.755480
  0.387200,-21.857480
  0.390400,-20.850480
  0.393600,-19.777480
  0.396800,-18.705480
  0.400000,-17.639480
  0.403200,-16.526480
  0.406400,-15.406480
  0.409600,-14.376480
  0.412800,-13.515480
  0.416000,-12.827480
  0.419200,-12.281480
  0.422400,-11.843480
  0.425600,-11.504480
  0.428800,-11.225480
  0.432000,-10.910480
  0.435200,-10.531480
  0.438400,-10.145480
  0.441600, -9.812480
  0.444800, -9.527480
  0.448000, -9.255480
  0.451200, -9.002480
  0.454400, -8.789480
  0.457600, -8.624480
  0.460800, -8.506480
  0.464000, -8.403480
  0.467200, -8.289480
  0.470400, -8.143480
  0.473600, -7.939480
  0.476800, -7.699480
  0.480000, -7.492480
  0.483200, -7.401480
  0.486400, -7.394480
  0.489600, -7.392480
  0.492800, -7.342480
  0.496000, -7.250480
  0.499200, -7.110480
  0.502400, -6.949480
  0.505600, -6.763480
  0.508800, -6.511480
  0.512000, -6.112480
  0.515200, -5.552480
  0.518400, -4.886480
  0.521600, -4.181480
  0.524800, -3.479480
  0.528000, -2.764480
  0.531200, -2.017480
  0.534400, -1.268480
  0.537600, -0.552480
  0.540800,  0.090520
  0.544000,  0.654520
  0.547200,  1.116520
  0.550400,  1.435520
  0.553600,  1.554520
  0.556800,  1.483520
  0.560000,  1.274520
  0.563200,  0.966520
  0.566400,  0.545520
  0.569600, -0.004480
  0.572800, -0.648480
  0.576000, -1.326480
  0.579200, -1.973480
  0.582400, -2.575480
  0.585600, -3.122480
  0.588800, -3.619480
  0.592000, -4.090480
  0.595200, -4.510480
  0.598400, -4.884480
  0.601600, -5.207480
  0.604800, -5.488480
  0.608000, -5.736480
  0.611200, -5.949480
  0.614400, -6.128480
  0.617600, -6.282480
  0.620800, -6.406480
  0.624000, -6.493480
  0.627200, -6.548480
  0.630400, -6.568480
  0.633600, -6.558480
  0.636800, -6.523480
  0.640000, -6.487480
  0.643200, -6.451480
  0.646400, -6.431480
  0.649600, -6.422480
  0.652800, -6.398480
  0.656000, -6.341480
  0.659200, -6.219480
  0.662400, -6.058480
  0.665600, -5.894480
  0.668800, -5.745480
  0.672000, -5.615480
  0.675200, -5.504480
  0.678400, -5.393480
  0.681600, -5.291480
  0.684800, -5.187480
  0.688000, -5.075480
  0.691200, -4.945480
  0.694400, -4.794480
  0.697600, -4.623480
  0.700800, -4.453480
  0.704000, -4.284480
  0.707200, -4.127480
  0.710400, -3.984480
  0.713600, -3.880480
  0.716800, -3.812480
  0.720000, -3.781480
  0.723200, -3.764480
  0.726400, -3.728480
  0.729600, -3.641480
  0.732800, -3.514480
  0.736000, -3.374480
  0.739200, -3.269480
  0.742400, -3.222480
  0.745600, -3.221480
  0.748800, -3.231480
  0.752000, -3.209480
  0.755200, -3.155480
  0.758400, -3.070480
  0.761600, -2.963480
  0.764800, -2.861480
  0.768000, -2.775480
  0.771200, -2.704480
  0.774400, -2.633480
  0.777600, -2.566480
  0.780800, -2.492480
  0.784000, -2.402480
  0.787200, -2.297480
  0.790400, -2.174480
  0.793600, -2.046480
  0.796800, -1.914480
  0.800000, -1.784480
  0.803200, -1.668480
  0.806400, -1.568480
  0.809600, -1.497480
  0.812800, -1.435480
  0.816000, -1.385480
  0.819200, -1.327480
  0.822400, -1.263480
  0.825600, -1.170480
  0.828800, -1.067480
  0.832000, -0.951480
  0.835200, -0.848480
  0.838400, -0.775480
  0.841600, -0.746480
  0.844800, -0.762480
  0.848000, -0.791480
  0.851200, -0.810480
  0.854400, -0.801480
  0.857600, -0.753480
  0.860800, -0.676480
  0.864000, -0.575480
  0.867200, -0.483480
  0.870400, -0.431480
  0.873600, -0.435480
  0.876800, -0.486480
  0.880000, -0.554480
  0.883200, -0.613480
  0.886400, -0.633480
  0.889600, -0.603480
  0.892800, -0.533480
  0.896000, -0.449480
  0.899200, -0.388480
  0.902400, -0.367480
  0.905600, -0.391480
  0.908800, -0.456480
  0.912000, -0.515480
  0.915200, -0.542480
  0.918400, -0.528480
  0.921600, -0.465480
  0.924800, -0.382480
  0.928000, -0.301480
  0.931200, -0.254480
  0.934400, -0.253480
  0.937600, -0.309480
  0.940800, -0.395480
  0.944000, -0.458480
  0.947200, -0.468480
  0.950400, -0.430480
  0.953600, -0.349480
  0.956800, -0.263480
  0.960000, -0.207480
  0.963200, -0.199480
  0.966400, -0.234480
  0.969600, -0.310480
  0.972800, -0.388480
  0.976000, -0.454480
  0.979200, -0.477480
  0.982400, -0.444480
  0.985600, -0.375480
  0.988800, -0.279480
  0.992000, -0.200480
  0.995200, -0.148480
  0.998400, -0.146480
  1.001600, -0.180480
  1.004800, -0.240480
  1.008000, -0.300480
  1.011200, -0.336480
  1.014400, -0.335480
  1.017600, -0.291480
  1.020800, -0.216480
  1.024000, -0.138480
  1.027200, -0.080480
  1.030400, -0.046480
  1.033600, -0.054480
  1.036800, -0.094480
  1.040000, -0.136480
  1.043200, -0.167480
  1.046400, -0.151480
  1.049600, -0.090480
  1.052800, -0.005480
  1.056000,  0.049520
  1.059200,  0.042520
  1.062400, -0.000480
  1.065600, -0.049480
  1.068800, -0.061480
  1.072000, -0.038480
  1.075200,  0.009520
  1.078400,  0.062520
  1.081600,  0.105520
  1.084800,  0.124520
  1.088000,  0.127520
  1.091200,  0.115520
  1.094400,  0.093520
  1.097600,  0.072520
  1.100800,  0.054520
  1.104000,  0.066520
  1.107200,  0.109520
  1.110400,  0.182520
  1.113600,  0.277520
  1.116800,  0.377520
  1.120000,  0.458520
  1.123200,  0.485520
  1.126400,  0.464520
  1.129600,  0.405520
  1.132800,  0.341520
  1.136000,  0.292520
  1.139200,  0.288520
  1.142400,  0.317520
  1.145600,  0.360520
  1.148800,  0.400520
  1.152000,  0.422520
  1.155200,  0.426520
  1.158400,  0.425520
  1.161600,  0.406520
  1.164800,  0.384520
  1.168000,  0.345520
  1.171200,  0.302520
  1.174400,  0.281520
  1.177600,  0.311520
  1.180800,  0.377520
  1.184000,  0.459520
  1.187200,  0.522520
  1.190400,  0.547520
  1.193600,  0.539520
  1.196800,  0.493520
  1.200000,  0.422520
  1.203200,  0.361520
  1.206400,  0.329520
  1.209600,  0.347520
  1.212800,  0.413520
  1.216000,  0.504520
  1.219200,  0.573520
  1.222400,  0.584520
  1.225600,  0.539520
  1.228800,  0.465520
  1.232000,  0.395520
  1.235200,  0.354520
  1.238400,  0.352520
  1.241600,  0.378520
  1.244800,  0.423520
  1.248000,  0.466520
  1.251200,  0.502520
  1.254400,  0.530520
  1.257600,  0.560520
  1.260800,  0.577520
  1.264000,  0.564520
  1.267200,  0.515520
  1.270400,  0.427520
  1.273600,  0.341520
  1.276800,  0.280520
  1.280000,  0.253520
  1.283200,  0.253520
  1.286400,  0.274520
  1.289600,  0.286520
  1.292800,  0.299520
  1.296000,  0.294520
  1.299200,  0.280520
  1.302400,  0.240520
  1.305600,  0.184520
  1.308800,  0.128520
  1.312000,  0.094520
  1.315200,  0.092520
  1.318400,  0.119520
  1.321600,  0.157520
  1.324800,  0.194520
  1.328000,  0.223520
  1.331200,  0.248520
  1.334400,  0.269520
  1.337600,  0.264520
  1.340800,  0.227520
  1.344000,  0.177520
  1.347200,  0.143520
  1.350400,  0.134520
  1.353600,  0.142520
  1.356800,  0.141520
  1.360000,  0.123520
  1.363200,  0.090520
  1.366400,  0.044520
  1.369600,  0.010520
  1.372800,  0.019520
  1.376000,  0.069520
  1.379200,  0.134520
  1.382400,  0.164520
  1.385600,  0.165520
  1.388800,  0.165520
  1.392000,  0.177520
  1.395200,  0.188520
  1.398400,  0.194520
  1.401600,  0.181520
  1.404800,  0.151520
  1.408000,  0.119520
  1.411200,  0.097520
  1.414400,  0.097520
  1.417600,  0.126520
  1.420800,  0.177520
  1.424000,  0.228520
  1.427200,  0.259520
  1.430400,  0.262520
  1.433600,  0.234520
  1.436800,  0.189520
  1.440000,  0.164520
  1.443200,  0.182520
  1.446400,  0.231520
  1.449600,  0.277520
  1.452800,  0.297520
  1.456000,  0.282520
  1.459200,  0.242520
  1.462400,  0.184520
  1.465600,  0.134520
  1.468800,  0.103520
  1.472000,  0.101520
  1.475200,  0.127520
  1.478400,  0.174520
  1.481600,  0.225520
  1.484800,  0.249520
  1.488000,  0.223520
  1.491200,  0.158520
  1.494400,  0.078520
  1.497600,  0.024520
  1.500800, -0.000480
  1.504000,  0.012520
  1.507200,  0.040520
  1.510400,  0.061520
  1.513600,  0.059520
  1.516800,  0.034520
  1.520000,  0.001520
  1.523200, -0.014480
  1.526400,  0.002520
  1.529600,  0.040520
  1.532800,  0.054520
  1.536000,  0.017520
  1.539200, -0.066480
  1.542400, -0.145480
  1.545600, -0.169480
  1.548800, -0.122480
  1.552000, -0.045480
  1.555200, -0.000480
  1.558400, -0.022480
  1.561600, -0.091480
  1.564800, -0.164480
  1.568000, -0.222480
  1.571200, -0.257480
  1.574400, -0.262480
  1.577600, -0.248480
  1.580800, -0.214480
  1.584000, -0.181480
  1.587200, -0.173480
  1.590400, -0.195480
  1.593600, -0.255480
  1.596800, -0.344480
  1.600000, -0.426480
