# z (nm)   (kJ/mol)
  0.475000, 26.162000
  0.477000, 24.912200
  0.479000, 23.656900
  0.481000, 22.418100
  0.483000, 21.176100
  0.485000, 19.899400
  0.487000, 18.623200
  0.489000, 17.360000
  0.491000, 16.097200
  0.493000, 14.834400
  0.495000, 13.580100
  0.497000, 12.343400
  0.499000, 11.114200
  0.501000,  9.893200
  0.503000,  8.691600
  0.505000,  7.509600
  0.507000,  6.357500
  0.509000,  5.233200
  0.511000,  4.130400
  0.513000,  3.059800
  0.515000,  2.027200
  0.517000,  1.024900
  0.519000,  0.052600
  0.521000, -0.883300
  0.523000, -1.782500
  0.525000, -2.642700
  0.527000, -3.463900
  0.529000, -4.246100
  0.531000, -4.992900
  0.533000, -5.707700
  0.535000, -6.389700
  0.537000, -7.033100
  0.539000, -7.637800
  0.541000, -8.208500
  0.543000, -8.744600
  0.545000, -9.244900
  0.547000, -9.710400
  0.549000,-10.144000
  0.551000,-10.544000
  0.553000,-10.908000
  0.555000,-11.237200
  0.557000,-11.531500
  0.559000,-11.789000
  0.561000,-12.011200
  0.563000,-12.197800
  0.565000,-12.347800
  0.567000,-12.461500
  0.569000,-12.541400
  0.571000,-12.589500
  0.573000,-12.606900
  0.575000,-12.590000
  0.577000,-12.539500
  0.579000,-12.457600
  0.581000,-12.344700
  0.583000,-12.203000
  0.585000,-12.034900
  0.587000,-11.840600
  0.589000,-11.620000
  0.591000,-11.377000
  0.593000,-11.112500
  0.595000,-10.826600
  0.597000,-10.520800
  0.599000,-10.196300
  0.601000, -9.856600
  0.603000, -9.505800
  0.605000, -9.145000
  0.607000, -8.771800
  0.609000, -8.392000
  0.611000, -8.010500
  0.613000, -7.625600
  0.615000, -7.240400
  0.617000, -6.857900
  0.619000, -6.478900
  0.621000, -6.105600
  0.623000, -5.738500
  0.625000, -5.381100
  0.627000, -5.035400
  0.629000, -4.701100
  0.631000, -4.380000
  0.633000, -4.075600
  0.635000, -3.789700
  0.637000, -3.516400
  0.639000, -3.259100
  0.641000, -3.021500
  0.643000, -2.804600
  0.645000, -2.609700
  0.647000, -2.433600
  0.649000, -2.275900
  0.651000, -2.136900
  0.653000, -2.015700
  0.655000, -1.913000
  0.657000, -1.832900
  0.659000, -1.770300
  0.661000, -1.723100
  0.663000, -1.693500
  0.665000, -1.679400
  0.667000, -1.679900
  0.669000, -1.693800
  0.671000, -1.720200
  0.673000, -1.758600
  0.675000, -1.806700
  0.677000, -1.863700
  0.679000, -1.929500
  0.681000, -2.002200
  0.683000, -2.081800
  0.685000, -2.165900
  0.687000, -2.253900
  0.689000, -2.345400
  0.691000, -2.437600
  0.693000, -2.530300
  0.695000, -2.623300
  0.697000, -2.715400
  0.699000, -2.806100
  0.701000, -2.894400
  0.703000, -2.979000
  0.705000, -3.059800
  0.707000, -3.136900
  0.709000, -3.209000
  0.711000, -3.276300
  0.713000, -3.339100
  0.715000, -3.395500
  0.717000, -3.444400
  0.719000, -3.486200
  0.721000, -3.520400
  0.723000, -3.548100
  0.725000, -3.569500
  0.727000, -3.583000
  0.729000, -3.588600
  0.731000, -3.585400
  0.733000, -3.575200
  0.735000, -3.559800
  0.737000, -3.536200
  0.739000, -3.505600
  0.741000, -3.470500
  0.743000, -3.429000
  0.745000, -3.380600
  0.747000, -3.327500
  0.749000, -3.270400
  0.751000, -3.209100
  0.753000, -3.144900
  0.755000, -3.077400
  0.757000, -3.007000
  0.759000, -2.935100
  0.761000, -2.861600
  0.763000, -2.786200
  0.765000, -2.710500
  0.767000, -2.635600
  0.769000, -2.560600
  0.771000, -2.485600
  0.773000, -2.411900
  0.775000, -2.339400
  0.777000, -2.267900
  0.779000, -2.197400
  0.781000, -2.129000
  0.783000, -2.062600
  0.785000, -1.998500
  0.787000, -1.936100
  0.789000, -1.875700
  0.791000, -1.817200
  0.793000, -1.761000
  0.795000, -1.707800
  0.797000, -1.656500
  0.799000, -1.607200
  0.801000, -1.559800
  0.803000, -1.514500
  0.805000, -1.470900
  0.807000, -1.429700
  0.809000, -1.390500
  0.811000, -1.352400
  0.813000, -1.315100
  0.815000, -1.279400
  0.817000, -1.245000
  0.819000, -1.211700
  0.821000, -1.179400
  0.823000, -1.147800
  0.825000, -1.117200
  0.827000, -1.086800
  0.829000, -1.057200
  0.831000, -1.028000
  0.833000, -0.999000
  0.835000, -0.970600
  0.837000, -0.942500
  0.839000, -0.914700
  0.841000, -0.887200
  0.843000, -0.859800
  0.845000, -0.832700
  0.847000, -0.806000
  0.849000, -0.779600
  0.851000, -0.753300
  0.853000, -0.727200
  0.855000, -0.701400
  0.857000, -0.675900
  0.859000, -0.650900
  0.861000, -0.626700
  0.863000, -0.602800
  0.865000, -0.579600
  0.867000, -0.557400
  0.869000, -0.536200
  0.871000, -0.515800
  0.873000, -0.496600
  0.875000, -0.478500
  0.877000, -0.461600
  0.879000, -0.446100
  0.881000, -0.432000
  0.883000, -0.419400
  0.885000, -0.408100
  0.887000, -0.398400
  0.889000, -0.390700
  0.891000, -0.384500
  0.893000, -0.379500
  0.895000, -0.376300
  0.897000, -0.375200
  0.899000, -0.375600
  0.901000, -0.377200
  0.903000, -0.380800
  0.905000, -0.386100
  0.907000, -0.392800
  0.909000, -0.400600
  0.911000, -0.409500
  0.913000, -0.419700
  0.915000, -0.431200
  0.917000, -0.443900
  0.919000, -0.457600
  0.921000, -0.472300
  0.923000, -0.487900
  0.925000, -0.503900
  0.927000, -0.520200
  0.929000, -0.537200
  0.931000, -0.554300
  0.933000, -0.571600
  0.935000, -0.589100
  0.937000, -0.606500
  0.939000, -0.623600
  0.941000, -0.640500
  0.943000, -0.657200
  0.945000, -0.673300
  0.947000, -0.688400
  0.949000, -0.702800
  0.951000, -0.716600
  0.953000, -0.729400
  0.955000, -0.741300
  0.957000, -0.752100
  0.959000, -0.761700
  0.961000, -0.770100
  0.963000, -0.777300
  0.965000, -0.783300
  0.967000, -0.787700
  0.969000, -0.790900
  0.971000, -0.793000
  0.973000, -0.793600
  0.975000, -0.792900
  0.977000, -0.790900
  0.979000, -0.787400
  0.981000, -0.782500
  0.983000, -0.776500
  0.985000, -0.769300
  0.987000, -0.760900
  0.989000, -0.751400
  0.991000, -0.740700
  0.993000, -0.729200
  0.995000, -0.716800
  0.997000, -0.703400
  0.999000, -0.689100
  1.001000, -0.674200
  1.003000, -0.658700
  1.005000, -0.642500
  1.007000, -0.625700
  1.009000, -0.608300
  1.011000, -0.590700
  1.013000, -0.572900
  1.015000, -0.554800
  1.017000, -0.536600
  1.019000, -0.518300
  1.021000, -0.500000
  1.023000, -0.481800
  1.025000, -0.463700
  1.027000, -0.445700
  1.029000, -0.427900
  1.031000, -0.410200
  1.033000, -0.392900
  1.035000, -0.376300
  1.037000, -0.360000
  1.039000, -0.344200
  1.041000, -0.329000
  1.043000, -0.314300
  1.045000, -0.300200
  1.047000, -0.286600
  1.049000, -0.273700
  1.051000, -0.261400
  1.053000, -0.249800
  1.055000, -0.238800
  1.057000, -0.228600
  1.059000, -0.218900
  1.061000, -0.209800
  1.063000, -0.201500
  1.065000, -0.193900
  1.067000, -0.186900
  1.069000, -0.180500
  1.071000, -0.174700
  1.073000, -0.169700
  1.075000, -0.165200
  1.077000, -0.161400
  1.079000, -0.158200
  1.081000, -0.155500
  1.083000, -0.153400
  1.085000, -0.151800
  1.087000, -0.150600
  1.089000, -0.149900
  1.091000, -0.149800
  1.093000, -0.150100
  1.095000, -0.150700
  1.097000, -0.151700
  1.099000, -0.153200
  1.101000, -0.155000
  1.103000, -0.157200
  1.105000, -0.159500
  1.107000, -0.162100
  1.109000, -0.165000
  1.111000, -0.168000
  1.113000, -0.171100
  1.115000, -0.174400
  1.117000, -0.178200
  1.119000, -0.181900
  1.121000, -0.185800
  1.123000, -0.189600
  1.125000, -0.193300
  1.127000, -0.197100
  1.129000, -0.200900
  1.131000, -0.204700
  1.133000, -0.208400
  1.135000, -0.212100
  1.137000, -0.215800
  1.139000, -0.219500
  1.141000, -0.223200
  1.143000, -0.226700
  1.145000, -0.230100
  1.147000, -0.233000
  1.149000, -0.235700
  1.151000, -0.238000
  1.153000, -0.240000
  1.155000, -0.242000
  1.157000, -0.243800
  1.159000, -0.245400
  1.161000, -0.246600
  1.163000, -0.247500
  1.165000, -0.248000
  1.167000, -0.248400
  1.169000, -0.248400
  1.171000, -0.248000
  1.173000, -0.247300
  1.175000, -0.246300
  1.177000, -0.244900
  1.179000, -0.243200
  1.181000, -0.241300
  1.183000, -0.239100
  1.185000, -0.236600
  1.187000, -0.233800
  1.189000, -0.230700
  1.191000, -0.227200
  1.193000, -0.223500
  1.195000, -0.219600
  1.197000, -0.215500
  1.199000, -0.211000
  1.201000, -0.206300
  1.203000, -0.201500
  1.205000, -0.196500
  1.207000, -0.191400
  1.209000, -0.186000
  1.211000, -0.180400
  1.213000, -0.174800
  1.215000, -0.169100
  1.217000, -0.163300
  1.219000, -0.157400
  1.221000, -0.151400
  1.223000, -0.145500
  1.225000, -0.139600
  1.227000, -0.133800
  1.229000, -0.127900
  1.231000, -0.121900
  1.233000, -0.116100
  1.235000, -0.110500
  1.237000, -0.104700
  1.239000, -0.099100
  1.241000, -0.093600
  1.243000, -0.088000
  1.245000, -0.082400
  1.247000, -0.077000
  1.249000, -0.071800
  1.251000, -0.066600
  1.253000, -0.061500
  1.255000, -0.056500
  1.257000, -0.051700
  1.259000, -0.047100
  1.261000, -0.042400
  1.263000, -0.037800
  1.265000, -0.033200
  1.267000, -0.028700
  1.269000, -0.024400
  1.271000, -0.020100
  1.273000, -0.016100
  1.275000, -0.012000
  1.277000, -0.007900
  1.279000, -0.003800
  1.281000,  0.000400
  1.283000,  0.004300
  1.285000,  0.008300
  1.287000,  0.012200
  1.289000,  0.016200
  1.291000,  0.020000
  1.293000,  0.023700
  1.295000,  0.027300
  1.297000,  0.030900
  1.299000,  0.034400
  1.301000,  0.037700
  1.303000,  0.041000
  1.305000,  0.044200
  1.307000,  0.047300
  1.309000,  0.050100
  1.311000,  0.052900
  1.313000,  0.055600
  1.315000,  0.058300
  1.317000,  0.060600
  1.319000,  0.062900
  1.321000,  0.064900
  1.323000,  0.066800
  1.325000,  0.068600
  1.327000,  0.070200
  1.329000,  0.071700
  1.331000,  0.072900
  1.333000,  0.073700
  1.335000,  0.074500
  1.337000,  0.075200
  1.339000,  0.075700
  1.341000,  0.075800
  1.343000,  0.076000
  1.345000,  0.076600
  1.347000,  0.077300
  1.349000,  0.077500
  1.351000,  0.077500
  1.353000,  0.077600
  1.355000,  0.077700
  1.357000,  0.077900
  1.359000,  0.078100
  1.361000,  0.077800
  1.363000,  0.077900
  1.365000,  0.078600
  1.367000,  0.079200
  1.369000,  0.079700
  1.371000,  0.080600
  1.373000,  0.082000
  1.375000,  0.084100
  1.377000,  0.086800
  1.379000,  0.089700
  1.381000,  0.093200
  1.383000,  0.097600
  1.385000,  0.102500
  1.387000,  0.107600
  1.389000,  0.113600
  1.391000,  0.120000
  1.393000,  0.127100
  1.395000,  0.134900
  1.397000,  0.143100
  1.399000,  0.152000
