# z (nm)   (kJ/mol)
  0.537000, 34.727600
  0.539000, 33.711600
  0.541000, 32.706500
  0.543000, 31.596500
  0.545000, 30.441900
  0.547000, 29.290100
  0.549000, 28.161100
  0.551000, 27.029900
  0.553000, 25.894700
  0.555000, 24.763600
  0.557000, 23.649300
  0.559000, 22.552000
  0.561000, 21.467600
  0.563000, 20.400600
  0.565000, 19.346700
  0.567000, 18.317000
  0.569000, 17.323900
  0.571000, 16.361700
  0.573000, 15.422000
  0.575000, 14.512400
  0.577000, 13.638200
  0.579000, 12.797200
  0.581000, 11.986900
  0.583000, 11.207600
  0.585000, 10.462200
  0.587000,  9.752800
  0.589000,  9.078600
  0.591000,  8.435300
  0.593000,  7.825000
  0.595000,  7.252900
  0.597000,  6.709200
  0.599000,  6.193200
  0.601000,  5.707600
  0.603000,  5.254400
  0.605000,  4.832400
  0.607000,  4.437500
  0.609000,  4.069700
  0.611000,  3.727900
  0.613000,  3.411000
  0.615000,  3.116200
  0.617000,  2.844400
  0.619000,  2.595900
  0.621000,  2.369100
  0.623000,  2.164000
  0.625000,  1.981100
  0.627000,  1.818000
  0.629000,  1.673200
  0.631000,  1.545800
  0.633000,  1.437400
  0.635000,  1.347800
  0.637000,  1.276500
  0.639000,  1.223200
  0.641000,  1.185600
  0.643000,  1.160000
  0.645000,  1.148400
  0.647000,  1.153200
  0.649000,  1.168400
  0.651000,  1.194000
  0.653000,  1.232900
  0.655000,  1.281400
  0.657000,  1.340700
  0.659000,  1.407300
  0.661000,  1.474900
  0.663000,  1.546400
  0.665000,  1.621200
  0.667000,  1.698500
  0.669000,  1.776300
  0.671000,  1.850300
  0.673000,  1.919900
  0.675000,  1.987700
  0.677000,  2.054200
  0.679000,  2.113900
  0.681000,  2.167100
  0.683000,  2.215100
  0.685000,  2.254400
  0.687000,  2.283700
  0.689000,  2.302900
  0.691000,  2.311700
  0.693000,  2.311300
  0.695000,  2.301000
  0.697000,  2.280100
  0.699000,  2.249000
  0.701000,  2.208100
  0.703000,  2.156900
  0.705000,  2.096400
  0.707000,  2.027000
  0.709000,  1.949200
  0.711000,  1.863000
  0.713000,  1.768800
  0.715000,  1.667300
  0.717000,  1.559000
  0.719000,  1.444900
  0.721000,  1.325900
  0.723000,  1.202400
  0.725000,  1.074300
  0.727000,  0.943100
  0.729000,  0.810200
  0.731000,  0.675400
  0.733000,  0.539300
  0.735000,  0.402700
  0.737000,  0.266400
  0.739000,  0.130600
  0.741000, -0.003600
  0.743000, -0.136000
  0.745000, -0.266200
  0.747000, -0.393100
  0.749000, -0.517100
  0.751000, -0.637900
  0.753000, -0.754700
  0.755000, -0.866600
  0.757000, -0.973600
  0.759000, -1.075900
  0.761000, -1.173300
  0.763000, -1.265300
  0.765000, -1.351600
  0.767000, -1.432200
  0.769000, -1.506800
  0.771000, -1.575400
  0.773000, -1.638200
  0.775000, -1.695400
  0.777000, -1.746300
  0.779000, -1.791000
  0.781000, -1.830000
  0.783000, -1.863500
  0.785000, -1.891400
  0.787000, -1.914000
  0.789000, -1.931300
  0.791000, -1.943600
  0.793000, -1.950700
  0.795000, -1.953200
  0.797000, -1.951900
  0.799000, -1.946700
  0.801000, -1.937200
  0.803000, -1.924400
  0.805000, -1.908400
  0.807000, -1.889500
  0.809000, -1.867700
  0.811000, -1.843500
  0.813000, -1.816900
  0.815000, -1.787900
  0.817000, -1.757100
  0.819000, -1.724900
  0.821000, -1.691400
  0.823000, -1.656500
  0.825000, -1.620300
  0.827000, -1.583400
  0.829000, -1.545700
  0.831000, -1.507400
  0.833000, -1.469000
  0.835000, -1.430300
  0.837000, -1.391500
  0.839000, -1.352800
  0.841000, -1.313900
  0.843000, -1.275200
  0.845000, -1.236900
  0.847000, -1.198700
  0.849000, -1.160800
  0.851000, -1.122900
  0.853000, -1.085200
  0.855000, -1.048200
  0.857000, -1.011700
  0.859000, -0.975800
  0.861000, -0.940400
  0.863000, -0.905100
  0.865000, -0.870200
  0.867000, -0.836000
  0.869000, -0.802100
  0.871000, -0.768600
  0.873000, -0.735800
  0.875000, -0.703300
  0.877000, -0.671000
  0.879000, -0.639100
  0.881000, -0.607600
  0.883000, -0.576600
  0.885000, -0.546300
  0.887000, -0.516300
  0.889000, -0.486600
  0.891000, -0.457500
  0.893000, -0.428800
  0.895000, -0.400500
  0.897000, -0.372900
  0.899000, -0.345800
  0.901000, -0.319000
  0.903000, -0.292400
  0.905000, -0.266300
  0.907000, -0.240800
  0.909000, -0.215600
  0.911000, -0.190800
  0.913000, -0.167000
  0.915000, -0.143600
  0.917000, -0.120400
  0.919000, -0.098000
  0.921000, -0.076400
  0.923000, -0.055500
  0.925000, -0.035200
  0.927000, -0.015400
  0.929000,  0.003900
  0.931000,  0.022500
  0.933000,  0.040700
  0.935000,  0.058200
  0.937000,  0.074600
  0.939000,  0.090100
  0.941000,  0.104800
  0.943000,  0.118700
  0.945000,  0.131700
  0.947000,  0.143900
  0.949000,  0.155300
  0.951000,  0.166100
  0.953000,  0.176100
  0.955000,  0.185200
  0.957000,  0.193500
  0.959000,  0.201000
  0.961000,  0.207900
  0.963000,  0.214000
  0.965000,  0.219100
  0.967000,  0.223300
  0.969000,  0.226800
  0.971000,  0.229800
  0.973000,  0.231700
  0.975000,  0.232700
  0.977000,  0.233000
  0.979000,  0.232600
  0.981000,  0.231300
  0.983000,  0.229200
  0.985000,  0.226200
  0.987000,  0.222500
  0.989000,  0.218100
  0.991000,  0.213200
  0.993000,  0.207600
  0.995000,  0.201100
  0.997000,  0.193900
  0.999000,  0.186200
  1.001000,  0.177700
  1.003000,  0.168600
  1.005000,  0.158900
  1.007000,  0.148600
  1.009000,  0.137600
  1.011000,  0.126200
  1.013000,  0.114100
  1.015000,  0.101700
  1.017000,  0.088900
  1.019000,  0.075600
  1.021000,  0.061800
  1.023000,  0.047700
  1.025000,  0.033200
  1.027000,  0.018200
  1.029000,  0.003000
  1.031000, -0.012400
  1.033000, -0.028100
  1.035000, -0.043900
  1.037000, -0.059700
  1.039000, -0.075500
  1.041000, -0.091600
  1.043000, -0.107800
  1.045000, -0.124000
  1.047000, -0.140100
  1.049000, -0.156100
  1.051000, -0.171700
  1.053000, -0.187000
  1.055000, -0.202300
  1.057000, -0.217400
  1.059000, -0.232400
  1.061000, -0.247100
  1.063000, -0.261500
  1.065000, -0.275500
  1.067000, -0.289000
  1.069000, -0.302200
  1.071000, -0.315000
  1.073000, -0.327400
  1.075000, -0.339300
  1.077000, -0.350600
  1.079000, -0.361500
  1.081000, -0.372100
  1.083000, -0.381900
  1.085000, -0.390800
  1.087000, -0.399200
  1.089000, -0.407100
  1.091000, -0.414300
  1.093000, -0.420800
  1.095000, -0.426900
  1.097000, -0.432500
  1.099000, -0.437300
  1.101000, -0.441400
  1.103000, -0.445000
  1.105000, -0.447900
  1.107000, -0.450000
  1.109000, -0.451400
  1.111000, -0.452000
  1.113000, -0.452100
  1.115000, -0.451600
  1.117000, -0.450300
  1.119000, -0.448300
  1.121000, -0.445800
  1.123000, -0.442500
  1.125000, -0.438500
  1.127000, -0.434000
  1.129000, -0.429000
  1.131000, -0.423300
  1.133000, -0.417000
  1.135000, -0.410400
  1.137000, -0.403200
  1.139000, -0.395500
  1.141000, -0.387300
  1.143000, -0.378700
  1.145000, -0.369700
  1.147000, -0.360500
  1.149000, -0.351100
  1.151000, -0.341100
  1.153000, -0.330800
  1.155000, -0.320300
  1.157000, -0.309600
  1.159000, -0.298500
  1.161000, -0.287200
  1.163000, -0.275800
  1.165000, -0.264500
  1.167000, -0.252900
  1.169000, -0.241200
  1.171000, -0.229500
  1.173000, -0.217800
  1.175000, -0.206200
  1.177000, -0.194600
  1.179000, -0.183000
  1.181000, -0.171500
  1.183000, -0.160100
  1.185000, -0.149000
  1.187000, -0.137900
  1.189000, -0.127000
  1.191000, -0.116400
  1.193000, -0.105900
  1.195000, -0.095500
  1.197000, -0.085400
  1.199000, -0.075500
  1.201000, -0.066000
  1.203000, -0.056800
  1.205000, -0.047700
  1.207000, -0.039100
  1.209000, -0.030600
  1.211000, -0.022600
  1.213000, -0.014800
  1.215000, -0.007200
  1.217000,  0.000000
  1.219000,  0.007000
  1.221000,  0.013400
  1.223000,  0.019600
  1.225000,  0.025700
  1.227000,  0.031200
  1.229000,  0.036500
  1.231000,  0.041700
  1.233000,  0.046600
  1.235000,  0.051200
  1.237000,  0.055500
  1.239000,  0.059500
  1.241000,  0.063200
  1.243000,  0.066700
  1.245000,  0.070100
  1.247000,  0.073100
  1.249000,  0.075900
  1.251000,  0.078400
  1.253000,  0.080900
  1.255000,  0.083200
  1.257000,  0.085200
  1.259000,  0.086900
  1.261000,  0.088300
  1.263000,  0.089700
  1.265000,  0.091000
  1.267000,  0.092000
  1.269000,  0.092900
  1.271000,  0.093500
  1.273000,  0.093900
  1.275000,  0.094100
  1.277000,  0.094100
  1.279000,  0.094000
  1.281000,  0.093700
  1.283000,  0.093100
  1.285000,  0.092200
  1.287000,  0.091100
  1.289000,  0.089800
  1.291000,  0.088300
  1.293000,  0.086600
  1.295000,  0.084700
  1.297000,  0.082600
  1.299000,  0.080000
  1.301000,  0.077200
  1.303000,  0.074100
  1.305000,  0.070700
  1.307000,  0.067000
  1.309000,  0.063000
  1.311000,  0.058600
  1.313000,  0.053900
  1.315000,  0.048800
  1.317000,  0.043500
  1.319000,  0.038000
  1.321000,  0.032300
  1.323000,  0.026000
  1.325000,  0.019300
  1.327000,  0.012300
  1.329000,  0.005200
  1.331000, -0.002200
  1.333000, -0.009900
  1.335000, -0.017700
  1.337000, -0.025700
  1.339000, -0.033800
  1.341000, -0.041900
  1.343000, -0.050000
  1.345000, -0.058300
  1.347000, -0.066400
  1.349000, -0.074400
  1.351000, -0.082400
  1.353000, -0.090000
  1.355000, -0.097000
  1.357000, -0.103800
  1.359000, -0.110500
  1.361000, -0.116600
  1.363000, -0.122200
  1.365000, -0.127300
  1.367000, -0.131700
  1.369000, -0.135300
  1.371000, -0.138400
  1.373000, -0.140800
  1.375000, -0.142300
  1.377000, -0.142800
  1.379000, -0.142200
  1.381000, -0.141000
  1.383000, -0.138700
  1.385000, -0.134900
  1.387000, -0.130000
  1.389000, -0.124000
  1.391000, -0.116900
  1.393000, -0.108700
  1.395000, -0.099200
  1.397000, -0.088500
  1.399000, -0.077000
