# z (nm)   (kJ/mol)
  0.461000, 12.648500
  0.463000, 11.838400
  0.465000, 11.010200
  0.467000, 10.117600
  0.469000,  9.203100
  0.471000,  8.297300
  0.473000,  7.382500
  0.475000,  6.453200
  0.477000,  5.514700
  0.479000,  4.569900
  0.481000,  3.627700
  0.483000,  2.687700
  0.485000,  1.745100
  0.487000,  0.805700
  0.489000, -0.126000
  0.491000, -1.049000
  0.493000, -1.961200
  0.495000, -2.857700
  0.497000, -3.737600
  0.499000, -4.599500
  0.501000, -5.438800
  0.503000, -6.255100
  0.505000, -7.047300
  0.507000, -7.811200
  0.509000, -8.546800
  0.511000, -9.251000
  0.513000, -9.921800
  0.515000,-10.560500
  0.517000,-11.162700
  0.519000,-11.728600
  0.521000,-12.260000
  0.523000,-12.754000
  0.525000,-13.208500
  0.527000,-13.623400
  0.529000,-14.000500
  0.531000,-14.340400
  0.533000,-14.642100
  0.535000,-14.904600
  0.537000,-15.129900
  0.539000,-15.319100
  0.541000,-15.471600
  0.543000,-15.586700
  0.545000,-15.666000
  0.547000,-15.710200
  0.549000,-15.715600
  0.551000,-15.685300
  0.553000,-15.622900
  0.555000,-15.524900
  0.557000,-15.393600
  0.559000,-15.232800
  0.561000,-15.040800
  0.563000,-14.818200
  0.565000,-14.568600
  0.567000,-14.293600
  0.569000,-13.994300
  0.571000,-13.671900
  0.573000,-13.327700
  0.575000,-12.966800
  0.577000,-12.590000
  0.579000,-12.201200
  0.581000,-11.803000
  0.583000,-11.397200
  0.585000,-10.987800
  0.587000,-10.573800
  0.589000,-10.159800
  0.591000, -9.747100
  0.593000, -9.337900
  0.595000, -8.936700
  0.597000, -8.544400
  0.599000, -8.163500
  0.601000, -7.788200
  0.603000, -7.423300
  0.605000, -7.075700
  0.607000, -6.742000
  0.609000, -6.424200
  0.611000, -6.121200
  0.613000, -5.832900
  0.615000, -5.561100
  0.617000, -5.303800
  0.619000, -5.061300
  0.621000, -4.838400
  0.623000, -4.634100
  0.625000, -4.444600
  0.627000, -4.269600
  0.629000, -4.113400
  0.631000, -3.973900
  0.633000, -3.847800
  0.635000, -3.736900
  0.637000, -3.639000
  0.639000, -3.552300
  0.641000, -3.478500
  0.643000, -3.419300
  0.645000, -3.373100
  0.647000, -3.337900
  0.649000, -3.314700
  0.651000, -3.301100
  0.653000, -3.297100
  0.655000, -3.301500
  0.657000, -3.308200
  0.659000, -3.322200
  0.661000, -3.343800
  0.663000, -3.367800
  0.665000, -3.394600
  0.667000, -3.423900
  0.669000, -3.455000
  0.671000, -3.486700
  0.673000, -3.519400
  0.675000, -3.550400
  0.677000, -3.578700
  0.679000, -3.606500
  0.681000, -3.632200
  0.683000, -3.655800
  0.685000, -3.677600
  0.687000, -3.695900
  0.689000, -3.710400
  0.691000, -3.720600
  0.693000, -3.727200
  0.695000, -3.730100
  0.697000, -3.728900
  0.699000, -3.723200
  0.701000, -3.713000
  0.703000, -3.698300
  0.705000, -3.678100
  0.707000, -3.653200
  0.709000, -3.624300
  0.711000, -3.591200
  0.713000, -3.554300
  0.715000, -3.513600
  0.717000, -3.469000
  0.719000, -3.420800
  0.721000, -3.369600
  0.723000, -3.316300
  0.725000, -3.261000
  0.727000, -3.202000
  0.729000, -3.141100
  0.731000, -3.079400
  0.733000, -3.016300
  0.735000, -2.952000
  0.737000, -2.886200
  0.739000, -2.820100
  0.741000, -2.753900
  0.743000, -2.687400
  0.745000, -2.620900
  0.747000, -2.553900
  0.749000, -2.487300
  0.751000, -2.422200
  0.753000, -2.357600
  0.755000, -2.293400
  0.757000, -2.230400
  0.759000, -2.168200
  0.761000, -2.107500
  0.763000, -2.048600
  0.765000, -1.991100
  0.767000, -1.935000
  0.769000, -1.880900
  0.771000, -1.828900
  0.773000, -1.778200
  0.775000, -1.729100
  0.777000, -1.681600
  0.779000, -1.635800
  0.781000, -1.592100
  0.783000, -1.549800
  0.785000, -1.509200
  0.787000, -1.470200
  0.789000, -1.432300
  0.791000, -1.395900
  0.793000, -1.361200
  0.795000, -1.327900
  0.797000, -1.296100
  0.799000, -1.265800
  0.801000, -1.236400
  0.803000, -1.208200
  0.805000, -1.181100
  0.807000, -1.155000
  0.809000, -1.129900
  0.811000, -1.105700
  0.813000, -1.082400
  0.815000, -1.059800
  0.817000, -1.038000
  0.819000, -1.017100
  0.821000, -0.997100
  0.823000, -0.977800
  0.825000, -0.959000
  0.827000, -0.941000
  0.829000, -0.923800
  0.831000, -0.907200
  0.833000, -0.891200
  0.835000, -0.875900
  0.837000, -0.861400
  0.839000, -0.847700
  0.841000, -0.834700
  0.843000, -0.822400
  0.845000, -0.810700
  0.847000, -0.799700
  0.849000, -0.789600
  0.851000, -0.780400
  0.853000, -0.772200
  0.855000, -0.764400
  0.857000, -0.757400
  0.859000, -0.751100
  0.861000, -0.745700
  0.863000, -0.741000
  0.865000, -0.737000
  0.867000, -0.733900
  0.869000, -0.731500
  0.871000, -0.729900
  0.873000, -0.729000
  0.875000, -0.728800
  0.877000, -0.729100
  0.879000, -0.729800
  0.881000, -0.731200
  0.883000, -0.733300
  0.885000, -0.735800
  0.887000, -0.738800
  0.889000, -0.742100
  0.891000, -0.745800
  0.893000, -0.749700
  0.895000, -0.754000
  0.897000, -0.758300
  0.899000, -0.762800
  0.901000, -0.767300
  0.903000, -0.771800
  0.905000, -0.776300
  0.907000, -0.780700
  0.909000, -0.784800
  0.911000, -0.789000
  0.913000, -0.793000
  0.915000, -0.796600
  0.917000, -0.799800
  0.919000, -0.802500
  0.921000, -0.805000
  0.923000, -0.807000
  0.925000, -0.808300
  0.927000, -0.809100
  0.929000, -0.809400
  0.931000, -0.809200
  0.933000, -0.808200
  0.935000, -0.806700
  0.937000, -0.804400
  0.939000, -0.801400
  0.941000, -0.797800
  0.943000, -0.793400
  0.945000, -0.788000
  0.947000, -0.782100
  0.949000, -0.775400
  0.951000, -0.768100
  0.953000, -0.760200
  0.955000, -0.751600
  0.957000, -0.742200
  0.959000, -0.732200
  0.961000, -0.721700
  0.963000, -0.710400
  0.965000, -0.698500
  0.967000, -0.686200
  0.969000, -0.673300
  0.971000, -0.660100
  0.973000, -0.646300
  0.975000, -0.632300
  0.977000, -0.617900
  0.979000, -0.603100
  0.981000, -0.588100
  0.983000, -0.572900
  0.985000, -0.557600
  0.987000, -0.542100
  0.989000, -0.526400
  0.991000, -0.510700
  0.993000, -0.495000
  0.995000, -0.479300
  0.997000, -0.463800
  0.999000, -0.448600
  1.001000, -0.433600
  1.003000, -0.418700
  1.005000, -0.404100
  1.007000, -0.389900
  1.009000, -0.376000
  1.011000, -0.362500
  1.013000, -0.349600
  1.015000, -0.337000
  1.017000, -0.325000
  1.019000, -0.313600
  1.021000, -0.302700
  1.023000, -0.292200
  1.025000, -0.282400
  1.027000, -0.273000
  1.029000, -0.264300
  1.031000, -0.256300
  1.033000, -0.249000
  1.035000, -0.242300
  1.037000, -0.236200
  1.039000, -0.230800
  1.041000, -0.225800
  1.043000, -0.221700
  1.045000, -0.218200
  1.047000, -0.215300
  1.049000, -0.213000
  1.051000, -0.211400
  1.053000, -0.210400
  1.055000, -0.209700
  1.057000, -0.209700
  1.059000, -0.210300
  1.061000, -0.211300
  1.063000, -0.212800
  1.065000, -0.214700
  1.067000, -0.217200
  1.069000, -0.220000
  1.071000, -0.223000
  1.073000, -0.226500
  1.075000, -0.230300
  1.077000, -0.234400
  1.079000, -0.238600
  1.081000, -0.243100
  1.083000, -0.247800
  1.085000, -0.252800
  1.087000, -0.257900
  1.089000, -0.263000
  1.091000, -0.268100
  1.093000, -0.273400
  1.095000, -0.278600
  1.097000, -0.283800
  1.099000, -0.289000
  1.101000, -0.294200
  1.103000, -0.299200
  1.105000, -0.304100
  1.107000, -0.308900
  1.109000, -0.313400
  1.111000, -0.317800
  1.113000, -0.322000
  1.115000, -0.326000
  1.117000, -0.329800
  1.119000, -0.333400
  1.121000, -0.336800
  1.123000, -0.339900
  1.125000, -0.342700
  1.127000, -0.345100
  1.129000, -0.347300
  1.131000, -0.349100
  1.133000, -0.350600
  1.135000, -0.351800
  1.137000, -0.352600
  1.139000, -0.353000
  1.141000, -0.353100
  1.143000, -0.352800
  1.145000, -0.352100
  1.147000, -0.351000
  1.149000, -0.349600
  1.151000, -0.347700
  1.153000, -0.345500
  1.155000, -0.342900
  1.157000, -0.340000
  1.159000, -0.336800
  1.161000, -0.333100
  1.163000, -0.329200
  1.165000, -0.324900
  1.167000, -0.320300
  1.169000, -0.315300
  1.171000, -0.310100
  1.173000, -0.304500
  1.175000, -0.298700
  1.177000, -0.292500
  1.179000, -0.286100
  1.181000, -0.279400
  1.183000, -0.272400
  1.185000, -0.265200
  1.187000, -0.257700
  1.189000, -0.250100
  1.191000, -0.242200
  1.193000, -0.234200
  1.195000, -0.226000
  1.197000, -0.217700
  1.199000, -0.209300
  1.201000, -0.200800
  1.203000, -0.192200
  1.205000, -0.183600
  1.207000, -0.174900
  1.209000, -0.166200
  1.211000, -0.157400
  1.213000, -0.148700
  1.215000, -0.140100
  1.217000, -0.131400
  1.219000, -0.122700
  1.221000, -0.114100
  1.223000, -0.105700
  1.225000, -0.097400
  1.227000, -0.089200
  1.229000, -0.081000
  1.231000, -0.073000
  1.233000, -0.065300
  1.235000, -0.057800
  1.237000, -0.050400
  1.239000, -0.043200
  1.241000, -0.036300
  1.243000, -0.029500
  1.245000, -0.023100
  1.247000, -0.016900
  1.249000, -0.010900
  1.251000, -0.005200
  1.253000,  0.000300
  1.255000,  0.005500
  1.257000,  0.010400
  1.259000,  0.015100
  1.261000,  0.019500
  1.263000,  0.023600
  1.265000,  0.027400
  1.267000,  0.030900
  1.269000,  0.034000
  1.271000,  0.037000
  1.273000,  0.039700
  1.275000,  0.042200
  1.277000,  0.044300
  1.279000,  0.046200
  1.281000,  0.047800
  1.283000,  0.049300
  1.285000,  0.050400
  1.287000,  0.051300
  1.289000,  0.052000
  1.291000,  0.052400
  1.293000,  0.052600
  1.295000,  0.052600
  1.297000,  0.052400
  1.299000,  0.052000
  1.301000,  0.051400
  1.303000,  0.050600
  1.305000,  0.049600
  1.307000,  0.048500
  1.309000,  0.047300
  1.311000,  0.045900
  1.313000,  0.044400
  1.315000,  0.042700
  1.317000,  0.041000
  1.319000,  0.039300
  1.321000,  0.037600
  1.323000,  0.035800
  1.325000,  0.034000
  1.327000,  0.032100
  1.329000,  0.030300
  1.331000,  0.028500
  1.333000,  0.026600
  1.335000,  0.024900
  1.337000,  0.023200
  1.339000,  0.021700
  1.341000,  0.020300
  1.343000,  0.019100
  1.345000,  0.018100
  1.347000,  0.017200
  1.349000,  0.016400
  1.351000,  0.015800
  1.353000,  0.015400
  1.355000,  0.015400
  1.357000,  0.015600
  1.359000,  0.016100
  1.361000,  0.016800
  1.363000,  0.017800
  1.365000,  0.019200
  1.367000,  0.020800
  1.369000,  0.022700
  1.371000,  0.024800
  1.373000,  0.027200
  1.375000,  0.030000
  1.377000,  0.033000
  1.379000,  0.036500
  1.381000,  0.040200
  1.383000,  0.044200
  1.385000,  0.048600
  1.387000,  0.052900
  1.389000,  0.057300
  1.391000,  0.061800
  1.393000,  0.066300
  1.395000,  0.071000
  1.397000,  0.075900
  1.399000,  0.080700
