# z (nm)   (kJ/mol)
  0.4610   12.64850
  0.4630   11.83840
  0.4650   11.01020
  0.4670   10.11760
  0.4690    9.20310
  0.4710    8.29730
  0.4730    7.38250
  0.4750    6.45320
  0.4770    5.51470
  0.4790    4.56990
  0.4810    3.62770
  0.4830    2.68770
  0.4850    1.74510
  0.4870    0.80570
  0.4890   -0.12600
  0.4910   -1.04900
  0.4930   -1.96120
  0.4950   -2.85770
  0.4970   -3.73760
  0.4990   -4.59950
  0.5010   -5.43880
  0.5030   -6.25510
  0.5050   -7.04730
  0.5070   -7.81120
  0.5090   -8.54680
  0.5110   -9.25100
  0.5130   -9.92180
  0.5150  -10.56050
  0.5170  -11.16270
  0.5190  -11.72860
  0.5210  -12.26000
  0.5230  -12.75400
  0.5250  -13.20850
  0.5270  -13.62340
  0.5290  -14.00050
  0.5310  -14.34040
  0.5330  -14.64210
  0.5350  -14.90460
  0.5370  -15.12990
  0.5390  -15.31910
  0.5410  -15.47160
  0.5430  -15.58670
  0.5450  -15.66600
  0.5470  -15.71020
  0.5490  -15.71560
  0.5510  -15.68530
  0.5530  -15.62290
  0.5550  -15.52490
  0.5570  -15.39360
  0.5590  -15.23280
  0.5610  -15.04080
  0.5630  -14.81820
  0.5650  -14.56860
  0.5670  -14.29360
  0.5690  -13.99430
  0.5710  -13.67190
  0.5730  -13.32770
  0.5750  -12.96680
  0.5770  -12.59000
  0.5790  -12.20120
  0.5810  -11.80300
  0.5830  -11.39720
  0.5850  -10.98780
  0.5870  -10.57380
  0.5890  -10.15980
  0.5910   -9.74710
  0.5930   -9.33790
  0.5950   -8.93670
  0.5970   -8.54440
  0.5990   -8.16350
  0.6010   -7.78820
  0.6030   -7.42330
  0.6050   -7.07570
  0.6070   -6.74200
  0.6090   -6.42420
  0.6110   -6.12120
  0.6130   -5.83290
  0.6150   -5.56110
  0.6170   -5.30380
  0.6190   -5.06130
  0.6210   -4.83840
  0.6230   -4.63410
  0.6250   -4.44460
  0.6270   -4.26960
  0.6290   -4.11340
  0.6310   -3.97390
  0.6330   -3.84780
  0.6350   -3.73690
  0.6370   -3.63900
  0.6390   -3.55230
  0.6410   -3.47850
  0.6430   -3.41930
  0.6450   -3.37310
  0.6470   -3.33790
  0.6490   -3.31470
  0.6510   -3.30110
  0.6530   -3.29710
  0.6550   -3.30150
  0.6570   -3.30820
  0.6590   -3.32220
  0.6610   -3.34380
  0.6630   -3.36780
  0.6650   -3.39460
  0.6670   -3.42390
  0.6690   -3.45500
  0.6710   -3.48670
  0.6730   -3.51940
  0.6750   -3.55040
  0.6770   -3.57870
  0.6790   -3.60650
  0.6810   -3.63220
  0.6830   -3.65580
  0.6850   -3.67760
  0.6870   -3.69590
  0.6890   -3.71040
  0.6910   -3.72060
  0.6930   -3.72720
  0.6950   -3.73010
  0.6970   -3.72890
  0.6990   -3.72320
  0.7010   -3.71300
  0.7030   -3.69830
  0.7050   -3.67810
  0.7070   -3.65320
  0.7090   -3.62430
  0.7110   -3.59120
  0.7130   -3.55430
  0.7150   -3.51360
  0.7170   -3.46900
  0.7190   -3.42080
  0.7210   -3.36960
  0.7230   -3.31630
  0.7250   -3.26100
  0.7270   -3.20200
  0.7290   -3.14110
  0.7310   -3.07940
  0.7330   -3.01630
  0.7350   -2.95200
  0.7370   -2.88620
  0.7390   -2.82010
  0.7410   -2.75390
  0.7430   -2.68740
  0.7450   -2.62090
  0.7470   -2.55390
  0.7490   -2.48730
  0.7510   -2.42220
  0.7530   -2.35760
  0.7550   -2.29340
  0.7570   -2.23040
  0.7590   -2.16820
  0.7610   -2.10750
  0.7630   -2.04860
  0.7650   -1.99110
  0.7670   -1.93500
  0.7690   -1.88090
  0.7710   -1.82890
  0.7730   -1.77820
  0.7750   -1.72910
  0.7770   -1.68160
  0.7790   -1.63580
  0.7810   -1.59210
  0.7830   -1.54980
  0.7850   -1.50920
  0.7870   -1.47020
  0.7890   -1.43230
  0.7910   -1.39590
  0.7930   -1.36120
  0.7950   -1.32790
  0.7970   -1.29610
  0.7990   -1.26580
  0.8010   -1.23640
  0.8030   -1.20820
  0.8050   -1.18110
  0.8070   -1.15500
  0.8090   -1.12990
  0.8110   -1.10570
  0.8130   -1.08240
  0.8150   -1.05980
  0.8170   -1.03800
  0.8190   -1.01710
  0.8210   -0.99710
  0.8230   -0.97780
  0.8250   -0.95900
  0.8270   -0.94100
  0.8290   -0.92380
  0.8310   -0.90720
  0.8330   -0.89120
  0.8350   -0.87590
  0.8370   -0.86140
  0.8390   -0.84770
  0.8410   -0.83470
  0.8430   -0.82240
  0.8450   -0.81070
  0.8470   -0.79970
  0.8490   -0.78960
  0.8510   -0.78040
  0.8530   -0.77220
  0.8550   -0.76440
  0.8570   -0.75740
  0.8590   -0.75110
  0.8610   -0.74570
  0.8630   -0.74100
  0.8650   -0.73700
  0.8670   -0.73390
  0.8690   -0.73150
  0.8710   -0.72990
  0.8730   -0.72900
  0.8750   -0.72880
  0.8770   -0.72910
  0.8790   -0.72980
  0.8810   -0.73120
  0.8830   -0.73330
  0.8850   -0.73580
  0.8870   -0.73880
  0.8890   -0.74210
  0.8910   -0.74580
  0.8930   -0.74970
  0.8950   -0.75400
  0.8970   -0.75830
  0.8990   -0.76280
  0.9010   -0.76730
  0.9030   -0.77180
  0.9050   -0.77630
  0.9070   -0.78070
  0.9090   -0.78480
  0.9110   -0.78900
  0.9130   -0.79300
  0.9150   -0.79660
  0.9170   -0.79980
  0.9190   -0.80250
  0.9210   -0.80500
  0.9230   -0.80700
  0.9250   -0.80830
  0.9270   -0.80910
  0.9290   -0.80940
  0.9310   -0.80920
  0.9330   -0.80820
  0.9350   -0.80670
  0.9370   -0.80440
  0.9390   -0.80140
  0.9410   -0.79780
  0.9430   -0.79340
  0.9450   -0.78800
  0.9470   -0.78210
  0.9490   -0.77540
  0.9510   -0.76810
  0.9530   -0.76020
  0.9550   -0.75160
  0.9570   -0.74220
  0.9590   -0.73220
  0.9610   -0.72170
  0.9630   -0.71040
  0.9650   -0.69850
  0.9670   -0.68620
  0.9690   -0.67330
  0.9710   -0.66010
  0.9730   -0.64630
  0.9750   -0.63230
  0.9770   -0.61790
  0.9790   -0.60310
  0.9810   -0.58810
  0.9830   -0.57290
  0.9850   -0.55760
  0.9870   -0.54210
  0.9890   -0.52640
  0.9910   -0.51070
  0.9930   -0.49500
  0.9950   -0.47930
  0.9970   -0.46380
  0.9990   -0.44860
  1.0010   -0.43360
  1.0030   -0.41870
  1.0050   -0.40410
  1.0070   -0.38990
  1.0090   -0.37600
  1.0110   -0.36250
  1.0130   -0.34960
  1.0150   -0.33700
  1.0170   -0.32500
  1.0190   -0.31360
  1.0210   -0.30270
  1.0230   -0.29220
  1.0250   -0.28240
  1.0270   -0.27300
  1.0290   -0.26430
  1.0310   -0.25630
  1.0330   -0.24900
  1.0350   -0.24230
  1.0370   -0.23620
  1.0390   -0.23080
  1.0410   -0.22580
  1.0430   -0.22170
  1.0450   -0.21820
  1.0470   -0.21530
  1.0490   -0.21300
  1.0510   -0.21140
  1.0530   -0.21040
  1.0550   -0.20970
  1.0570   -0.20970
  1.0590   -0.21030
  1.0610   -0.21130
  1.0630   -0.21280
  1.0650   -0.21470
  1.0670   -0.21720
  1.0690   -0.22000
  1.0710   -0.22300
  1.0730   -0.22650
  1.0750   -0.23030
  1.0770   -0.23440
  1.0790   -0.23860
  1.0810   -0.24310
  1.0830   -0.24780
  1.0850   -0.25280
  1.0870   -0.25790
  1.0890   -0.26300
  1.0910   -0.26810
  1.0930   -0.27340
  1.0950   -0.27860
  1.0970   -0.28380
  1.0990   -0.28900
  1.1010   -0.29420
  1.1030   -0.29920
  1.1050   -0.30410
  1.1070   -0.30890
  1.1090   -0.31340
  1.1110   -0.31780
  1.1130   -0.32200
  1.1150   -0.32600
  1.1170   -0.32980
  1.1190   -0.33340
  1.1210   -0.33680
  1.1230   -0.33990
  1.1250   -0.34270
  1.1270   -0.34510
  1.1290   -0.34730
  1.1310   -0.34910
  1.1330   -0.35060
  1.1350   -0.35180
  1.1370   -0.35260
  1.1390   -0.35300
  1.1410   -0.35310
  1.1430   -0.35280
  1.1450   -0.35210
  1.1470   -0.35100
  1.1490   -0.34960
  1.1510   -0.34770
  1.1530   -0.34550
  1.1550   -0.34290
  1.1570   -0.34000
  1.1590   -0.33680
  1.1610   -0.33310
  1.1630   -0.32920
  1.1650   -0.32490
  1.1670   -0.32030
  1.1690   -0.31530
  1.1710   -0.31010
  1.1730   -0.30450
  1.1750   -0.29870
  1.1770   -0.29250
  1.1790   -0.28610
  1.1810   -0.27940
  1.1830   -0.27240
  1.1850   -0.26520
  1.1870   -0.25770
  1.1890   -0.25010
  1.1910   -0.24220
  1.1930   -0.23420
  1.1950   -0.22600
  1.1970   -0.21770
  1.1990   -0.20930
  1.2010   -0.20080
  1.2030   -0.19220
  1.2050   -0.18360
  1.2070   -0.17490
  1.2090   -0.16620
  1.2110   -0.15740
  1.2130   -0.14870
  1.2150   -0.14010
  1.2170   -0.13140
  1.2190   -0.12270
  1.2210   -0.11410
  1.2230   -0.10570
  1.2250   -0.09740
  1.2270   -0.08920
  1.2290   -0.08100
  1.2310   -0.07300
  1.2330   -0.06530
  1.2350   -0.05780
  1.2370   -0.05040
  1.2390   -0.04320
  1.2410   -0.03630
  1.2430   -0.02950
  1.2450   -0.02310
  1.2470   -0.01690
  1.2490   -0.01090
  1.2510   -0.00520
  1.2530    0.00030
  1.2550    0.00550
  1.2570    0.01040
  1.2590    0.01510
  1.2610    0.01950
  1.2630    0.02360
  1.2650    0.02740
  1.2670    0.03090
  1.2690    0.03400
  1.2710    0.03700
  1.2730    0.03970
  1.2750    0.04220
  1.2770    0.04430
  1.2790    0.04620
  1.2810    0.04780
  1.2830    0.04930
  1.2850    0.05040
  1.2870    0.05130
  1.2890    0.05200
  1.2910    0.05240
  1.2930    0.05260
  1.2950    0.05260
  1.2970    0.05240
  1.2990    0.05200
  1.3010    0.05140
  1.3030    0.05060
  1.3050    0.04960
  1.3070    0.04850
  1.3090    0.04730
  1.3110    0.04590
  1.3130    0.04440
  1.3150    0.04270
  1.3170    0.04100
  1.3190    0.03930
  1.3210    0.03760
  1.3230    0.03580
  1.3250    0.03400
  1.3270    0.03210
  1.3290    0.03030
  1.3310    0.02850
  1.3330    0.02660
  1.3350    0.02490
  1.3370    0.02320
  1.3390    0.02170
  1.3410    0.02030
  1.3430    0.01910
  1.3450    0.01810
  1.3470    0.01720
  1.3490    0.01640
  1.3510    0.01580
  1.3530    0.01540
  1.3550    0.01540
  1.3570    0.01560
  1.3590    0.01610
  1.3610    0.01680
  1.3630    0.01780
  1.3650    0.01920
  1.3670    0.02080
  1.3690    0.02270
  1.3710    0.02480
  1.3730    0.02720
  1.3750    0.03000
  1.3770    0.03300
  1.3790    0.03650
  1.3810    0.04020
  1.3830    0.04420
  1.3850    0.04860
  1.3870    0.05290
  1.3890    0.05730
  1.3910    0.06180
  1.3930    0.06630
  1.3950    0.07100
  1.3970    0.07590
  1.3990    0.08070
