# z (nm)   (kJ/mol)
  0.499000, 39.965700
  0.505000, 39.089200
  0.507000, 38.149600
  0.509000, 37.172600
  0.511000, 36.216300
  0.513000, 35.261600
  0.515000, 34.289300
  0.517000, 33.307300
  0.519000, 32.340800
  0.521000, 31.383000
  0.523000, 30.427100
  0.525000, 29.461300
  0.527000, 28.503400
  0.529000, 27.552600
  0.531000, 26.604300
  0.533000, 25.669300
  0.535000, 24.746000
  0.537000, 23.839100
  0.539000, 22.956100
  0.541000, 22.090600
  0.543000, 21.240000
  0.545000, 20.411100
  0.547000, 19.606300
  0.549000, 18.824100
  0.551000, 18.065200
  0.553000, 17.334400
  0.555000, 16.631300
  0.557000, 15.951700
  0.559000, 15.294600
  0.561000, 14.657600
  0.563000, 14.043100
  0.565000, 13.454900
  0.567000, 12.887900
  0.569000, 12.341300
  0.571000, 11.820500
  0.573000, 11.318700
  0.575000, 10.834600
  0.577000, 10.372400
  0.579000,  9.930100
  0.581000,  9.506500
  0.583000,  9.099600
  0.585000,  8.709000
  0.587000,  8.338700
  0.589000,  7.988000
  0.591000,  7.652100
  0.593000,  7.332100
  0.595000,  7.027400
  0.597000,  6.740100
  0.599000,  6.470100
  0.601000,  6.213400
  0.603000,  5.971500
  0.605000,  5.743500
  0.607000,  5.528500
  0.609000,  5.328200
  0.611000,  5.140300
  0.613000,  4.965700
  0.615000,  4.803600
  0.617000,  4.651100
  0.619000,  4.510500
  0.621000,  4.381300
  0.623000,  4.263900
  0.625000,  4.156300
  0.627000,  4.056900
  0.629000,  3.967400
  0.631000,  3.884700
  0.633000,  3.808400
  0.635000,  3.740000
  0.637000,  3.677400
  0.639000,  3.620700
  0.641000,  3.569400
  0.643000,  3.522800
  0.645000,  3.480800
  0.647000,  3.440100
  0.649000,  3.398400
  0.651000,  3.357600
  0.653000,  3.320000
  0.655000,  3.284100
  0.657000,  3.249600
  0.659000,  3.214500
  0.661000,  3.176200
  0.663000,  3.134200
  0.665000,  3.087600
  0.667000,  3.037400
  0.669000,  2.985100
  0.671000,  2.930200
  0.673000,  2.871700
  0.675000,  2.809000
  0.677000,  2.742100
  0.679000,  2.671300
  0.681000,  2.597800
  0.683000,  2.520200
  0.685000,  2.438500
  0.687000,  2.353600
  0.689000,  2.265000
  0.691000,  2.173200
  0.693000,  2.078100
  0.695000,  1.980300
  0.697000,  1.881400
  0.699000,  1.781000
  0.701000,  1.678200
  0.703000,  1.574100
  0.705000,  1.469800
  0.707000,  1.365000
  0.709000,  1.259800
  0.711000,  1.155600
  0.713000,  1.052300
  0.715000,  0.949600
  0.717000,  0.847600
  0.719000,  0.747000
  0.721000,  0.648000
  0.723000,  0.551100
  0.725000,  0.456900
  0.727000,  0.364700
  0.729000,  0.275000
  0.731000,  0.188100
  0.733000,  0.103800
  0.735000,  0.022600
  0.737000, -0.055200
  0.739000, -0.129700
  0.741000, -0.200200
  0.743000, -0.267300
  0.745000, -0.330800
  0.747000, -0.389900
  0.749000, -0.445500
  0.751000, -0.497800
  0.753000, -0.546500
  0.755000, -0.591200
  0.757000, -0.631900
  0.759000, -0.669200
  0.761000, -0.702900
  0.763000, -0.733400
  0.765000, -0.760700
  0.767000, -0.784300
  0.769000, -0.804800
  0.771000, -0.822100
  0.773000, -0.836300
  0.775000, -0.847900
  0.777000, -0.857000
  0.779000, -0.863700
  0.781000, -0.868000
  0.783000, -0.870100
  0.785000, -0.870300
  0.787000, -0.868600
  0.789000, -0.865200
  0.791000, -0.860600
  0.793000, -0.854500
  0.795000, -0.846800
  0.797000, -0.837900
  0.799000, -0.828100
  0.801000, -0.817500
  0.803000, -0.806000
  0.805000, -0.793700
  0.807000, -0.780900
  0.809000, -0.767600
  0.811000, -0.753500
  0.813000, -0.738900
  0.815000, -0.724000
  0.817000, -0.709000
  0.819000, -0.693800
  0.821000, -0.678400
  0.823000, -0.662600
  0.825000, -0.646700
  0.827000, -0.630600
  0.829000, -0.614600
  0.831000, -0.598500
  0.833000, -0.582300
  0.835000, -0.565900
  0.837000, -0.549400
  0.839000, -0.532700
  0.841000, -0.516000
  0.843000, -0.499200
  0.845000, -0.482300
  0.847000, -0.465200
  0.849000, -0.447900
  0.851000, -0.430600
  0.853000, -0.412900
  0.855000, -0.395100
  0.857000, -0.377500
  0.859000, -0.359600
  0.861000, -0.341300
  0.863000, -0.322900
  0.865000, -0.304400
  0.867000, -0.285700
  0.869000, -0.266700
  0.871000, -0.247600
  0.873000, -0.228600
  0.875000, -0.209500
  0.877000, -0.190000
  0.879000, -0.170500
  0.881000, -0.151000
  0.883000, -0.131200
  0.885000, -0.111500
  0.887000, -0.091700
  0.889000, -0.072100
  0.891000, -0.052400
  0.893000, -0.032800
  0.895000, -0.013200
  0.897000,  0.006500
  0.899000,  0.025700
  0.901000,  0.044900
  0.903000,  0.064000
  0.905000,  0.082800
  0.907000,  0.101400
  0.909000,  0.119800
  0.911000,  0.137900
  0.913000,  0.155400
  0.915000,  0.172300
  0.917000,  0.188900
  0.919000,  0.205200
  0.921000,  0.221100
  0.923000,  0.236600
  0.925000,  0.251400
  0.927000,  0.265700
  0.929000,  0.279800
  0.931000,  0.293100
  0.933000,  0.305900
  0.935000,  0.318100
  0.937000,  0.329600
  0.939000,  0.340300
  0.941000,  0.350400
  0.943000,  0.359900
  0.945000,  0.368800
  0.947000,  0.376900
  0.949000,  0.384300
  0.951000,  0.391100
  0.953000,  0.397200
  0.955000,  0.402500
  0.957000,  0.407200
  0.959000,  0.411300
  0.961000,  0.414700
  0.963000,  0.417500
  0.965000,  0.419700
  0.967000,  0.421300
  0.969000,  0.422300
  0.971000,  0.422600
  0.973000,  0.422500
  0.975000,  0.421800
  0.977000,  0.420500
  0.979000,  0.418700
  0.981000,  0.416400
  0.983000,  0.413700
  0.985000,  0.410500
  0.987000,  0.406900
  0.989000,  0.402900
  0.991000,  0.398600
  0.993000,  0.394000
  0.995000,  0.389000
  0.997000,  0.383800
  0.999000,  0.378400
  1.001000,  0.372600
  1.003000,  0.366500
  1.005000,  0.360400
  1.007000,  0.354100
  1.009000,  0.347700
  1.011000,  0.341200
  1.013000,  0.334500
  1.015000,  0.327700
  1.017000,  0.320800
  1.019000,  0.313800
  1.021000,  0.306900
  1.023000,  0.299900
  1.025000,  0.292900
  1.027000,  0.286000
  1.029000,  0.279100
  1.031000,  0.272200
  1.033000,  0.265200
  1.035000,  0.258000
  1.037000,  0.250900
  1.039000,  0.243700
  1.041000,  0.236400
  1.043000,  0.229300
  1.045000,  0.222400
  1.047000,  0.215600
  1.049000,  0.208600
  1.051000,  0.201600
  1.053000,  0.194700
  1.055000,  0.187800
  1.057000,  0.180700
  1.059000,  0.173600
  1.061000,  0.166500
  1.063000,  0.159700
  1.065000,  0.152800
  1.067000,  0.145800
  1.069000,  0.138900
  1.071000,  0.132000
  1.073000,  0.125300
  1.075000,  0.118500
  1.077000,  0.111600
  1.079000,  0.104800
  1.081000,  0.098000
  1.083000,  0.091300
  1.085000,  0.084600
  1.087000,  0.077900
  1.089000,  0.071300
  1.091000,  0.064700
  1.093000,  0.058200
  1.095000,  0.051600
  1.097000,  0.045000
  1.099000,  0.038500
  1.101000,  0.032000
  1.103000,  0.025700
  1.105000,  0.019500
  1.107000,  0.013300
  1.109000,  0.007200
  1.111000,  0.001100
  1.113000, -0.004700
  1.115000, -0.010500
  1.117000, -0.016100
  1.119000, -0.021600
  1.121000, -0.027000
  1.123000, -0.032200
  1.125000, -0.037200
  1.127000, -0.042100
  1.129000, -0.046800
  1.131000, -0.051300
  1.133000, -0.055600
  1.135000, -0.059700
  1.137000, -0.063600
  1.139000, -0.067400
  1.141000, -0.070800
  1.143000, -0.074100
  1.145000, -0.077200
  1.147000, -0.080200
  1.149000, -0.082800
  1.151000, -0.085200
  1.153000, -0.087500
  1.155000, -0.089700
  1.157000, -0.091700
  1.159000, -0.093500
  1.161000, -0.095000
  1.163000, -0.096200
  1.165000, -0.097300
  1.167000, -0.098200
  1.169000, -0.099100
  1.171000, -0.099600
  1.173000, -0.100200
  1.175000, -0.100600
  1.177000, -0.100700
  1.179000, -0.100800
  1.181000, -0.100800
  1.183000, -0.100500
  1.185000, -0.100200
  1.187000, -0.099800
  1.189000, -0.099300
  1.191000, -0.098600
  1.193000, -0.097900
  1.195000, -0.097100
  1.197000, -0.096100
  1.199000, -0.094800
  1.201000, -0.093500
  1.203000, -0.092200
  1.205000, -0.090700
  1.207000, -0.089200
  1.209000, -0.087600
  1.211000, -0.085900
  1.213000, -0.084100
  1.215000, -0.082200
  1.217000, -0.080400
  1.219000, -0.078400
  1.221000, -0.076200
  1.223000, -0.074100
  1.225000, -0.071800
  1.227000, -0.069400
  1.229000, -0.066800
  1.231000, -0.064100
  1.233000, -0.061400
  1.235000, -0.058600
  1.237000, -0.055600
  1.239000, -0.052500
  1.241000, -0.049200
  1.243000, -0.045800
  1.245000, -0.042400
  1.247000, -0.038900
  1.249000, -0.035400
  1.251000, -0.031800
  1.253000, -0.028100
  1.255000, -0.024200
  1.257000, -0.020300
  1.259000, -0.016300
  1.261000, -0.012300
  1.263000, -0.008200
  1.265000, -0.004000
  1.267000,  0.000300
  1.269000,  0.004600
  1.271000,  0.008800
  1.273000,  0.013000
  1.275000,  0.017200
  1.277000,  0.021200
  1.279000,  0.025100
  1.281000,  0.028900
  1.283000,  0.032700
  1.285000,  0.036400
  1.287000,  0.040000
  1.289000,  0.043300
  1.291000,  0.046500
  1.293000,  0.049600
  1.295000,  0.052600
  1.297000,  0.055200
  1.299000,  0.057600
  1.301000,  0.059700
  1.303000,  0.061600
  1.305000,  0.063200
  1.307000,  0.064500
  1.309000,  0.065400
  1.311000,  0.065900
  1.313000,  0.066000
  1.315000,  0.065800
  1.317000,  0.065300
  1.319000,  0.064400
  1.321000,  0.063100
  1.323000,  0.061600
  1.325000,  0.059800
  1.327000,  0.057700
  1.329000,  0.055200
  1.331000,  0.052400
  1.333000,  0.049400
  1.335000,  0.046200
  1.337000,  0.042600
  1.339000,  0.038700
  1.341000,  0.034600
  1.343000,  0.030500
  1.345000,  0.026200
  1.347000,  0.021800
  1.349000,  0.017400
  1.351000,  0.013100
  1.353000,  0.008800
  1.355000,  0.004600
  1.357000,  0.000700
  1.359000, -0.003100
  1.361000, -0.006500
  1.363000, -0.009300
  1.365000, -0.011500
  1.367000, -0.013300
  1.369000, -0.014900
  1.371000, -0.015600
  1.373000, -0.015200
  1.375000, -0.014400
  1.377000, -0.013100
  1.379000, -0.011000
  1.381000, -0.007900
  1.383000, -0.003800
  1.385000,  0.001200
  1.387000,  0.007100
  1.389000,  0.014200
  1.391000,  0.022300
  1.393000,  0.031400
  1.395000,  0.041400
  1.397000,  0.052300
  1.399000,  0.064300
