# z (nm)   (kJ/mol)
  0.4290   24.85110
  0.4330   22.21150
  0.4350   20.88530
  0.4370   19.56130
  0.4390   18.22100
  0.4410   16.89820
  0.4430   15.60100
  0.4450   14.33560
  0.4470   13.09010
  0.4490   11.85770
  0.4510   10.66310
  0.4530    9.50940
  0.4550    8.39010
  0.4570    7.30530
  0.4590    6.26210
  0.4610    5.25770
  0.4630    4.29590
  0.4650    3.37910
  0.4670    2.50060
  0.4690    1.66050
  0.4710    0.86080
  0.4730    0.10360
  0.4750   -0.61360
  0.4770   -1.29400
  0.4790   -1.94350
  0.4810   -2.55830
  0.4830   -3.13620
  0.4850   -3.68380
  0.4870   -4.20030
  0.4890   -4.68400
  0.4910   -5.13870
  0.4930   -5.56500
  0.4950   -5.96160
  0.4970   -6.33170
  0.4990   -6.67450
  0.5010   -6.98880
  0.5030   -7.27530
  0.5050   -7.53260
  0.5070   -7.76300
  0.5090   -7.96750
  0.5110   -8.14350
  0.5130   -8.29250
  0.5150   -8.41710
  0.5170   -8.51720
  0.5190   -8.59290
  0.5210   -8.64420
  0.5230   -8.67190
  0.5250   -8.67950
  0.5270   -8.66790
  0.5290   -8.63780
  0.5310   -8.59140
  0.5330   -8.52560
  0.5350   -8.43900
  0.5370   -8.33390
  0.5390   -8.21460
  0.5410   -8.08220
  0.5430   -7.93390
  0.5450   -7.76870
  0.5470   -7.58980
  0.5490   -7.40080
  0.5510   -7.19760
  0.5530   -6.98150
  0.5550   -6.75730
  0.5570   -6.52310
  0.5590   -6.28110
  0.5610   -6.03400
  0.5630   -5.78230
  0.5650   -5.52550
  0.5670   -5.26420
  0.5690   -5.00040
  0.5710   -4.73610
  0.5730   -4.47050
  0.5750   -4.20450
  0.5770   -3.94030
  0.5790   -3.67820
  0.5810   -3.41920
  0.5830   -3.16400
  0.5850   -2.91300
  0.5870   -2.66680
  0.5890   -2.42630
  0.5910   -2.19230
  0.5930   -1.96560
  0.5950   -1.74710
  0.5970   -1.53640
  0.5990   -1.33490
  0.6010   -1.14180
  0.6030   -0.95690
  0.6050   -0.78230
  0.6070   -0.61780
  0.6090   -0.46260
  0.6110   -0.31690
  0.6130   -0.18230
  0.6150   -0.05890
  0.6170    0.05510
  0.6190    0.15980
  0.6210    0.25460
  0.6230    0.33880
  0.6250    0.41310
  0.6270    0.47710
  0.6290    0.53100
  0.6310    0.57630
  0.6330    0.61250
  0.6350    0.63970
  0.6370    0.65850
  0.6390    0.66860
  0.6410    0.67110
  0.6430    0.66670
  0.6450    0.65560
  0.6470    0.63770
  0.6490    0.61380
  0.6510    0.58450
  0.6530    0.54990
  0.6550    0.51010
  0.6570    0.46540
  0.6590    0.41710
  0.6610    0.36450
  0.6630    0.30850
  0.6650    0.24980
  0.6670    0.18920
  0.6690    0.12680
  0.6710    0.06230
  0.6730   -0.00370
  0.6750   -0.07040
  0.6770   -0.13750
  0.6790   -0.20510
  0.6810   -0.27260
  0.6830   -0.33990
  0.6850   -0.40610
  0.6870   -0.47160
  0.6890   -0.53620
  0.6910   -0.59880
  0.6930   -0.66040
  0.6950   -0.72030
  0.6970   -0.77790
  0.6990   -0.83410
  0.7010   -0.88790
  0.7030   -0.93950
  0.7050   -0.98900
  0.7070   -1.03610
  0.7090   -1.08110
  0.7110   -1.12320
  0.7130   -1.16240
  0.7150   -1.19910
  0.7170   -1.23330
  0.7190   -1.26480
  0.7210   -1.29350
  0.7230   -1.31950
  0.7250   -1.34290
  0.7270   -1.36360
  0.7290   -1.38210
  0.7310   -1.39830
  0.7330   -1.41240
  0.7350   -1.42420
  0.7370   -1.43390
  0.7390   -1.44160
  0.7410   -1.44690
  0.7430   -1.44990
  0.7450   -1.45100
  0.7470   -1.44990
  0.7490   -1.44700
  0.7510   -1.44220
  0.7530   -1.43580
  0.7550   -1.42740
  0.7570   -1.41700
  0.7590   -1.40500
  0.7610   -1.39160
  0.7630   -1.37640
  0.7650   -1.35970
  0.7670   -1.34150
  0.7690   -1.32160
  0.7710   -1.30040
  0.7730   -1.27810
  0.7750   -1.25440
  0.7770   -1.22940
  0.7790   -1.20340
  0.7810   -1.17630
  0.7830   -1.14820
  0.7850   -1.11930
  0.7870   -1.08930
  0.7890   -1.05860
  0.7910   -1.02750
  0.7930   -0.99580
  0.7950   -0.96330
  0.7970   -0.93030
  0.7990   -0.89700
  0.8010   -0.86350
  0.8030   -0.82990
  0.8050   -0.79610
  0.8070   -0.76240
  0.8090   -0.72860
  0.8110   -0.69500
  0.8130   -0.66170
  0.8150   -0.62860
  0.8170   -0.59600
  0.8190   -0.56360
  0.8210   -0.53180
  0.8230   -0.50090
  0.8250   -0.47050
  0.8270   -0.44070
  0.8290   -0.41150
  0.8310   -0.38320
  0.8330   -0.35590
  0.8350   -0.32950
  0.8370   -0.30390
  0.8390   -0.27940
  0.8410   -0.25560
  0.8430   -0.23310
  0.8450   -0.21190
  0.8470   -0.19170
  0.8490   -0.17250
  0.8510   -0.15420
  0.8530   -0.13750
  0.8550   -0.12190
  0.8570   -0.10720
  0.8590   -0.09360
  0.8610   -0.08110
  0.8630   -0.06940
  0.8650   -0.05910
  0.8670   -0.05000
  0.8690   -0.04180
  0.8710   -0.03450
  0.8730   -0.02840
  0.8750   -0.02330
  0.8770   -0.01890
  0.8790   -0.01580
  0.8810   -0.01360
  0.8830   -0.01220
  0.8850   -0.01180
  0.8870   -0.01210
  0.8890   -0.01320
  0.8910   -0.01480
  0.8930   -0.01720
  0.8950   -0.02040
  0.8970   -0.02430
  0.8990   -0.02880
  0.9010   -0.03380
  0.9030   -0.03910
  0.9050   -0.04490
  0.9070   -0.05100
  0.9090   -0.05760
  0.9110   -0.06460
  0.9130   -0.07160
  0.9150   -0.07920
  0.9170   -0.08710
  0.9190   -0.09510
  0.9210   -0.10330
  0.9230   -0.11170
  0.9250   -0.12000
  0.9270   -0.12850
  0.9290   -0.13710
  0.9310   -0.14560
  0.9330   -0.15410
  0.9350   -0.16290
  0.9370   -0.17160
  0.9390   -0.18010
  0.9410   -0.18850
  0.9430   -0.19690
  0.9450   -0.20510
  0.9470   -0.21300
  0.9490   -0.22060
  0.9510   -0.22820
  0.9530   -0.23550
  0.9550   -0.24250
  0.9570   -0.24930
  0.9590   -0.25580
  0.9610   -0.26210
  0.9630   -0.26810
  0.9650   -0.27380
  0.9670   -0.27910
  0.9690   -0.28410
  0.9710   -0.28870
  0.9730   -0.29290
  0.9750   -0.29680
  0.9770   -0.30040
  0.9790   -0.30360
  0.9810   -0.30640
  0.9830   -0.30900
  0.9850   -0.31120
  0.9870   -0.31300
  0.9890   -0.31460
  0.9910   -0.31580
  0.9930   -0.31670
  0.9950   -0.31730
  0.9970   -0.31770
  0.9990   -0.31760
  1.0010   -0.31730
  1.0030   -0.31670
  1.0050   -0.31570
  1.0070   -0.31430
  1.0090   -0.31290
  1.0110   -0.31130
  1.0130   -0.30960
  1.0150   -0.30750
  1.0170   -0.30500
  1.0190   -0.30230
  1.0210   -0.29950
  1.0230   -0.29650
  1.0250   -0.29330
  1.0270   -0.29000
  1.0290   -0.28660
  1.0310   -0.28310
  1.0330   -0.27940
  1.0350   -0.27560
  1.0370   -0.27150
  1.0390   -0.26720
  1.0410   -0.26270
  1.0430   -0.25820
  1.0450   -0.25370
  1.0470   -0.24890
  1.0490   -0.24410
  1.0510   -0.23940
  1.0530   -0.23470
  1.0550   -0.22980
  1.0570   -0.22480
  1.0590   -0.21970
  1.0610   -0.21460
  1.0630   -0.20950
  1.0650   -0.20430
  1.0670   -0.19910
  1.0690   -0.19390
  1.0710   -0.18860
  1.0730   -0.18330
  1.0750   -0.17820
  1.0770   -0.17300
  1.0790   -0.16780
  1.0810   -0.16250
  1.0830   -0.15730
  1.0850   -0.15220
  1.0870   -0.14700
  1.0890   -0.14190
  1.0910   -0.13670
  1.0930   -0.13160
  1.0950   -0.12670
  1.0970   -0.12180
  1.0990   -0.11690
  1.1010   -0.11220
  1.1030   -0.10750
  1.1050   -0.10300
  1.1070   -0.09840
  1.1090   -0.09410
  1.1110   -0.08980
  1.1130   -0.08560
  1.1150   -0.08140
  1.1170   -0.07740
  1.1190   -0.07350
  1.1210   -0.06970
  1.1230   -0.06600
  1.1250   -0.06240
  1.1270   -0.05890
  1.1290   -0.05560
  1.1310   -0.05240
  1.1330   -0.04940
  1.1350   -0.04630
  1.1370   -0.04330
  1.1390   -0.04060
  1.1410   -0.03800
  1.1430   -0.03530
  1.1450   -0.03280
  1.1470   -0.03050
  1.1490   -0.02830
  1.1510   -0.02610
  1.1530   -0.02400
  1.1550   -0.02210
  1.1570   -0.02030
  1.1590   -0.01840
  1.1610   -0.01660
  1.1630   -0.01500
  1.1650   -0.01330
  1.1670   -0.01180
  1.1690   -0.01040
  1.1710   -0.00910
  1.1730   -0.00790
  1.1750   -0.00670
  1.1770   -0.00550
  1.1790   -0.00440
  1.1810   -0.00330
  1.1830   -0.00220
  1.1850   -0.00110
  1.1870   -0.00000
  1.1890    0.00090
  1.1910    0.00180
  1.1930    0.00280
  1.1950    0.00370
  1.1970    0.00450
  1.1990    0.00540
  1.2010    0.00630
  1.2030    0.00710
  1.2050    0.00800
  1.2070    0.00890
  1.2090    0.00980
  1.2110    0.01050
  1.2130    0.01120
  1.2150    0.01200
  1.2170    0.01280
  1.2190    0.01360
  1.2210    0.01420
  1.2230    0.01490
  1.2250    0.01550
  1.2270    0.01620
  1.2290    0.01690
  1.2310    0.01760
  1.2330    0.01830
  1.2350    0.01890
  1.2370    0.01940
  1.2390    0.01990
  1.2410    0.02040
  1.2430    0.02090
  1.2450    0.02160
  1.2470    0.02210
  1.2490    0.02250
  1.2510    0.02300
  1.2530    0.02350
  1.2550    0.02370
  1.2570    0.02380
  1.2590    0.02410
  1.2610    0.02430
  1.2630    0.02450
  1.2650    0.02470
  1.2670    0.02500
  1.2690    0.02500
  1.2710    0.02500
  1.2730    0.02480
  1.2750    0.02470
  1.2770    0.02440
  1.2790    0.02390
  1.2810    0.02340
  1.2830    0.02280
  1.2850    0.02210
  1.2870    0.02120
  1.2890    0.02020
  1.2910    0.01910
  1.2930    0.01790
  1.2950    0.01650
  1.2970    0.01500
  1.2990    0.01340
  1.3010    0.01160
  1.3030    0.00970
  1.3050    0.00760
  1.3070    0.00540
  1.3090    0.00300
  1.3110    0.00050
  1.3130   -0.00220
  1.3150   -0.00490
  1.3170   -0.00770
  1.3190   -0.01060
  1.3210   -0.01380
  1.3230   -0.01700
  1.3250   -0.02010
  1.3270   -0.02320
  1.3290   -0.02630
  1.3310   -0.02950
  1.3330   -0.03270
  1.3350   -0.03570
  1.3370   -0.03860
  1.3390   -0.04130
  1.3410   -0.04390
  1.3430   -0.04620
  1.3450   -0.04820
  1.3470   -0.05020
  1.3490   -0.05190
  1.3510   -0.05330
  1.3530   -0.05440
  1.3550   -0.05510
  1.3570   -0.05530
  1.3590   -0.05500
  1.3610   -0.05430
  1.3630   -0.05320
  1.3650   -0.05150
  1.3670   -0.04930
  1.3690   -0.04640
  1.3710   -0.04270
  1.3730   -0.03840
  1.3750   -0.03360
  1.3770   -0.02780
  1.3790   -0.02150
  1.3810   -0.01440
  1.3830   -0.00630
  1.3850    0.00250
  1.3870    0.01200
  1.3890    0.02220
  1.3910    0.03310
  1.3930    0.04480
  1.3950    0.05710
  1.3970    0.07020
  1.3990    0.08370
