# z (nm)   (kJ/mol)
  0.487000, 39.442800
  0.489000, 38.393800
  0.491000, 37.293200
  0.493000, 36.205900
  0.495000, 35.104100
  0.497000, 34.023500
  0.499000, 32.929900
  0.501000, 31.794200
  0.503000, 30.646000
  0.505000, 29.480500
  0.507000, 28.314400
  0.509000, 27.155600
  0.511000, 26.000800
  0.513000, 24.852300
  0.515000, 23.707900
  0.517000, 22.575600
  0.519000, 21.456600
  0.521000, 20.357900
  0.523000, 19.279300
  0.525000, 18.223700
  0.527000, 17.198700
  0.529000, 16.199500
  0.531000, 15.219900
  0.533000, 14.269800
  0.535000, 13.356200
  0.537000, 12.464300
  0.539000, 11.594200
  0.541000, 10.759700
  0.543000,  9.953600
  0.545000,  9.171500
  0.547000,  8.418600
  0.549000,  7.697000
  0.551000,  7.002900
  0.553000,  6.336700
  0.555000,  5.703600
  0.557000,  5.103800
  0.559000,  4.535100
  0.561000,  3.993900
  0.563000,  3.478500
  0.565000,  2.994200
  0.567000,  2.541300
  0.569000,  2.112900
  0.571000,  1.713500
  0.573000,  1.341400
  0.575000,  0.995500
  0.577000,  0.677500
  0.579000,  0.380200
  0.581000,  0.104800
  0.583000, -0.145400
  0.585000, -0.370600
  0.587000, -0.575000
  0.589000, -0.758000
  0.591000, -0.918200
  0.593000, -1.058400
  0.595000, -1.178000
  0.597000, -1.277500
  0.599000, -1.356000
  0.601000, -1.416500
  0.603000, -1.458600
  0.605000, -1.481100
  0.607000, -1.489200
  0.609000, -1.482000
  0.611000, -1.460000
  0.613000, -1.424700
  0.615000, -1.376200
  0.617000, -1.312900
  0.619000, -1.237000
  0.621000, -1.150800
  0.623000, -1.057000
  0.625000, -0.956400
  0.627000, -0.847100
  0.629000, -0.731100
  0.631000, -0.610500
  0.633000, -0.487600
  0.635000, -0.362200
  0.637000, -0.235500
  0.639000, -0.109800
  0.641000,  0.015700
  0.643000,  0.138700
  0.645000,  0.258700
  0.647000,  0.376800
  0.649000,  0.490100
  0.651000,  0.595900
  0.653000,  0.694000
  0.655000,  0.786400
  0.657000,  0.872800
  0.659000,  0.950800
  0.661000,  1.021200
  0.663000,  1.082200
  0.665000,  1.133300
  0.667000,  1.176500
  0.669000,  1.209400
  0.671000,  1.232800
  0.673000,  1.248300
  0.675000,  1.255100
  0.677000,  1.254400
  0.679000,  1.245500
  0.681000,  1.227400
  0.683000,  1.202500
  0.685000,  1.171500
  0.687000,  1.133100
  0.689000,  1.087300
  0.691000,  1.035000
  0.693000,  0.976400
  0.695000,  0.912200
  0.697000,  0.843600
  0.699000,  0.770700
  0.701000,  0.693000
  0.703000,  0.611500
  0.705000,  0.527800
  0.707000,  0.442200
  0.709000,  0.353400
  0.711000,  0.262500
  0.713000,  0.170300
  0.715000,  0.077200
  0.717000, -0.016400
  0.719000, -0.110400
  0.721000, -0.204100
  0.723000, -0.296500
  0.725000, -0.388300
  0.727000, -0.479100
  0.729000, -0.567700
  0.731000, -0.654400
  0.733000, -0.738700
  0.735000, -0.820000
  0.737000, -0.898500
  0.739000, -0.973800
  0.741000, -1.046000
  0.743000, -1.114800
  0.745000, -1.179800
  0.747000, -1.241200
  0.749000, -1.298700
  0.751000, -1.351800
  0.753000, -1.401100
  0.755000, -1.446500
  0.757000, -1.488100
  0.759000, -1.526000
  0.761000, -1.559900
  0.763000, -1.590400
  0.765000, -1.617600
  0.767000, -1.640800
  0.769000, -1.659900
  0.771000, -1.675600
  0.773000, -1.687800
  0.775000, -1.696700
  0.777000, -1.702900
  0.779000, -1.706200
  0.781000, -1.706800
  0.783000, -1.704800
  0.785000, -1.699500
  0.787000, -1.691300
  0.789000, -1.681300
  0.791000, -1.669600
  0.793000, -1.655300
  0.795000, -1.638900
  0.797000, -1.621200
  0.799000, -1.601600
  0.801000, -1.580300
  0.803000, -1.558000
  0.805000, -1.534500
  0.807000, -1.509500
  0.809000, -1.483300
  0.811000, -1.456500
  0.813000, -1.429000
  0.815000, -1.400700
  0.817000, -1.371700
  0.819000, -1.341900
  0.821000, -1.311700
  0.823000, -1.281200
  0.825000, -1.250200
  0.827000, -1.218900
  0.829000, -1.187500
  0.831000, -1.155700
  0.833000, -1.124000
  0.835000, -1.092500
  0.837000, -1.060800
  0.839000, -1.029300
  0.841000, -0.997900
  0.843000, -0.966500
  0.845000, -0.935400
  0.847000, -0.904400
  0.849000, -0.873700
  0.851000, -0.843200
  0.853000, -0.812800
  0.855000, -0.782600
  0.857000, -0.752800
  0.859000, -0.723500
  0.861000, -0.694300
  0.863000, -0.665500
  0.865000, -0.637000
  0.867000, -0.608600
  0.869000, -0.580800
  0.871000, -0.553300
  0.873000, -0.526100
  0.875000, -0.499500
  0.877000, -0.473100
  0.879000, -0.447200
  0.881000, -0.421900
  0.883000, -0.397100
  0.885000, -0.373000
  0.887000, -0.349600
  0.889000, -0.326400
  0.891000, -0.304000
  0.893000, -0.282200
  0.895000, -0.260900
  0.897000, -0.240100
  0.899000, -0.219800
  0.901000, -0.200100
  0.903000, -0.181100
  0.905000, -0.162800
  0.907000, -0.145100
  0.909000, -0.128100
  0.911000, -0.111700
  0.913000, -0.095800
  0.915000, -0.080800
  0.917000, -0.066700
  0.919000, -0.053300
  0.921000, -0.040400
  0.923000, -0.028000
  0.925000, -0.016500
  0.927000, -0.005800
  0.929000,  0.004400
  0.931000,  0.013700
  0.933000,  0.022400
  0.935000,  0.030500
  0.937000,  0.037900
  0.939000,  0.044600
  0.941000,  0.050600
  0.943000,  0.055800
  0.945000,  0.060300
  0.947000,  0.064100
  0.949000,  0.067200
  0.951000,  0.069800
  0.953000,  0.071800
  0.955000,  0.073200
  0.957000,  0.074200
  0.959000,  0.074600
  0.961000,  0.074300
  0.963000,  0.073700
  0.965000,  0.072700
  0.967000,  0.071100
  0.969000,  0.069000
  0.971000,  0.066600
  0.973000,  0.063800
  0.975000,  0.060600
  0.977000,  0.057300
  0.979000,  0.053700
  0.981000,  0.049900
  0.983000,  0.045700
  0.985000,  0.041400
  0.987000,  0.036800
  0.989000,  0.032000
  0.991000,  0.027000
  0.993000,  0.021800
  0.995000,  0.016800
  0.997000,  0.011500
  0.999000,  0.006100
  1.001000,  0.000700
  1.003000, -0.004600
  1.005000, -0.010000
  1.007000, -0.015300
  1.009000, -0.020500
  1.011000, -0.025800
  1.013000, -0.031200
  1.015000, -0.036500
  1.017000, -0.041600
  1.019000, -0.046500
  1.021000, -0.051500
  1.023000, -0.056200
  1.025000, -0.061100
  1.027000, -0.066000
  1.029000, -0.070800
  1.031000, -0.075300
  1.033000, -0.079700
  1.035000, -0.084000
  1.037000, -0.088100
  1.039000, -0.092100
  1.041000, -0.096000
  1.043000, -0.099600
  1.045000, -0.103200
  1.047000, -0.106800
  1.049000, -0.110500
  1.051000, -0.113900
  1.053000, -0.117100
  1.055000, -0.120100
  1.057000, -0.123100
  1.059000, -0.126000
  1.061000, -0.128700
  1.063000, -0.131300
  1.065000, -0.133600
  1.067000, -0.136000
  1.069000, -0.138100
  1.071000, -0.140000
  1.073000, -0.141800
  1.075000, -0.143600
  1.077000, -0.145200
  1.079000, -0.146700
  1.081000, -0.148100
  1.083000, -0.149400
  1.085000, -0.150700
  1.087000, -0.151800
  1.089000, -0.152800
  1.091000, -0.153600
  1.093000, -0.154400
  1.095000, -0.155200
  1.097000, -0.155900
  1.099000, -0.156600
  1.101000, -0.157200
  1.103000, -0.157700
  1.105000, -0.158200
  1.107000, -0.158600
  1.109000, -0.158900
  1.111000, -0.159100
  1.113000, -0.159300
  1.115000, -0.159400
  1.117000, -0.159500
  1.119000, -0.159700
  1.121000, -0.159700
  1.123000, -0.159800
  1.125000, -0.160000
  1.127000, -0.160100
  1.129000, -0.160300
  1.131000, -0.160300
  1.133000, -0.160300
  1.135000, -0.160300
  1.137000, -0.160400
  1.139000, -0.160400
  1.141000, -0.160300
  1.143000, -0.160300
  1.145000, -0.160200
  1.147000, -0.160000
  1.149000, -0.160000
  1.151000, -0.159800
  1.153000, -0.159600
  1.155000, -0.159300
  1.157000, -0.159000
  1.159000, -0.158800
  1.161000, -0.158500
  1.163000, -0.158100
  1.165000, -0.157700
  1.167000, -0.157100
  1.169000, -0.156500
  1.171000, -0.155900
  1.173000, -0.155100
  1.175000, -0.154400
  1.177000, -0.153500
  1.179000, -0.152500
  1.181000, -0.151400
  1.183000, -0.150200
  1.185000, -0.148800
  1.187000, -0.147200
  1.189000, -0.145600
  1.191000, -0.143800
  1.193000, -0.141900
  1.195000, -0.139900
  1.197000, -0.137700
  1.199000, -0.135500
  1.201000, -0.133000
  1.203000, -0.130300
  1.205000, -0.127600
  1.207000, -0.124800
  1.209000, -0.121800
  1.211000, -0.118800
  1.213000, -0.115700
  1.215000, -0.112300
  1.217000, -0.108800
  1.219000, -0.105100
  1.221000, -0.101200
  1.223000, -0.097100
  1.225000, -0.093000
  1.227000, -0.088700
  1.229000, -0.084300
  1.231000, -0.079700
  1.233000, -0.074900
  1.235000, -0.070300
  1.237000, -0.065500
  1.239000, -0.060500
  1.241000, -0.055300
  1.243000, -0.050200
  1.245000, -0.045000
  1.247000, -0.039800
  1.249000, -0.034400
  1.251000, -0.029100
  1.253000, -0.023700
  1.255000, -0.018200
  1.257000, -0.012700
  1.259000, -0.007200
  1.261000, -0.001900
  1.263000,  0.003400
  1.265000,  0.008700
  1.267000,  0.013900
  1.269000,  0.018900
  1.271000,  0.023900
  1.273000,  0.028900
  1.275000,  0.034000
  1.277000,  0.038700
  1.279000,  0.043200
  1.281000,  0.047400
  1.283000,  0.051600
  1.285000,  0.055400
  1.287000,  0.059000
  1.289000,  0.062400
  1.291000,  0.065600
  1.293000,  0.068400
  1.295000,  0.071000
  1.297000,  0.073200
  1.299000,  0.075000
  1.301000,  0.076600
  1.303000,  0.078000
  1.305000,  0.079000
  1.307000,  0.079700
  1.309000,  0.079800
  1.311000,  0.079700
  1.313000,  0.079100
  1.315000,  0.078200
  1.317000,  0.077000
  1.319000,  0.075300
  1.321000,  0.073200
  1.323000,  0.070800
  1.325000,  0.068100
  1.327000,  0.065000
  1.329000,  0.061500
  1.331000,  0.057700
  1.333000,  0.053800
  1.335000,  0.049600
  1.337000,  0.045300
  1.339000,  0.041000
  1.341000,  0.036700
  1.343000,  0.032200
  1.345000,  0.027400
  1.347000,  0.022800
  1.349000,  0.018100
  1.351000,  0.013600
  1.353000,  0.009200
  1.355000,  0.004900
  1.357000,  0.000800
  1.359000, -0.003000
  1.361000, -0.006400
  1.363000, -0.009500
  1.365000, -0.012200
  1.367000, -0.014200
  1.369000, -0.015400
  1.371000, -0.015900
  1.373000, -0.016100
  1.375000, -0.015600
  1.377000, -0.014500
  1.379000, -0.012300
  1.381000, -0.009200
  1.383000, -0.005400
  1.385000, -0.000700
  1.387000,  0.005000
  1.389000,  0.011600
  1.391000,  0.019000
  1.393000,  0.027300
  1.395000,  0.036500
  1.397000,  0.046600
  1.399000,  0.057500
