# z (nm)   (kJ/mol)
  0.507000, 17.334100
  0.509000, 16.844100
  0.511000, 16.365200
  0.513000, 15.829800
  0.515000, 15.259300
  0.517000, 14.713400
  0.519000, 14.176500
  0.521000, 13.636700
  0.523000, 13.086100
  0.525000, 12.510500
  0.527000, 11.925300
  0.529000, 11.342500
  0.531000, 10.756800
  0.533000, 10.162000
  0.535000,  9.575600
  0.537000,  8.993100
  0.539000,  8.421400
  0.541000,  7.853400
  0.543000,  7.286700
  0.545000,  6.726400
  0.547000,  6.172200
  0.549000,  5.631800
  0.551000,  5.104500
  0.553000,  4.587900
  0.555000,  4.082700
  0.557000,  3.592900
  0.559000,  3.115100
  0.561000,  2.643200
  0.563000,  2.185000
  0.565000,  1.747100
  0.567000,  1.329900
  0.569000,  0.928500
  0.571000,  0.544900
  0.573000,  0.178700
  0.575000, -0.172000
  0.577000, -0.502000
  0.579000, -0.811700
  0.581000, -1.102400
  0.583000, -1.375400
  0.585000, -1.631300
  0.587000, -1.868200
  0.589000, -2.086300
  0.591000, -2.285600
  0.593000, -2.464700
  0.595000, -2.624100
  0.597000, -2.765700
  0.599000, -2.889300
  0.601000, -2.993900
  0.603000, -3.081000
  0.605000, -3.150000
  0.607000, -3.201300
  0.609000, -3.236000
  0.611000, -3.253900
  0.613000, -3.255200
  0.615000, -3.240700
  0.617000, -3.211400
  0.619000, -3.166600
  0.621000, -3.108000
  0.623000, -3.036600
  0.625000, -2.952900
  0.627000, -2.858500
  0.629000, -2.753500
  0.631000, -2.638100
  0.633000, -2.513700
  0.635000, -2.382200
  0.637000, -2.243000
  0.639000, -2.098200
  0.641000, -1.949100
  0.643000, -1.795400
  0.645000, -1.639900
  0.647000, -1.482900
  0.649000, -1.325700
  0.651000, -1.170700
  0.653000, -1.016600
  0.655000, -0.863300
  0.657000, -0.714700
  0.659000, -0.571700
  0.661000, -0.433900
  0.663000, -0.301500
  0.665000, -0.174600
  0.667000, -0.055700
  0.669000,  0.054300
  0.671000,  0.155300
  0.673000,  0.248700
  0.675000,  0.334100
  0.677000,  0.409300
  0.679000,  0.475500
  0.681000,  0.532100
  0.683000,  0.578100
  0.685000,  0.615000
  0.687000,  0.642400
  0.689000,  0.660200
  0.691000,  0.669000
  0.693000,  0.670100
  0.695000,  0.664100
  0.697000,  0.649700
  0.699000,  0.628000
  0.701000,  0.599800
  0.703000,  0.562700
  0.705000,  0.518500
  0.707000,  0.471000
  0.709000,  0.419600
  0.711000,  0.363000
  0.713000,  0.302700
  0.715000,  0.237900
  0.717000,  0.170600
  0.719000,  0.101900
  0.721000,  0.030800
  0.723000, -0.042800
  0.725000, -0.117300
  0.727000, -0.191800
  0.729000, -0.267100
  0.731000, -0.342400
  0.733000, -0.417100
  0.735000, -0.491500
  0.737000, -0.564200
  0.739000, -0.634800
  0.741000, -0.704000
  0.743000, -0.772200
  0.745000, -0.838600
  0.747000, -0.902100
  0.749000, -0.963100
  0.751000, -1.021400
  0.753000, -1.076600
  0.755000, -1.128700
  0.757000, -1.177600
  0.759000, -1.223200
  0.761000, -1.265800
  0.763000, -1.305500
  0.765000, -1.341700
  0.767000, -1.374400
  0.769000, -1.403800
  0.771000, -1.430100
  0.773000, -1.452800
  0.775000, -1.472300
  0.777000, -1.488900
  0.779000, -1.502300
  0.781000, -1.512300
  0.783000, -1.519200
  0.785000, -1.523200
  0.787000, -1.524700
  0.789000, -1.524000
  0.791000, -1.521500
  0.793000, -1.516500
  0.795000, -1.509100
  0.797000, -1.499600
  0.799000, -1.488200
  0.801000, -1.474700
  0.803000, -1.459800
  0.805000, -1.443300
  0.807000, -1.425500
  0.809000, -1.406600
  0.811000, -1.386100
  0.813000, -1.364200
  0.815000, -1.341600
  0.817000, -1.318100
  0.819000, -1.293600
  0.821000, -1.268900
  0.823000, -1.243600
  0.825000, -1.217800
  0.827000, -1.191400
  0.829000, -1.164400
  0.831000, -1.136900
  0.833000, -1.109100
  0.835000, -1.081100
  0.837000, -1.052900
  0.839000, -1.024500
  0.841000, -0.996000
  0.843000, -0.967300
  0.845000, -0.938600
  0.847000, -0.910200
  0.849000, -0.881800
  0.851000, -0.853400
  0.853000, -0.824900
  0.855000, -0.796500
  0.857000, -0.768200
  0.859000, -0.740100
  0.861000, -0.712000
  0.863000, -0.684100
  0.865000, -0.656300
  0.867000, -0.628800
  0.869000, -0.601300
  0.871000, -0.574100
  0.873000, -0.547000
  0.875000, -0.520300
  0.877000, -0.493800
  0.879000, -0.467500
  0.881000, -0.441500
  0.883000, -0.415800
  0.885000, -0.390400
  0.887000, -0.365400
  0.889000, -0.340800
  0.891000, -0.316600
  0.893000, -0.292700
  0.895000, -0.269200
  0.897000, -0.246100
  0.899000, -0.223400
  0.901000, -0.201100
  0.903000, -0.179400
  0.905000, -0.158100
  0.907000, -0.137400
  0.909000, -0.117300
  0.911000, -0.097900
  0.913000, -0.079100
  0.915000, -0.060700
  0.917000, -0.043000
  0.919000, -0.026000
  0.921000, -0.009600
  0.923000,  0.006100
  0.925000,  0.021200
  0.927000,  0.035500
  0.929000,  0.049100
  0.931000,  0.062000
  0.933000,  0.074300
  0.935000,  0.085700
  0.937000,  0.096400
  0.939000,  0.106400
  0.941000,  0.115600
  0.943000,  0.124100
  0.945000,  0.131700
  0.947000,  0.138700
  0.949000,  0.144800
  0.951000,  0.150100
  0.953000,  0.154700
  0.955000,  0.158700
  0.957000,  0.162100
  0.959000,  0.164800
  0.961000,  0.166800
  0.963000,  0.168100
  0.965000,  0.168800
  0.967000,  0.169000
  0.969000,  0.168500
  0.971000,  0.167500
  0.973000,  0.165900
  0.975000,  0.163800
  0.977000,  0.161200
  0.979000,  0.158000
  0.981000,  0.154100
  0.983000,  0.149900
  0.985000,  0.145300
  0.987000,  0.140300
  0.989000,  0.135000
  0.991000,  0.129500
  0.993000,  0.123600
  0.995000,  0.117600
  0.997000,  0.111200
  0.999000,  0.104400
  1.001000,  0.097600
  1.003000,  0.090500
  1.005000,  0.083200
  1.007000,  0.075900
  1.009000,  0.068400
  1.011000,  0.060900
  1.013000,  0.053300
  1.015000,  0.045600
  1.017000,  0.037800
  1.019000,  0.029800
  1.021000,  0.021900
  1.023000,  0.014300
  1.025000,  0.006600
  1.027000, -0.001100
  1.029000, -0.008700
  1.031000, -0.016300
  1.033000, -0.023800
  1.035000, -0.031300
  1.037000, -0.038800
  1.039000, -0.046100
  1.041000, -0.053400
  1.043000, -0.060600
  1.045000, -0.067600
  1.047000, -0.074600
  1.049000, -0.081400
  1.051000, -0.088100
  1.053000, -0.094800
  1.055000, -0.101400
  1.057000, -0.107600
  1.059000, -0.113700
  1.061000, -0.119800
  1.063000, -0.126000
  1.065000, -0.131900
  1.067000, -0.137500
  1.069000, -0.143100
  1.071000, -0.148500
  1.073000, -0.153700
  1.075000, -0.158600
  1.077000, -0.163300
  1.079000, -0.167900
  1.081000, -0.172400
  1.083000, -0.176600
  1.085000, -0.180500
  1.087000, -0.184300
  1.089000, -0.187900
  1.091000, -0.191300
  1.093000, -0.194600
  1.095000, -0.197700
  1.097000, -0.200500
  1.099000, -0.203100
  1.101000, -0.205500
  1.103000, -0.207600
  1.105000, -0.209500
  1.107000, -0.211100
  1.109000, -0.212500
  1.111000, -0.213700
  1.113000, -0.214700
  1.115000, -0.215600
  1.117000, -0.216100
  1.119000, -0.216400
  1.121000, -0.216500
  1.123000, -0.216500
  1.125000, -0.216200
  1.127000, -0.215600
  1.129000, -0.215000
  1.131000, -0.214100
  1.133000, -0.213000
  1.135000, -0.211800
  1.137000, -0.210300
  1.139000, -0.208500
  1.141000, -0.206700
  1.143000, -0.204700
  1.145000, -0.202600
  1.147000, -0.200400
  1.149000, -0.198100
  1.151000, -0.195600
  1.153000, -0.192900
  1.155000, -0.190100
  1.157000, -0.187100
  1.159000, -0.184000
  1.161000, -0.180900
  1.163000, -0.177600
  1.165000, -0.174200
  1.167000, -0.170700
  1.169000, -0.167100
  1.171000, -0.163500
  1.173000, -0.159900
  1.175000, -0.156200
  1.177000, -0.152400
  1.179000, -0.148500
  1.181000, -0.144600
  1.183000, -0.140700
  1.185000, -0.136700
  1.187000, -0.132700
  1.189000, -0.128800
  1.191000, -0.124800
  1.193000, -0.120900
  1.195000, -0.116900
  1.197000, -0.112900
  1.199000, -0.109000
  1.201000, -0.105100
  1.203000, -0.101000
  1.205000, -0.096700
  1.207000, -0.092700
  1.209000, -0.088800
  1.211000, -0.084900
  1.213000, -0.080800
  1.215000, -0.076800
  1.217000, -0.072900
  1.219000, -0.069000
  1.221000, -0.065100
  1.223000, -0.061200
  1.225000, -0.057400
  1.227000, -0.053600
  1.229000, -0.049700
  1.231000, -0.045900
  1.233000, -0.041900
  1.235000, -0.038100
  1.237000, -0.034300
  1.239000, -0.030600
  1.241000, -0.026900
  1.243000, -0.023300
  1.245000, -0.019600
  1.247000, -0.016100
  1.249000, -0.012400
  1.251000, -0.008900
  1.253000, -0.005600
  1.255000, -0.002300
  1.257000,  0.001000
  1.259000,  0.004000
  1.261000,  0.007100
  1.263000,  0.010000
  1.265000,  0.012700
  1.267000,  0.015200
  1.269000,  0.017600
  1.271000,  0.020000
  1.273000,  0.022300
  1.275000,  0.024400
  1.277000,  0.026400
  1.279000,  0.028200
  1.281000,  0.030000
  1.283000,  0.031600
  1.285000,  0.033000
  1.287000,  0.034100
  1.289000,  0.035000
  1.291000,  0.035700
  1.293000,  0.036300
  1.295000,  0.036700
  1.297000,  0.036900
  1.299000,  0.037000
  1.301000,  0.036800
  1.303000,  0.036400
  1.305000,  0.035900
  1.307000,  0.035300
  1.309000,  0.034400
  1.311000,  0.033400
  1.313000,  0.032300
  1.315000,  0.031000
  1.317000,  0.029600
  1.319000,  0.028100
  1.321000,  0.026500
  1.323000,  0.024900
  1.325000,  0.023200
  1.327000,  0.021500
  1.329000,  0.019700
  1.331000,  0.017900
  1.333000,  0.016100
  1.335000,  0.014400
  1.337000,  0.012800
  1.339000,  0.011200
  1.341000,  0.009800
  1.343000,  0.008500
  1.345000,  0.007200
  1.347000,  0.006100
  1.349000,  0.005100
  1.351000,  0.004300
  1.353000,  0.003700
  1.355000,  0.003400
  1.357000,  0.003200
  1.359000,  0.003300
  1.361000,  0.003600
  1.363000,  0.004100
  1.365000,  0.004900
  1.367000,  0.005800
  1.369000,  0.007000
  1.371000,  0.008300
  1.373000,  0.010000
  1.375000,  0.012000
  1.377000,  0.014200
  1.379000,  0.016700
  1.381000,  0.019400
  1.383000,  0.022200
  1.385000,  0.025300
  1.387000,  0.028600
  1.389000,  0.032200
  1.391000,  0.035800
  1.393000,  0.039600
  1.395000,  0.043400
  1.397000,  0.046900
  1.399000,  0.050400
