# z (nm)   (kJ/mol)
  0.549000, 25.250800
  0.551000, 24.979700
  0.553000, 24.690000
  0.555000, 24.396900
  0.557000, 24.080100
  0.559000, 23.764200
  0.561000, 23.455200
  0.563000, 23.128300
  0.565000, 22.779700
  0.567000, 22.431700
  0.569000, 22.099000
  0.571000, 21.744000
  0.573000, 21.373600
  0.575000, 20.988900
  0.577000, 20.602000
  0.579000, 20.215900
  0.581000, 19.824000
  0.583000, 19.436900
  0.585000, 19.043600
  0.587000, 18.642400
  0.589000, 18.246700
  0.591000, 17.857400
  0.593000, 17.465800
  0.595000, 17.075400
  0.597000, 16.687200
  0.599000, 16.298100
  0.601000, 15.912400
  0.603000, 15.534500
  0.605000, 15.161900
  0.607000, 14.794900
  0.609000, 14.434500
  0.611000, 14.081200
  0.613000, 13.737600
  0.615000, 13.401100
  0.617000, 13.067700
  0.619000, 12.742000
  0.621000, 12.425700
  0.623000, 12.114200
  0.625000, 11.806300
  0.627000, 11.506800
  0.629000, 11.217800
  0.631000, 10.934800
  0.633000, 10.659500
  0.635000, 10.393100
  0.637000, 10.134400
  0.639000,  9.883000
  0.641000,  9.636600
  0.643000,  9.395400
  0.645000,  9.161700
  0.647000,  8.935700
  0.649000,  8.714500
  0.651000,  8.499800
  0.653000,  8.290300
  0.655000,  8.085500
  0.657000,  7.887000
  0.659000,  7.692300
  0.661000,  7.500900
  0.663000,  7.313900
  0.665000,  7.132700
  0.667000,  6.955100
  0.669000,  6.780000
  0.671000,  6.608000
  0.673000,  6.439900
  0.675000,  6.275200
  0.677000,  6.112900
  0.679000,  5.953100
  0.681000,  5.795400
  0.683000,  5.640200
  0.685000,  5.487100
  0.687000,  5.335800
  0.689000,  5.185700
  0.691000,  5.038100
  0.693000,  4.892400
  0.695000,  4.746500
  0.697000,  4.601400
  0.699000,  4.457600
  0.701000,  4.314900
  0.703000,  4.173200
  0.705000,  4.032200
  0.707000,  3.891400
  0.709000,  3.751200
  0.711000,  3.612000
  0.713000,  3.473100
  0.715000,  3.335100
  0.717000,  3.197100
  0.719000,  3.059200
  0.721000,  2.922500
  0.723000,  2.786200
  0.725000,  2.651100
  0.727000,  2.517500
  0.729000,  2.384000
  0.731000,  2.251300
  0.733000,  2.120700
  0.735000,  1.991700
  0.737000,  1.864400
  0.739000,  1.739600
  0.741000,  1.617200
  0.743000,  1.497100
  0.745000,  1.378800
  0.747000,  1.262200
  0.749000,  1.148400
  0.751000,  1.037500
  0.753000,  0.929500
  0.755000,  0.824500
  0.757000,  0.722800
  0.759000,  0.624100
  0.761000,  0.528700
  0.763000,  0.436800
  0.765000,  0.348600
  0.767000,  0.264100
  0.769000,  0.183400
  0.771000,  0.106500
  0.773000,  0.033300
  0.775000, -0.036000
  0.777000, -0.101400
  0.779000, -0.163100
  0.781000, -0.220800
  0.783000, -0.274600
  0.785000, -0.324600
  0.787000, -0.370800
  0.789000, -0.413100
  0.791000, -0.451700
  0.793000, -0.486700
  0.795000, -0.518200
  0.797000, -0.546200
  0.799000, -0.570800
  0.801000, -0.592300
  0.803000, -0.610600
  0.805000, -0.625800
  0.807000, -0.638100
  0.809000, -0.647500
  0.811000, -0.654100
  0.813000, -0.658400
  0.815000, -0.660100
  0.817000, -0.659400
  0.819000, -0.656600
  0.821000, -0.651700
  0.823000, -0.644700
  0.825000, -0.635800
  0.827000, -0.625300
  0.829000, -0.613200
  0.831000, -0.599400
  0.833000, -0.584200
  0.835000, -0.567900
  0.837000, -0.550300
  0.839000, -0.531700
  0.841000, -0.511900
  0.843000, -0.490800
  0.845000, -0.469100
  0.847000, -0.446700
  0.849000, -0.423500
  0.851000, -0.399500
  0.853000, -0.374800
  0.855000, -0.349700
  0.857000, -0.324200
  0.859000, -0.298300
  0.861000, -0.272100
  0.863000, -0.245500
  0.865000, -0.218600
  0.867000, -0.191400
  0.869000, -0.164000
  0.871000, -0.136400
  0.873000, -0.108600
  0.875000, -0.080600
  0.877000, -0.052600
  0.879000, -0.024500
  0.881000,  0.003600
  0.883000,  0.031800
  0.885000,  0.060000
  0.887000,  0.088100
  0.889000,  0.116200
  0.891000,  0.144300
  0.893000,  0.172300
  0.895000,  0.200100
  0.897000,  0.227700
  0.899000,  0.255300
  0.901000,  0.282600
  0.903000,  0.309500
  0.905000,  0.336000
  0.907000,  0.362300
  0.909000,  0.388200
  0.911000,  0.413800
  0.913000,  0.438900
  0.915000,  0.463600
  0.917000,  0.487800
  0.919000,  0.511400
  0.921000,  0.534700
  0.923000,  0.557400
  0.925000,  0.579500
  0.927000,  0.601000
  0.929000,  0.622000
  0.931000,  0.642400
  0.933000,  0.662100
  0.935000,  0.680800
  0.937000,  0.698800
  0.939000,  0.716100
  0.941000,  0.732600
  0.943000,  0.748200
  0.945000,  0.763200
  0.947000,  0.777400
  0.949000,  0.790600
  0.951000,  0.802900
  0.953000,  0.814400
  0.955000,  0.825000
  0.957000,  0.834700
  0.959000,  0.843400
  0.961000,  0.851100
  0.963000,  0.858000
  0.965000,  0.864000
  0.967000,  0.869000
  0.969000,  0.873200
  0.971000,  0.876400
  0.973000,  0.878600
  0.975000,  0.879900
  0.977000,  0.880300
  0.979000,  0.879900
  0.981000,  0.878400
  0.983000,  0.876100
  0.985000,  0.873000
  0.987000,  0.868900
  0.989000,  0.863900
  0.991000,  0.858100
  0.993000,  0.851400
  0.995000,  0.843900
  0.997000,  0.835600
  0.999000,  0.826500
  1.001000,  0.816700
  1.003000,  0.806000
  1.005000,  0.794700
  1.007000,  0.782600
  1.009000,  0.769900
  1.011000,  0.756400
  1.013000,  0.742300
  1.015000,  0.727500
  1.017000,  0.712200
  1.019000,  0.696200
  1.021000,  0.679700
  1.023000,  0.662800
  1.025000,  0.645300
  1.027000,  0.627300
  1.029000,  0.608900
  1.031000,  0.590000
  1.033000,  0.570800
  1.035000,  0.551200
  1.037000,  0.531300
  1.039000,  0.511200
  1.041000,  0.490800
  1.043000,  0.470100
  1.045000,  0.449200
  1.047000,  0.428100
  1.049000,  0.407000
  1.051000,  0.385800
  1.053000,  0.364500
  1.055000,  0.343200
  1.057000,  0.321900
  1.059000,  0.300600
  1.061000,  0.279400
  1.063000,  0.258400
  1.065000,  0.237600
  1.067000,  0.216900
  1.069000,  0.196600
  1.071000,  0.176400
  1.073000,  0.156600
  1.075000,  0.137000
  1.077000,  0.117900
  1.079000,  0.099100
  1.081000,  0.080700
  1.083000,  0.062800
  1.085000,  0.045400
  1.087000,  0.028300
  1.089000,  0.011800
  1.091000, -0.004300
  1.093000, -0.019700
  1.095000, -0.034600
  1.097000, -0.048900
  1.099000, -0.062600
  1.101000, -0.075700
  1.103000, -0.088200
  1.105000, -0.100100
  1.107000, -0.111400
  1.109000, -0.122100
  1.111000, -0.132300
  1.113000, -0.141800
  1.115000, -0.150600
  1.117000, -0.158900
  1.119000, -0.166500
  1.121000, -0.173500
  1.123000, -0.180000
  1.125000, -0.186000
  1.127000, -0.191400
  1.129000, -0.196300
  1.131000, -0.200600
  1.133000, -0.204300
  1.135000, -0.207600
  1.137000, -0.210300
  1.139000, -0.212600
  1.141000, -0.214600
  1.143000, -0.216100
  1.145000, -0.217200
  1.147000, -0.217900
  1.149000, -0.218200
  1.151000, -0.218200
  1.153000, -0.217700
  1.155000, -0.217000
  1.157000, -0.216000
  1.159000, -0.214500
  1.161000, -0.212800
  1.163000, -0.210900
  1.165000, -0.208700
  1.167000, -0.206300
  1.169000, -0.203600
  1.171000, -0.200800
  1.173000, -0.197700
  1.175000, -0.194300
  1.177000, -0.190900
  1.179000, -0.187300
  1.181000, -0.183600
  1.183000, -0.179800
  1.185000, -0.175700
  1.187000, -0.171600
  1.189000, -0.167300
  1.191000, -0.163100
  1.193000, -0.158700
  1.195000, -0.154300
  1.197000, -0.149700
  1.199000, -0.145100
  1.201000, -0.140300
  1.203000, -0.135600
  1.205000, -0.130900
  1.207000, -0.126200
  1.209000, -0.121300
  1.211000, -0.116300
  1.213000, -0.111300
  1.215000, -0.106400
  1.217000, -0.101500
  1.219000, -0.096500
  1.221000, -0.091600
  1.223000, -0.086700
  1.225000, -0.081700
  1.227000, -0.076800
  1.229000, -0.071900
  1.231000, -0.066900
  1.233000, -0.061900
  1.235000, -0.057000
  1.237000, -0.052200
  1.239000, -0.047400
  1.241000, -0.042700
  1.243000, -0.038100
  1.245000, -0.033500
  1.247000, -0.028900
  1.249000, -0.024600
  1.251000, -0.020300
  1.253000, -0.016000
  1.255000, -0.011800
  1.257000, -0.007700
  1.259000, -0.003700
  1.261000,  0.000100
  1.263000,  0.003700
  1.265000,  0.007300
  1.267000,  0.010700
  1.269000,  0.014100
  1.271000,  0.017300
  1.273000,  0.020400
  1.275000,  0.023300
  1.277000,  0.026100
  1.279000,  0.028800
  1.281000,  0.031400
  1.283000,  0.033900
  1.285000,  0.036200
  1.287000,  0.038300
  1.289000,  0.040300
  1.291000,  0.042200
  1.293000,  0.043900
  1.295000,  0.045400
  1.297000,  0.046800
  1.299000,  0.047900
  1.301000,  0.048900
  1.303000,  0.049700
  1.305000,  0.050300
  1.307000,  0.050800
  1.309000,  0.051100
  1.311000,  0.051300
  1.313000,  0.051300
  1.315000,  0.051200
  1.317000,  0.050800
  1.319000,  0.050300
  1.321000,  0.049800
  1.323000,  0.049100
  1.325000,  0.048200
  1.327000,  0.047200
  1.329000,  0.046000
  1.331000,  0.044700
  1.333000,  0.043300
  1.335000,  0.041900
  1.337000,  0.040400
  1.339000,  0.038700
  1.341000,  0.036900
  1.343000,  0.035200
  1.345000,  0.033500
  1.347000,  0.031700
  1.349000,  0.030000
  1.351000,  0.028300
  1.353000,  0.026700
  1.355000,  0.025200
  1.357000,  0.023700
  1.359000,  0.022200
  1.361000,  0.020800
  1.363000,  0.019600
  1.365000,  0.018600
  1.367000,  0.017700
  1.369000,  0.016900
  1.371000,  0.016100
  1.373000,  0.015700
  1.375000,  0.015600
  1.377000,  0.015700
  1.379000,  0.016000
  1.381000,  0.016400
  1.383000,  0.017100
  1.385000,  0.018000
  1.387000,  0.019000
  1.389000,  0.020200
  1.391000,  0.021600
  1.393000,  0.023100
  1.395000,  0.024700
  1.397000,  0.026300
  1.399000,  0.027700
