# z (nm)   (kJ/mol)
  0.557000, 25.601200
  0.559000, 25.302000
  0.563000, 24.735800
  0.565000, 24.406700
  0.567000, 24.076600
  0.569000, 23.733400
  0.571000, 23.400900
  0.573000, 23.063200
  0.575000, 22.722000
  0.577000, 22.361300
  0.579000, 21.980000
  0.581000, 21.596500
  0.583000, 21.206000
  0.585000, 20.811600
  0.587000, 20.417800
  0.589000, 20.010000
  0.591000, 19.594700
  0.593000, 19.177300
  0.595000, 18.760700
  0.597000, 18.347000
  0.599000, 17.928800
  0.601000, 17.512800
  0.603000, 17.099900
  0.605000, 16.687000
  0.607000, 16.278400
  0.609000, 15.874800
  0.611000, 15.470800
  0.613000, 15.074100
  0.615000, 14.685200
  0.617000, 14.305700
  0.619000, 13.933300
  0.621000, 13.561200
  0.623000, 13.198200
  0.625000, 12.845100
  0.627000, 12.499100
  0.629000, 12.161100
  0.631000, 11.831200
  0.633000, 11.510000
  0.635000, 11.200700
  0.637000, 10.901000
  0.639000, 10.609200
  0.641000, 10.325300
  0.643000, 10.049900
  0.645000,  9.782000
  0.647000,  9.521700
  0.649000,  9.270100
  0.651000,  9.026500
  0.653000,  8.788500
  0.655000,  8.557800
  0.657000,  8.336600
  0.659000,  8.121300
  0.661000,  7.911200
  0.663000,  7.707300
  0.665000,  7.510300
  0.667000,  7.317800
  0.669000,  7.130700
  0.671000,  6.949800
  0.673000,  6.772400
  0.675000,  6.599200
  0.677000,  6.431000
  0.679000,  6.267500
  0.681000,  6.107400
  0.683000,  5.949600
  0.685000,  5.795000
  0.687000,  5.643500
  0.689000,  5.493800
  0.691000,  5.346900
  0.693000,  5.202200
  0.695000,  5.059000
  0.697000,  4.918000
  0.699000,  4.779300
  0.701000,  4.640600
  0.703000,  4.502100
  0.705000,  4.365700
  0.707000,  4.229700
  0.709000,  4.094100
  0.711000,  3.960200
  0.713000,  3.826600
  0.715000,  3.692000
  0.717000,  3.556200
  0.719000,  3.420900
  0.721000,  3.285800
  0.723000,  3.149900
  0.725000,  3.014600
  0.727000,  2.879500
  0.729000,  2.743700
  0.731000,  2.608600
  0.733000,  2.473700
  0.735000,  2.338400
  0.737000,  2.204100
  0.739000,  2.071000
  0.741000,  1.938000
  0.743000,  1.805800
  0.745000,  1.675500
  0.747000,  1.547000
  0.749000,  1.420300
  0.751000,  1.295100
  0.753000,  1.171800
  0.755000,  1.050300
  0.757000,  0.931400
  0.759000,  0.815600
  0.761000,  0.702700
  0.763000,  0.592900
  0.765000,  0.486400
  0.767000,  0.382800
  0.769000,  0.282700
  0.771000,  0.186900
  0.773000,  0.095000
  0.775000,  0.007200
  0.777000, -0.076300
  0.779000, -0.155500
  0.781000, -0.230300
  0.783000, -0.300400
  0.785000, -0.365900
  0.787000, -0.426800
  0.789000, -0.482900
  0.791000, -0.534100
  0.793000, -0.580900
  0.795000, -0.622900
  0.797000, -0.660200
  0.799000, -0.693100
  0.801000, -0.721600
  0.803000, -0.745600
  0.805000, -0.765100
  0.807000, -0.780600
  0.809000, -0.791700
  0.811000, -0.798500
  0.813000, -0.801500
  0.815000, -0.800800
  0.817000, -0.796500
  0.819000, -0.788800
  0.821000, -0.777900
  0.823000, -0.763800
  0.825000, -0.746600
  0.827000, -0.727000
  0.829000, -0.704600
  0.831000, -0.679700
  0.833000, -0.652600
  0.835000, -0.623600
  0.837000, -0.592800
  0.839000, -0.560300
  0.841000, -0.526400
  0.843000, -0.491200
  0.845000, -0.454900
  0.847000, -0.417700
  0.849000, -0.379600
  0.851000, -0.341000
  0.853000, -0.301900
  0.855000, -0.262400
  0.857000, -0.222800
  0.859000, -0.183100
  0.861000, -0.143400
  0.863000, -0.104000
  0.865000, -0.065000
  0.867000, -0.026300
  0.869000,  0.011800
  0.871000,  0.049700
  0.873000,  0.086800
  0.875000,  0.123300
  0.877000,  0.159200
  0.879000,  0.194300
  0.881000,  0.228400
  0.883000,  0.261700
  0.885000,  0.294100
  0.887000,  0.325800
  0.889000,  0.356500
  0.891000,  0.386200
  0.893000,  0.415000
  0.895000,  0.442900
  0.897000,  0.469700
  0.899000,  0.495700
  0.901000,  0.520700
  0.903000,  0.544700
  0.905000,  0.567800
  0.907000,  0.590100
  0.909000,  0.611600
  0.911000,  0.632400
  0.913000,  0.652300
  0.915000,  0.671400
  0.917000,  0.689900
  0.919000,  0.707500
  0.921000,  0.724300
  0.923000,  0.740600
  0.925000,  0.756200
  0.927000,  0.771200
  0.929000,  0.785500
  0.931000,  0.799300
  0.933000,  0.812400
  0.935000,  0.825000
  0.937000,  0.837100
  0.939000,  0.848600
  0.941000,  0.859700
  0.943000,  0.870300
  0.945000,  0.880200
  0.947000,  0.889700
  0.949000,  0.898700
  0.951000,  0.907100
  0.953000,  0.915000
  0.955000,  0.922600
  0.957000,  0.929800
  0.959000,  0.936500
  0.961000,  0.942700
  0.963000,  0.948200
  0.965000,  0.953300
  0.967000,  0.958000
  0.969000,  0.962100
  0.971000,  0.965700
  0.973000,  0.968700
  0.975000,  0.971100
  0.977000,  0.972900
  0.979000,  0.974200
  0.981000,  0.974800
  0.983000,  0.974800
  0.985000,  0.974200
  0.987000,  0.972900
  0.989000,  0.971000
  0.991000,  0.968300
  0.993000,  0.964800
  0.995000,  0.960800
  0.997000,  0.955900
  0.999000,  0.950300
  1.001000,  0.943900
  1.003000,  0.936800
  1.005000,  0.928900
  1.007000,  0.920300
  1.009000,  0.910900
  1.011000,  0.900700
  1.013000,  0.889600
  1.015000,  0.877700
  1.017000,  0.865000
  1.019000,  0.851500
  1.021000,  0.837200
  1.023000,  0.822200
  1.025000,  0.806500
  1.027000,  0.790100
  1.029000,  0.772900
  1.031000,  0.754800
  1.033000,  0.736200
  1.035000,  0.716900
  1.037000,  0.697000
  1.039000,  0.676600
  1.041000,  0.655700
  1.043000,  0.634100
  1.045000,  0.612000
  1.047000,  0.589500
  1.049000,  0.566600
  1.051000,  0.543200
  1.053000,  0.519400
  1.055000,  0.495500
  1.057000,  0.471300
  1.059000,  0.446900
  1.061000,  0.422400
  1.063000,  0.397500
  1.065000,  0.372500
  1.067000,  0.347400
  1.069000,  0.322500
  1.071000,  0.297600
  1.073000,  0.272700
  1.075000,  0.248000
  1.077000,  0.223400
  1.079000,  0.199000
  1.081000,  0.174800
  1.083000,  0.150700
  1.085000,  0.127000
  1.087000,  0.103800
  1.089000,  0.080900
  1.091000,  0.058400
  1.093000,  0.036300
  1.095000,  0.014600
  1.097000, -0.006500
  1.099000, -0.027100
  1.101000, -0.047200
  1.103000, -0.066700
  1.105000, -0.085700
  1.107000, -0.104100
  1.109000, -0.121800
  1.111000, -0.138800
  1.113000, -0.155100
  1.115000, -0.170700
  1.117000, -0.185700
  1.119000, -0.200000
  1.121000, -0.213500
  1.123000, -0.226400
  1.125000, -0.238400
  1.127000, -0.249700
  1.129000, -0.260300
  1.131000, -0.270100
  1.133000, -0.279100
  1.135000, -0.287400
  1.137000, -0.294900
  1.139000, -0.301600
  1.141000, -0.307600
  1.143000, -0.312900
  1.145000, -0.317400
  1.147000, -0.321100
  1.149000, -0.324200
  1.151000, -0.326500
  1.153000, -0.327900
  1.155000, -0.328700
  1.157000, -0.328700
  1.159000, -0.328100
  1.161000, -0.326800
  1.163000, -0.324900
  1.165000, -0.322300
  1.167000, -0.319200
  1.169000, -0.315400
  1.171000, -0.310900
  1.173000, -0.305900
  1.175000, -0.300400
  1.177000, -0.294400
  1.179000, -0.287800
  1.181000, -0.280700
  1.183000, -0.273100
  1.185000, -0.265100
  1.187000, -0.256800
  1.189000, -0.248200
  1.191000, -0.239200
  1.193000, -0.230000
  1.195000, -0.220600
  1.197000, -0.210900
  1.199000, -0.201100
  1.201000, -0.191000
  1.203000, -0.180900
  1.205000, -0.170600
  1.207000, -0.160100
  1.209000, -0.149700
  1.211000, -0.139300
  1.213000, -0.128900
  1.215000, -0.118600
  1.217000, -0.108300
  1.219000, -0.098100
  1.221000, -0.088200
  1.223000, -0.078600
  1.225000, -0.069000
  1.227000, -0.059700
  1.229000, -0.050500
  1.231000, -0.041600
  1.233000, -0.032900
  1.235000, -0.024500
  1.237000, -0.016500
  1.239000, -0.008800
  1.241000, -0.001400
  1.243000,  0.005500
  1.245000,  0.012200
  1.247000,  0.018600
  1.249000,  0.024600
  1.251000,  0.030200
  1.253000,  0.035400
  1.255000,  0.040300
  1.257000,  0.044800
  1.259000,  0.048900
  1.261000,  0.052800
  1.263000,  0.056200
  1.265000,  0.059300
  1.267000,  0.062100
  1.269000,  0.064400
  1.271000,  0.066400
  1.273000,  0.068200
  1.275000,  0.069600
  1.277000,  0.070800
  1.279000,  0.071600
  1.281000,  0.072100
  1.283000,  0.072300
  1.285000,  0.072200
  1.287000,  0.071900
  1.289000,  0.071400
  1.291000,  0.070600
  1.293000,  0.069500
  1.295000,  0.068300
  1.297000,  0.066800
  1.299000,  0.065100
  1.301000,  0.063100
  1.303000,  0.061000
  1.305000,  0.058700
  1.307000,  0.056200
  1.309000,  0.053400
  1.311000,  0.050400
  1.313000,  0.047400
  1.315000,  0.044300
  1.317000,  0.041100
  1.319000,  0.037900
  1.321000,  0.034500
  1.323000,  0.031000
  1.325000,  0.027400
  1.327000,  0.023800
  1.329000,  0.020300
  1.331000,  0.016900
  1.333000,  0.013400
  1.335000,  0.010000
  1.337000,  0.006600
  1.339000,  0.003200
  1.341000, -0.000000
  1.343000, -0.003100
  1.345000, -0.005900
  1.347000, -0.008700
  1.349000, -0.011300
  1.351000, -0.013600
  1.353000, -0.015700
  1.355000, -0.017500
  1.357000, -0.019100
  1.359000, -0.020400
  1.361000, -0.021400
  1.363000, -0.021900
  1.365000, -0.022200
  1.367000, -0.022100
  1.369000, -0.021800
  1.371000, -0.021000
  1.373000, -0.019900
  1.375000, -0.018400
  1.377000, -0.016500
  1.379000, -0.014300
  1.381000, -0.011800
  1.383000, -0.009000
  1.385000, -0.005800
  1.387000, -0.002200
  1.389000,  0.001500
  1.391000,  0.005300
  1.393000,  0.009200
  1.395000,  0.013100
  1.397000,  0.017300
  1.399000,  0.021400
