# z (nm)   (kJ/mol)
  0.523000, 25.375900
  0.525000, 24.999000
  0.527000, 24.611400
  0.529000, 24.232500
  0.531000, 23.849700
  0.533000, 23.449400
  0.535000, 23.046400
  0.537000, 22.637800
  0.539000, 22.211100
  0.541000, 21.775600
  0.543000, 21.336700
  0.545000, 20.894300
  0.547000, 20.449700
  0.549000, 20.008900
  0.551000, 19.570000
  0.553000, 19.131400
  0.555000, 18.700700
  0.557000, 18.266200
  0.559000, 17.821700
  0.561000, 17.379900
  0.563000, 16.948900
  0.565000, 16.524100
  0.567000, 16.100900
  0.569000, 15.679300
  0.571000, 15.270100
  0.573000, 14.870500
  0.575000, 14.469400
  0.577000, 14.074500
  0.579000, 13.686000
  0.581000, 13.308400
  0.583000, 12.944500
  0.585000, 12.589700
  0.587000, 12.240300
  0.589000, 11.898600
  0.591000, 11.568300
  0.593000, 11.246900
  0.595000, 10.936300
  0.597000, 10.635000
  0.599000, 10.341300
  0.601000, 10.055700
  0.603000,  9.780800
  0.605000,  9.517500
  0.607000,  9.263300
  0.609000,  9.016000
  0.611000,  8.777000
  0.613000,  8.546200
  0.615000,  8.322700
  0.617000,  8.107300
  0.619000,  7.897900
  0.621000,  7.697100
  0.623000,  7.504800
  0.625000,  7.317500
  0.627000,  7.136200
  0.629000,  6.961700
  0.631000,  6.793000
  0.633000,  6.629200
  0.635000,  6.470100
  0.637000,  6.316600
  0.639000,  6.167600
  0.641000,  6.021000
  0.643000,  5.878100
  0.645000,  5.740100
  0.647000,  5.605500
  0.649000,  5.474000
  0.651000,  5.344600
  0.653000,  5.217700
  0.655000,  5.093800
  0.657000,  4.972000
  0.659000,  4.852200
  0.661000,  4.734000
  0.663000,  4.616300
  0.665000,  4.500200
  0.667000,  4.386300
  0.669000,  4.272800
  0.671000,  4.159400
  0.673000,  4.046300
  0.675000,  3.932800
  0.677000,  3.819100
  0.679000,  3.705000
  0.681000,  3.590800
  0.683000,  3.476400
  0.685000,  3.362200
  0.687000,  3.247500
  0.689000,  3.131400
  0.691000,  3.015200
  0.693000,  2.899000
  0.695000,  2.782100
  0.697000,  2.665100
  0.699000,  2.548000
  0.701000,  2.430700
  0.703000,  2.313400
  0.705000,  2.195900
  0.707000,  2.077900
  0.709000,  1.960100
  0.711000,  1.843200
  0.713000,  1.726900
  0.715000,  1.611500
  0.717000,  1.496800
  0.719000,  1.382900
  0.721000,  1.270900
  0.723000,  1.160900
  0.725000,  1.052600
  0.727000,  0.945600
  0.729000,  0.840500
  0.731000,  0.737700
  0.733000,  0.637100
  0.735000,  0.539300
  0.737000,  0.444000
  0.739000,  0.351100
  0.741000,  0.261300
  0.743000,  0.174100
  0.745000,  0.089600
  0.747000,  0.008400
  0.749000, -0.069400
  0.751000, -0.144000
  0.753000, -0.215500
  0.755000, -0.283800
  0.757000, -0.348900
  0.759000, -0.410700
  0.761000, -0.469400
  0.763000, -0.524600
  0.765000, -0.576600
  0.767000, -0.625300
  0.769000, -0.670800
  0.771000, -0.713000
  0.773000, -0.752300
  0.775000, -0.788600
  0.777000, -0.821700
  0.779000, -0.851800
  0.781000, -0.879000
  0.783000, -0.903500
  0.785000, -0.925600
  0.787000, -0.945000
  0.789000, -0.961700
  0.791000, -0.976200
  0.793000, -0.988600
  0.795000, -0.998600
  0.797000, -1.006400
  0.799000, -1.012200
  0.801000, -1.016000
  0.803000, -1.018000
  0.805000, -1.018200
  0.807000, -1.017000
  0.809000, -1.014300
  0.811000, -1.010000
  0.813000, -1.004300
  0.815000, -0.997500
  0.817000, -0.989400
  0.819000, -0.980100
  0.821000, -0.969700
  0.823000, -0.958400
  0.825000, -0.946100
  0.827000, -0.932900
  0.829000, -0.919000
  0.831000, -0.904100
  0.833000, -0.888500
  0.835000, -0.872300
  0.837000, -0.855500
  0.839000, -0.838200
  0.841000, -0.820300
  0.843000, -0.801900
  0.845000, -0.783100
  0.847000, -0.763700
  0.849000, -0.743800
  0.851000, -0.723500
  0.853000, -0.702700
  0.855000, -0.681600
  0.857000, -0.660300
  0.859000, -0.638600
  0.861000, -0.616600
  0.863000, -0.594200
  0.865000, -0.571700
  0.867000, -0.548900
  0.869000, -0.525900
  0.871000, -0.502700
  0.873000, -0.479300
  0.875000, -0.455700
  0.877000, -0.432000
  0.879000, -0.408200
  0.881000, -0.384200
  0.883000, -0.360300
  0.885000, -0.336200
  0.887000, -0.312200
  0.889000, -0.288100
  0.891000, -0.264000
  0.893000, -0.240000
  0.895000, -0.216100
  0.897000, -0.192200
  0.899000, -0.168300
  0.901000, -0.144600
  0.903000, -0.121100
  0.905000, -0.097700
  0.907000, -0.074700
  0.909000, -0.051900
  0.911000, -0.029200
  0.913000, -0.006900
  0.915000,  0.015100
  0.917000,  0.036800
  0.919000,  0.058200
  0.921000,  0.079100
  0.923000,  0.099600
  0.925000,  0.119700
  0.927000,  0.139400
  0.929000,  0.158600
  0.931000,  0.177300
  0.933000,  0.195500
  0.935000,  0.213100
  0.937000,  0.230000
  0.939000,  0.246400
  0.941000,  0.262300
  0.943000,  0.277500
  0.945000,  0.292100
  0.947000,  0.306000
  0.949000,  0.319400
  0.951000,  0.332100
  0.953000,  0.344200
  0.955000,  0.355700
  0.957000,  0.366300
  0.959000,  0.376100
  0.961000,  0.385200
  0.963000,  0.393600
  0.965000,  0.401200
  0.967000,  0.408200
  0.969000,  0.414400
  0.971000,  0.420000
  0.973000,  0.425000
  0.975000,  0.429300
  0.977000,  0.432700
  0.979000,  0.435300
  0.981000,  0.437400
  0.983000,  0.438700
  0.985000,  0.439300
  0.987000,  0.439200
  0.989000,  0.438500
  0.991000,  0.437200
  0.993000,  0.435100
  0.995000,  0.432200
  0.997000,  0.428700
  0.999000,  0.424600
  1.001000,  0.420000
  1.003000,  0.414700
  1.005000,  0.408700
  1.007000,  0.402100
  1.009000,  0.395100
  1.011000,  0.387500
  1.013000,  0.379300
  1.015000,  0.370500
  1.017000,  0.361300
  1.019000,  0.351600
  1.021000,  0.341500
  1.023000,  0.330900
  1.025000,  0.319600
  1.027000,  0.308200
  1.029000,  0.296500
  1.031000,  0.284200
  1.033000,  0.271600
  1.035000,  0.258800
  1.037000,  0.245800
  1.039000,  0.232500
  1.041000,  0.218900
  1.043000,  0.205000
  1.045000,  0.190700
  1.047000,  0.176100
  1.049000,  0.161600
  1.051000,  0.147000
  1.053000,  0.132100
  1.055000,  0.117200
  1.057000,  0.102300
  1.059000,  0.087500
  1.061000,  0.072700
  1.063000,  0.057900
  1.065000,  0.043000
  1.067000,  0.028200
  1.069000,  0.013500
  1.071000, -0.001300
  1.073000, -0.015900
  1.075000, -0.030200
  1.077000, -0.044400
  1.079000, -0.058500
  1.081000, -0.072400
  1.083000, -0.086000
  1.085000, -0.099400
  1.087000, -0.112500
  1.089000, -0.125300
  1.091000, -0.137800
  1.093000, -0.149900
  1.095000, -0.161800
  1.097000, -0.173300
  1.099000, -0.184500
  1.101000, -0.195400
  1.103000, -0.205800
  1.105000, -0.215900
  1.107000, -0.225600
  1.109000, -0.234900
  1.111000, -0.243900
  1.113000, -0.252400
  1.115000, -0.260500
  1.117000, -0.268200
  1.119000, -0.275500
  1.121000, -0.282300
  1.123000, -0.288700
  1.125000, -0.294600
  1.127000, -0.300000
  1.129000, -0.305100
  1.131000, -0.309700
  1.133000, -0.313900
  1.135000, -0.317900
  1.137000, -0.321400
  1.139000, -0.324400
  1.141000, -0.327100
  1.143000, -0.329300
  1.145000, -0.331100
  1.147000, -0.332500
  1.149000, -0.333400
  1.151000, -0.333900
  1.153000, -0.334100
  1.155000, -0.334000
  1.157000, -0.333500
  1.159000, -0.332700
  1.161000, -0.331400
  1.163000, -0.329700
  1.165000, -0.327800
  1.167000, -0.325400
  1.169000, -0.322600
  1.171000, -0.319500
  1.173000, -0.316000
  1.175000, -0.312300
  1.177000, -0.308200
  1.179000, -0.303900
  1.181000, -0.299200
  1.183000, -0.294300
  1.185000, -0.289200
  1.187000, -0.283700
  1.189000, -0.277900
  1.191000, -0.272000
  1.193000, -0.265800
  1.195000, -0.259300
  1.197000, -0.252700
  1.199000, -0.245900
  1.201000, -0.239000
  1.203000, -0.231900
  1.205000, -0.224600
  1.207000, -0.217100
  1.209000, -0.209500
  1.211000, -0.201900
  1.213000, -0.194200
  1.215000, -0.186400
  1.217000, -0.178400
  1.219000, -0.170500
  1.221000, -0.162500
  1.223000, -0.154600
  1.225000, -0.146700
  1.227000, -0.138700
  1.229000, -0.130700
  1.231000, -0.122800
  1.233000, -0.114900
  1.235000, -0.107100
  1.237000, -0.099400
  1.239000, -0.091800
  1.241000, -0.084300
  1.243000, -0.077000
  1.245000, -0.069700
  1.247000, -0.062600
  1.249000, -0.055700
  1.251000, -0.048900
  1.253000, -0.042200
  1.255000, -0.035800
  1.257000, -0.029600
  1.259000, -0.023600
  1.261000, -0.017900
  1.263000, -0.012400
  1.265000, -0.007200
  1.267000, -0.002300
  1.269000,  0.002500
  1.271000,  0.007100
  1.273000,  0.011500
  1.275000,  0.015500
  1.277000,  0.019300
  1.279000,  0.022900
  1.281000,  0.026200
  1.283000,  0.029300
  1.285000,  0.032200
  1.287000,  0.034800
  1.289000,  0.037100
  1.291000,  0.039300
  1.293000,  0.041200
  1.295000,  0.042900
  1.297000,  0.044400
  1.299000,  0.045700
  1.301000,  0.046900
  1.303000,  0.047900
  1.305000,  0.048700
  1.307000,  0.049300
  1.309000,  0.049800
  1.311000,  0.050300
  1.313000,  0.050500
  1.315000,  0.050700
  1.317000,  0.050800
  1.319000,  0.050900
  1.321000,  0.051000
  1.323000,  0.051100
  1.325000,  0.051000
  1.327000,  0.051000
  1.329000,  0.051100
  1.331000,  0.051300
  1.333000,  0.051600
  1.335000,  0.051800
  1.337000,  0.052100
  1.339000,  0.052500
  1.341000,  0.053100
  1.343000,  0.053700
  1.345000,  0.054500
  1.347000,  0.055600
  1.349000,  0.056900
  1.351000,  0.058300
  1.353000,  0.059900
  1.355000,  0.061700
  1.357000,  0.063700
  1.359000,  0.065800
  1.361000,  0.068100
  1.363000,  0.070600
  1.365000,  0.073500
  1.367000,  0.076500
  1.369000,  0.079700
  1.371000,  0.083100
  1.373000,  0.086700
  1.375000,  0.090400
  1.377000,  0.094200
  1.379000,  0.098300
  1.381000,  0.102600
  1.383000,  0.106900
  1.385000,  0.111300
  1.387000,  0.115600
  1.389000,  0.119800
  1.391000,  0.124100
  1.393000,  0.128300
  1.395000,  0.132400
  1.397000,  0.136200
  1.399000,  0.139500
