# z (nm)   (kJ/mol)
  0.487000, 15.924100
  0.489000, 15.387700
  0.491000, 14.906400
  0.493000, 14.391900
  0.495000, 13.866100
  0.497000, 13.373400
  0.499000, 12.864500
  0.501000, 12.331200
  0.503000, 11.805600
  0.505000, 11.290000
  0.507000, 10.770600
  0.509000, 10.256600
  0.511000,  9.762000
  0.513000,  9.283300
  0.515000,  8.806300
  0.517000,  8.333100
  0.519000,  7.874900
  0.521000,  7.432100
  0.523000,  7.000200
  0.525000,  6.580400
  0.527000,  6.176100
  0.529000,  5.793400
  0.531000,  5.422900
  0.533000,  5.065300
  0.535000,  4.726800
  0.537000,  4.407000
  0.539000,  4.107800
  0.541000,  3.824800
  0.543000,  3.556800
  0.545000,  3.306800
  0.547000,  3.073200
  0.549000,  2.855500
  0.551000,  2.655400
  0.553000,  2.470900
  0.555000,  2.300400
  0.557000,  2.145300
  0.559000,  2.004900
  0.561000,  1.878400
  0.563000,  1.766800
  0.565000,  1.668800
  0.567000,  1.583300
  0.569000,  1.510000
  0.571000,  1.448300
  0.573000,  1.397900
  0.575000,  1.358300
  0.577000,  1.328200
  0.579000,  1.307500
  0.581000,  1.297000
  0.583000,  1.293600
  0.585000,  1.298000
  0.587000,  1.311600
  0.589000,  1.330100
  0.591000,  1.352700
  0.593000,  1.382000
  0.595000,  1.417900
  0.597000,  1.459300
  0.599000,  1.503900
  0.601000,  1.549900
  0.603000,  1.598700
  0.605000,  1.652300
  0.607000,  1.709900
  0.609000,  1.766500
  0.611000,  1.821000
  0.613000,  1.876900
  0.615000,  1.932100
  0.617000,  1.985400
  0.619000,  2.035100
  0.621000,  2.081400
  0.623000,  2.126300
  0.625000,  2.167500
  0.627000,  2.203800
  0.629000,  2.236000
  0.631000,  2.262000
  0.633000,  2.280700
  0.635000,  2.293500
  0.637000,  2.300600
  0.639000,  2.302500
  0.641000,  2.298600
  0.643000,  2.287500
  0.645000,  2.269600
  0.647000,  2.245600
  0.649000,  2.215500
  0.651000,  2.179400
  0.653000,  2.137100
  0.655000,  2.088800
  0.657000,  2.034900
  0.659000,  1.975600
  0.661000,  1.911700
  0.663000,  1.843700
  0.665000,  1.771000
  0.667000,  1.693600
  0.669000,  1.612400
  0.671000,  1.528300
  0.673000,  1.441200
  0.675000,  1.351400
  0.677000,  1.259200
  0.679000,  1.164700
  0.681000,  1.069300
  0.683000,  0.972900
  0.685000,  0.875500
  0.687000,  0.777900
  0.689000,  0.680000
  0.691000,  0.581900
  0.693000,  0.485000
  0.695000,  0.389200
  0.697000,  0.294200
  0.699000,  0.200100
  0.701000,  0.107500
  0.703000,  0.017100
  0.705000, -0.071300
  0.707000, -0.157500
  0.709000, -0.241300
  0.711000, -0.322000
  0.713000, -0.399800
  0.715000, -0.474500
  0.717000, -0.546100
  0.719000, -0.614800
  0.721000, -0.680100
  0.723000, -0.742000
  0.725000, -0.800800
  0.727000, -0.856000
  0.729000, -0.907500
  0.731000, -0.955600
  0.733000, -1.000100
  0.735000, -1.040900
  0.737000, -1.078400
  0.739000, -1.112500
  0.741000, -1.143100
  0.743000, -1.170400
  0.745000, -1.194400
  0.747000, -1.215300
  0.749000, -1.233000
  0.751000, -1.247600
  0.753000, -1.259100
  0.755000, -1.267500
  0.757000, -1.273000
  0.759000, -1.275700
  0.761000, -1.275900
  0.763000, -1.273600
  0.765000, -1.269100
  0.767000, -1.262200
  0.769000, -1.253000
  0.771000, -1.241600
  0.773000, -1.228200
  0.775000, -1.213100
  0.777000, -1.196200
  0.779000, -1.177600
  0.781000, -1.157500
  0.783000, -1.136000
  0.785000, -1.113400
  0.787000, -1.089500
  0.789000, -1.064500
  0.791000, -1.038500
  0.793000, -1.011600
  0.795000, -0.983800
  0.797000, -0.955200
  0.799000, -0.926100
  0.801000, -0.896400
  0.803000, -0.866100
  0.805000, -0.835300
  0.807000, -0.804400
  0.809000, -0.773300
  0.811000, -0.741700
  0.813000, -0.710000
  0.815000, -0.678300
  0.817000, -0.646600
  0.819000, -0.615000
  0.821000, -0.583400
  0.823000, -0.551900
  0.825000, -0.520600
  0.827000, -0.489400
  0.829000, -0.458600
  0.831000, -0.428100
  0.833000, -0.397800
  0.835000, -0.367800
  0.837000, -0.338300
  0.839000, -0.309200
  0.841000, -0.280500
  0.843000, -0.252300
  0.845000, -0.224400
  0.847000, -0.196900
  0.849000, -0.170100
  0.851000, -0.143800
  0.853000, -0.118000
  0.855000, -0.092900
  0.857000, -0.068300
  0.859000, -0.044300
  0.861000, -0.021000
  0.863000,  0.001600
  0.865000,  0.023700
  0.867000,  0.045200
  0.869000,  0.066200
  0.871000,  0.086300
  0.873000,  0.105800
  0.875000,  0.124500
  0.877000,  0.142600
  0.879000,  0.160000
  0.881000,  0.176800
  0.883000,  0.192800
  0.885000,  0.208300
  0.887000,  0.223000
  0.889000,  0.236900
  0.891000,  0.250300
  0.893000,  0.263000
  0.895000,  0.275200
  0.897000,  0.286600
  0.899000,  0.297300
  0.901000,  0.307300
  0.903000,  0.316600
  0.905000,  0.325300
  0.907000,  0.333400
  0.909000,  0.340900
  0.911000,  0.347800
  0.913000,  0.354000
  0.915000,  0.359500
  0.917000,  0.364500
  0.919000,  0.368800
  0.921000,  0.372500
  0.923000,  0.375700
  0.925000,  0.378200
  0.927000,  0.380200
  0.929000,  0.381700
  0.931000,  0.382500
  0.933000,  0.382700
  0.935000,  0.382400
  0.937000,  0.381700
  0.939000,  0.380300
  0.941000,  0.378400
  0.943000,  0.376100
  0.945000,  0.373200
  0.947000,  0.369800
  0.949000,  0.366000
  0.951000,  0.361700
  0.953000,  0.357000
  0.955000,  0.352000
  0.957000,  0.346500
  0.959000,  0.340600
  0.961000,  0.334300
  0.963000,  0.327500
  0.965000,  0.320400
  0.967000,  0.313000
  0.969000,  0.305400
  0.971000,  0.297400
  0.973000,  0.289000
  0.975000,  0.280400
  0.977000,  0.271600
  0.979000,  0.262500
  0.981000,  0.253100
  0.983000,  0.243600
  0.985000,  0.233800
  0.987000,  0.223800
  0.989000,  0.213700
  0.991000,  0.203400
  0.993000,  0.192900
  0.995000,  0.182300
  0.997000,  0.171500
  0.999000,  0.160700
  1.001000,  0.149900
  1.003000,  0.138900
  1.005000,  0.127800
  1.007000,  0.116600
  1.009000,  0.105400
  1.011000,  0.094200
  1.013000,  0.082900
  1.015000,  0.071400
  1.017000,  0.060000
  1.019000,  0.048700
  1.021000,  0.037300
  1.023000,  0.026000
  1.025000,  0.014900
  1.027000,  0.003700
  1.029000, -0.007400
  1.031000, -0.018400
  1.033000, -0.029400
  1.035000, -0.040200
  1.037000, -0.051000
  1.039000, -0.061700
  1.041000, -0.072400
  1.043000, -0.082800
  1.045000, -0.093100
  1.047000, -0.103200
  1.049000, -0.113200
  1.051000, -0.123000
  1.053000, -0.132600
  1.055000, -0.142100
  1.057000, -0.151200
  1.059000, -0.160200
  1.061000, -0.169000
  1.063000, -0.177500
  1.065000, -0.185600
  1.067000, -0.193500
  1.069000, -0.201300
  1.071000, -0.208700
  1.073000, -0.215800
  1.075000, -0.222600
  1.077000, -0.229100
  1.079000, -0.235400
  1.081000, -0.241200
  1.083000, -0.246800
  1.085000, -0.251900
  1.087000, -0.256700
  1.089000, -0.261200
  1.091000, -0.265400
  1.093000, -0.269100
  1.095000, -0.272600
  1.097000, -0.275600
  1.099000, -0.278400
  1.101000, -0.280700
  1.103000, -0.282700
  1.105000, -0.284400
  1.107000, -0.285600
  1.109000, -0.286500
  1.111000, -0.287100
  1.113000, -0.287300
  1.115000, -0.287100
  1.117000, -0.286600
  1.119000, -0.285800
  1.121000, -0.284600
  1.123000, -0.283100
  1.125000, -0.281300
  1.127000, -0.279200
  1.129000, -0.276800
  1.131000, -0.274200
  1.133000, -0.271300
  1.135000, -0.268100
  1.137000, -0.264700
  1.139000, -0.260900
  1.141000, -0.257000
  1.143000, -0.252700
  1.145000, -0.248300
  1.147000, -0.243600
  1.149000, -0.238800
  1.151000, -0.233900
  1.153000, -0.228800
  1.155000, -0.223500
  1.157000, -0.218100
  1.159000, -0.212500
  1.161000, -0.206700
  1.163000, -0.200800
  1.165000, -0.194700
  1.167000, -0.188600
  1.169000, -0.182300
  1.171000, -0.176000
  1.173000, -0.169500
  1.175000, -0.162900
  1.177000, -0.156200
  1.179000, -0.149400
  1.181000, -0.142600
  1.183000, -0.135800
  1.185000, -0.128800
  1.187000, -0.121700
  1.189000, -0.114600
  1.191000, -0.107400
  1.193000, -0.100200
  1.195000, -0.092900
  1.197000, -0.085700
  1.199000, -0.078400
  1.201000, -0.071200
  1.203000, -0.063900
  1.205000, -0.056600
  1.207000, -0.049200
  1.209000, -0.042000
  1.211000, -0.034800
  1.213000, -0.027500
  1.215000, -0.020500
  1.217000, -0.013500
  1.219000, -0.006500
  1.221000,  0.000300
  1.223000,  0.007100
  1.225000,  0.013800
  1.227000,  0.020200
  1.229000,  0.026400
  1.231000,  0.032500
  1.233000,  0.038300
  1.235000,  0.044100
  1.237000,  0.049500
  1.239000,  0.054800
  1.241000,  0.059800
  1.243000,  0.064400
  1.245000,  0.068800
  1.247000,  0.073000
  1.249000,  0.076800
  1.251000,  0.080200
  1.253000,  0.083300
  1.255000,  0.086200
  1.257000,  0.088600
  1.259000,  0.090700
  1.261000,  0.092500
  1.263000,  0.093900
  1.265000,  0.094800
  1.267000,  0.095300
  1.269000,  0.095400
  1.271000,  0.095100
  1.273000,  0.094500
  1.275000,  0.093500
  1.277000,  0.092100
  1.279000,  0.090400
  1.281000,  0.088300
  1.283000,  0.085900
  1.285000,  0.083100
  1.287000,  0.080000
  1.289000,  0.076500
  1.291000,  0.072600
  1.293000,  0.068500
  1.295000,  0.064100
  1.297000,  0.059400
  1.299000,  0.054600
  1.301000,  0.049500
  1.303000,  0.044100
  1.305000,  0.038600
  1.307000,  0.033000
  1.309000,  0.027400
  1.311000,  0.021600
  1.313000,  0.015700
  1.315000,  0.009800
  1.317000,  0.003900
  1.319000, -0.002100
  1.321000, -0.008100
  1.323000, -0.014000
  1.325000, -0.019800
  1.327000, -0.025500
  1.329000, -0.030900
  1.331000, -0.036300
  1.333000, -0.041400
  1.335000, -0.046400
  1.337000, -0.051200
  1.339000, -0.055900
  1.341000, -0.060200
  1.343000, -0.064100
  1.345000, -0.067700
  1.347000, -0.071100
  1.349000, -0.074100
  1.351000, -0.076900
  1.353000, -0.079300
  1.355000, -0.081400
  1.357000, -0.083000
  1.359000, -0.084300
  1.361000, -0.085300
  1.363000, -0.086000
  1.365000, -0.086300
  1.367000, -0.086400
  1.369000, -0.086000
  1.371000, -0.085300
  1.373000, -0.084300
  1.375000, -0.083000
  1.377000, -0.081500
  1.379000, -0.079800
  1.381000, -0.077800
  1.383000, -0.075400
  1.385000, -0.072900
  1.387000, -0.070100
  1.389000, -0.067000
  1.391000, -0.064200
  1.393000, -0.061400
  1.395000, -0.058900
  1.397000, -0.056700
  1.399000, -0.054500
