# z (nm)   (kJ/mol)
  0.5690   27.43540
  0.5730   26.52520
  0.5750   26.08810
  0.5770   25.62950
  0.5790   25.17060
  0.5810   24.70390
  0.5830   24.23180
  0.5850   23.75350
  0.5870   23.27400
  0.5890   22.79590
  0.5910   22.30690
  0.5930   21.81300
  0.5950   21.32280
  0.5970   20.83760
  0.5990   20.35520
  0.6010   19.87060
  0.6030   19.39210
  0.6050   18.92140
  0.6070   18.45440
  0.6090   17.99050
  0.6110   17.52970
  0.6130   17.07340
  0.6150   16.62300
  0.6170   16.18550
  0.6190   15.75880
  0.6210   15.34190
  0.6230   14.93190
  0.6250   14.52510
  0.6270   14.12400
  0.6290   13.72990
  0.6310   13.34040
  0.6330   12.95460
  0.6350   12.57380
  0.6370   12.19910
  0.6390   11.83080
  0.6410   11.46430
  0.6430   11.10200
  0.6450   10.74370
  0.6470   10.38820
  0.6490   10.03810
  0.6510    9.69250
  0.6530    9.35250
  0.6550    9.01800
  0.6570    8.68760
  0.6590    8.36250
  0.6610    8.04150
  0.6630    7.72500
  0.6650    7.41210
  0.6670    7.10470
  0.6690    6.80180
  0.6710    6.50420
  0.6730    6.21330
  0.6750    5.92610
  0.6770    5.64220
  0.6790    5.36430
  0.6810    5.09300
  0.6830    4.82440
  0.6850    4.55860
  0.6870    4.29870
  0.6890    4.04640
  0.6910    3.79990
  0.6930    3.55750
  0.6950    3.31680
  0.6970    3.08200
  0.6990    2.85550
  0.7010    2.63550
  0.7030    2.42270
  0.7050    2.21680
  0.7070    2.01760
  0.7090    1.82490
  0.7110    1.63850
  0.7130    1.45910
  0.7150    1.28780
  0.7170    1.12370
  0.7190    0.96640
  0.7210    0.81700
  0.7230    0.67610
  0.7250    0.54220
  0.7270    0.41540
  0.7290    0.29630
  0.7310    0.18540
  0.7330    0.08220
  0.7350   -0.01350
  0.7370   -0.10190
  0.7390   -0.18320
  0.7410   -0.25740
  0.7430   -0.32470
  0.7450   -0.38530
  0.7470   -0.43920
  0.7490   -0.48640
  0.7510   -0.52720
  0.7530   -0.56230
  0.7550   -0.59190
  0.7570   -0.61610
  0.7590   -0.63490
  0.7610   -0.64930
  0.7630   -0.66020
  0.7650   -0.66720
  0.7670   -0.67000
  0.7690   -0.66940
  0.7710   -0.66600
  0.7730   -0.66050
  0.7750   -0.65300
  0.7770   -0.64370
  0.7790   -0.63370
  0.7810   -0.62310
  0.7830   -0.61230
  0.7850   -0.60090
  0.7870   -0.58930
  0.7890   -0.57870
  0.7910   -0.56880
  0.7930   -0.56010
  0.7950   -0.55270
  0.7970   -0.54620
  0.7990   -0.54130
  0.8010   -0.53820
  0.8030   -0.53690
  0.8050   -0.53790
  0.8070   -0.54100
  0.8090   -0.54630
  0.8110   -0.55380
  0.8130   -0.56350
  0.8150   -0.57550
  0.8170   -0.58970
  0.8190   -0.60620
  0.8210   -0.62450
  0.8230   -0.64440
  0.8250   -0.66660
  0.8270   -0.69050
  0.8290   -0.71600
  0.8310   -0.74280
  0.8330   -0.77100
  0.8350   -0.80040
  0.8370   -0.83100
  0.8390   -0.86250
  0.8410   -0.89460
  0.8430   -0.92750
  0.8450   -0.96060
  0.8470   -0.99360
  0.8490   -1.02640
  0.8510   -1.05950
  0.8530   -1.09240
  0.8550   -1.12470
  0.8570   -1.15620
  0.8590   -1.18690
  0.8610   -1.21700
  0.8630   -1.24600
  0.8650   -1.27370
  0.8670   -1.30050
  0.8690   -1.32630
  0.8710   -1.35060
  0.8730   -1.37330
  0.8750   -1.39440
  0.8770   -1.41370
  0.8790   -1.43130
  0.8810   -1.44720
  0.8830   -1.46130
  0.8850   -1.47350
  0.8870   -1.48400
  0.8890   -1.49270
  0.8910   -1.49950
  0.8930   -1.50470
  0.8950   -1.50810
  0.8970   -1.50970
  0.8990   -1.50950
  0.9010   -1.50770
  0.9030   -1.50420
  0.9050   -1.49930
  0.9070   -1.49300
  0.9090   -1.48520
  0.9110   -1.47570
  0.9130   -1.46490
  0.9150   -1.45280
  0.9170   -1.43950
  0.9190   -1.42500
  0.9210   -1.40950
  0.9230   -1.39290
  0.9250   -1.37520
  0.9270   -1.35670
  0.9290   -1.33720
  0.9310   -1.31690
  0.9330   -1.29580
  0.9350   -1.27400
  0.9370   -1.25180
  0.9390   -1.22890
  0.9410   -1.20520
  0.9430   -1.18120
  0.9450   -1.15680
  0.9470   -1.13200
  0.9490   -1.10700
  0.9510   -1.08150
  0.9530   -1.05590
  0.9550   -1.03010
  0.9570   -1.00400
  0.9590   -0.97790
  0.9610   -0.95170
  0.9630   -0.92540
  0.9650   -0.89920
  0.9670   -0.87280
  0.9690   -0.84650
  0.9710   -0.82020
  0.9730   -0.79380
  0.9750   -0.76750
  0.9770   -0.74130
  0.9790   -0.71510
  0.9810   -0.68920
  0.9830   -0.66340
  0.9850   -0.63780
  0.9870   -0.61230
  0.9890   -0.58700
  0.9910   -0.56190
  0.9930   -0.53690
  0.9950   -0.51210
  0.9970   -0.48760
  0.9990   -0.46330
  1.0010   -0.43930
  1.0030   -0.41560
  1.0050   -0.39220
  1.0070   -0.36900
  1.0090   -0.34620
  1.0110   -0.32380
  1.0130   -0.30170
  1.0150   -0.28000
  1.0170   -0.25860
  1.0190   -0.23740
  1.0210   -0.21670
  1.0230   -0.19650
  1.0250   -0.17670
  1.0270   -0.15730
  1.0290   -0.13830
  1.0310   -0.11990
  1.0330   -0.10200
  1.0350   -0.08450
  1.0370   -0.06760
  1.0390   -0.05110
  1.0410   -0.03510
  1.0430   -0.01960
  1.0450   -0.00470
  1.0470    0.00960
  1.0490    0.02320
  1.0510    0.03630
  1.0530    0.04880
  1.0550    0.06060
  1.0570    0.07160
  1.0590    0.08200
  1.0610    0.09200
  1.0630    0.10150
  1.0650    0.11010
  1.0670    0.11810
  1.0690    0.12550
  1.0710    0.13210
  1.0730    0.13800
  1.0750    0.14310
  1.0770    0.14740
  1.0790    0.15120
  1.0810    0.15440
  1.0830    0.15690
  1.0850    0.15870
  1.0870    0.15970
  1.0890    0.16020
  1.0910    0.16010
  1.0930    0.15940
  1.0950    0.15810
  1.0970    0.15630
  1.0990    0.15390
  1.1010    0.15100
  1.1030    0.14750
  1.1050    0.14350
  1.1070    0.13910
  1.1090    0.13420
  1.1110    0.12880
  1.1130    0.12310
  1.1150    0.11700
  1.1170    0.11060
  1.1190    0.10380
  1.1210    0.09660
  1.1230    0.08910
  1.1250    0.08140
  1.1270    0.07360
  1.1290    0.06560
  1.1310    0.05740
  1.1330    0.04910
  1.1350    0.04060
  1.1370    0.03200
  1.1390    0.02340
  1.1410    0.01460
  1.1430    0.00590
  1.1450   -0.00290
  1.1470   -0.01160
  1.1490   -0.02020
  1.1510   -0.02870
  1.1530   -0.03720
  1.1550   -0.04550
  1.1570   -0.05370
  1.1590   -0.06190
  1.1610   -0.07000
  1.1630   -0.07790
  1.1650   -0.08550
  1.1670   -0.09310
  1.1690   -0.10030
  1.1710   -0.10730
  1.1730   -0.11410
  1.1750   -0.12090
  1.1770   -0.12740
  1.1790   -0.13360
  1.1810   -0.13960
  1.1830   -0.14530
  1.1850   -0.15080
  1.1870   -0.15600
  1.1890   -0.16110
  1.1910   -0.16580
  1.1930   -0.17020
  1.1950   -0.17450
  1.1970   -0.17860
  1.1990   -0.18230
  1.2010   -0.18580
  1.2030   -0.18890
  1.2050   -0.19160
  1.2070   -0.19420
  1.2090   -0.19640
  1.2110   -0.19850
  1.2130   -0.20020
  1.2150   -0.20150
  1.2170   -0.20260
  1.2190   -0.20350
  1.2210   -0.20400
  1.2230   -0.20420
  1.2250   -0.20410
  1.2270   -0.20380
  1.2290   -0.20310
  1.2310   -0.20230
  1.2330   -0.20110
  1.2350   -0.19960
  1.2370   -0.19770
  1.2390   -0.19570
  1.2410   -0.19330
  1.2430   -0.19060
  1.2450   -0.18770
  1.2470   -0.18440
  1.2490   -0.18090
  1.2510   -0.17710
  1.2530   -0.17300
  1.2550   -0.16860
  1.2570   -0.16390
  1.2590   -0.15890
  1.2610   -0.15370
  1.2630   -0.14830
  1.2650   -0.14250
  1.2670   -0.13660
  1.2690   -0.13040
  1.2710   -0.12410
  1.2730   -0.11760
  1.2750   -0.11090
  1.2770   -0.10400
  1.2790   -0.09700
  1.2810   -0.08980
  1.2830   -0.08250
  1.2850   -0.07510
  1.2870   -0.06760
  1.2890   -0.05990
  1.2910   -0.05210
  1.2930   -0.04450
  1.2950   -0.03670
  1.2970   -0.02880
  1.2990   -0.02100
  1.3010   -0.01320
  1.3030   -0.00540
  1.3050    0.00240
  1.3070    0.01010
  1.3090    0.01790
  1.3110    0.02570
  1.3130    0.03350
  1.3150    0.04110
  1.3170    0.04860
  1.3190    0.05600
  1.3210    0.06330
  1.3230    0.07070
  1.3250    0.07780
  1.3270    0.08490
  1.3290    0.09190
  1.3310    0.09890
  1.3330    0.10580
  1.3350    0.11250
  1.3370    0.11920
  1.3390    0.12590
  1.3410    0.13260
  1.3430    0.13920
  1.3450    0.14560
  1.3470    0.15190
  1.3490    0.15810
  1.3510    0.16440
  1.3530    0.17050
  1.3550    0.17660
  1.3570    0.18270
  1.3590    0.18870
  1.3610    0.19460
  1.3630    0.20050
  1.3650    0.20660
  1.3670    0.21270
  1.3690    0.21890
  1.3710    0.22500
  1.3730    0.23120
  1.3750    0.23740
  1.3770    0.24340
  1.3790    0.24940
  1.3810    0.25570
  1.3830    0.26210
  1.3850    0.26840
  1.3870    0.27470
  1.3890    0.28060
  1.3910    0.28640
  1.3930    0.29220
  1.3950    0.29790
  1.3970    0.30340
  1.3990    0.30850
