# z (nm)   (kJ/mol)
  0.565000, 23.013100
  0.567000, 22.690500
  0.569000, 22.346400
  0.571000, 22.031700
  0.573000, 21.707300
  0.575000, 21.366400
  0.577000, 21.017800
  0.579000, 20.664100
  0.581000, 20.309500
  0.583000, 19.939100
  0.585000, 19.565100
  0.587000, 19.183100
  0.589000, 18.796200
  0.591000, 18.416100
  0.593000, 18.028000
  0.595000, 17.628100
  0.597000, 17.235300
  0.599000, 16.843100
  0.601000, 16.438800
  0.603000, 16.030800
  0.605000, 15.626300
  0.607000, 15.224000
  0.609000, 14.826300
  0.611000, 14.427900
  0.613000, 14.031700
  0.615000, 13.640800
  0.617000, 13.244400
  0.619000, 12.849400
  0.621000, 12.455700
  0.623000, 12.067900
  0.625000, 11.686100
  0.627000, 11.300600
  0.629000, 10.917200
  0.631000, 10.537300
  0.633000, 10.157900
  0.635000,  9.779600
  0.637000,  9.404900
  0.639000,  9.031700
  0.641000,  8.660000
  0.643000,  8.292900
  0.645000,  7.932000
  0.647000,  7.581400
  0.649000,  7.238500
  0.651000,  6.897500
  0.653000,  6.561500
  0.655000,  6.232400
  0.657000,  5.907800
  0.659000,  5.588300
  0.661000,  5.277100
  0.663000,  4.973900
  0.665000,  4.676600
  0.667000,  4.387600
  0.669000,  4.106300
  0.671000,  3.832800
  0.673000,  3.569700
  0.675000,  3.318300
  0.677000,  3.077100
  0.679000,  2.845600
  0.681000,  2.623300
  0.683000,  2.411800
  0.685000,  2.211300
  0.687000,  2.020100
  0.689000,  1.838500
  0.691000,  1.666400
  0.693000,  1.503800
  0.695000,  1.349800
  0.697000,  1.204300
  0.699000,  1.067500
  0.701000,  0.939300
  0.703000,  0.818400
  0.705000,  0.704400
  0.707000,  0.596800
  0.709000,  0.495500
  0.711000,  0.400600
  0.713000,  0.311500
  0.715000,  0.227600
  0.717000,  0.148300
  0.719000,  0.074300
  0.721000,  0.005100
  0.723000, -0.060500
  0.725000, -0.120800
  0.727000, -0.175600
  0.729000, -0.226600
  0.731000, -0.274700
  0.733000, -0.320100
  0.735000, -0.362100
  0.737000, -0.400400
  0.739000, -0.434800
  0.741000, -0.466500
  0.743000, -0.496500
  0.745000, -0.523900
  0.747000, -0.548600
  0.749000, -0.570700
  0.751000, -0.590700
  0.753000, -0.609300
  0.755000, -0.627000
  0.757000, -0.643900
  0.759000, -0.659000
  0.761000, -0.673400
  0.763000, -0.686900
  0.765000, -0.699800
  0.767000, -0.712300
  0.769000, -0.724100
  0.771000, -0.735900
  0.773000, -0.747200
  0.775000, -0.758500
  0.777000, -0.770500
  0.779000, -0.782400
  0.781000, -0.794500
  0.783000, -0.807300
  0.785000, -0.820500
  0.787000, -0.833600
  0.789000, -0.847800
  0.791000, -0.862600
  0.793000, -0.877700
  0.795000, -0.893100
  0.797000, -0.909200
  0.799000, -0.925900
  0.801000, -0.942700
  0.803000, -0.960200
  0.805000, -0.978300
  0.807000, -0.996500
  0.809000, -1.014900
  0.811000, -1.033400
  0.813000, -1.052300
  0.815000, -1.071400
  0.817000, -1.090500
  0.819000, -1.109300
  0.821000, -1.127900
  0.823000, -1.146500
  0.825000, -1.164700
  0.827000, -1.182300
  0.829000, -1.199800
  0.831000, -1.216900
  0.833000, -1.233300
  0.835000, -1.249100
  0.837000, -1.264300
  0.839000, -1.278600
  0.841000, -1.291800
  0.843000, -1.304400
  0.845000, -1.316300
  0.847000, -1.327300
  0.849000, -1.337300
  0.851000, -1.346200
  0.853000, -1.353900
  0.855000, -1.360500
  0.857000, -1.366500
  0.859000, -1.371500
  0.861000, -1.375200
  0.863000, -1.377700
  0.865000, -1.379100
  0.867000, -1.379400
  0.869000, -1.378800
  0.871000, -1.377100
  0.873000, -1.374200
  0.875000, -1.370000
  0.877000, -1.364800
  0.879000, -1.358700
  0.881000, -1.351500
  0.883000, -1.343400
  0.885000, -1.334300
  0.887000, -1.323900
  0.889000, -1.312900
  0.891000, -1.301100
  0.893000, -1.288300
  0.895000, -1.274800
  0.897000, -1.260500
  0.899000, -1.245400
  0.901000, -1.229500
  0.903000, -1.212900
  0.905000, -1.195600
  0.907000, -1.177800
  0.909000, -1.159200
  0.911000, -1.139900
  0.913000, -1.120200
  0.915000, -1.100000
  0.917000, -1.079300
  0.919000, -1.058200
  0.921000, -1.036700
  0.923000, -1.014800
  0.925000, -0.992500
  0.927000, -0.969900
  0.929000, -0.947000
  0.931000, -0.923800
  0.933000, -0.900400
  0.935000, -0.876800
  0.937000, -0.852900
  0.939000, -0.828800
  0.941000, -0.804700
  0.943000, -0.780400
  0.945000, -0.756100
  0.947000, -0.731800
  0.949000, -0.707600
  0.951000, -0.683300
  0.953000, -0.659100
  0.955000, -0.635100
  0.957000, -0.611200
  0.959000, -0.587700
  0.961000, -0.564200
  0.963000, -0.541000
  0.965000, -0.517900
  0.967000, -0.495200
  0.969000, -0.472900
  0.971000, -0.451100
  0.973000, -0.429600
  0.975000, -0.408600
  0.977000, -0.387900
  0.979000, -0.367700
  0.981000, -0.348200
  0.983000, -0.329500
  0.985000, -0.311200
  0.987000, -0.293400
  0.989000, -0.276300
  0.991000, -0.259800
  0.993000, -0.244000
  0.995000, -0.228800
  0.997000, -0.214200
  0.999000, -0.200400
  1.001000, -0.187200
  1.003000, -0.174600
  1.005000, -0.162900
  1.007000, -0.151800
  1.009000, -0.141500
  1.011000, -0.131800
  1.013000, -0.122800
  1.015000, -0.114600
  1.017000, -0.107100
  1.019000, -0.100200
  1.021000, -0.094000
  1.023000, -0.088600
  1.025000, -0.083800
  1.027000, -0.079400
  1.029000, -0.075800
  1.031000, -0.072700
  1.033000, -0.070200
  1.035000, -0.068300
  1.037000, -0.067000
  1.039000, -0.066200
  1.041000, -0.066000
  1.043000, -0.066200
  1.045000, -0.066800
  1.047000, -0.067800
  1.049000, -0.069400
  1.051000, -0.071200
  1.053000, -0.073400
  1.055000, -0.075900
  1.057000, -0.078800
  1.059000, -0.081900
  1.061000, -0.085300
  1.063000, -0.088900
  1.065000, -0.092700
  1.067000, -0.096700
  1.069000, -0.100800
  1.071000, -0.105000
  1.073000, -0.109500
  1.075000, -0.114000
  1.077000, -0.118500
  1.079000, -0.123100
  1.081000, -0.127900
  1.083000, -0.132700
  1.085000, -0.137500
  1.087000, -0.142100
  1.089000, -0.146600
  1.091000, -0.151300
  1.093000, -0.155800
  1.095000, -0.160300
  1.097000, -0.164800
  1.099000, -0.169200
  1.101000, -0.173400
  1.103000, -0.177600
  1.105000, -0.181700
  1.107000, -0.185700
  1.109000, -0.189500
  1.111000, -0.193200
  1.113000, -0.196700
  1.115000, -0.200200
  1.117000, -0.203500
  1.119000, -0.206700
  1.121000, -0.209900
  1.123000, -0.212800
  1.125000, -0.215700
  1.127000, -0.218400
  1.129000, -0.220900
  1.131000, -0.223300
  1.133000, -0.225600
  1.135000, -0.227800
  1.137000, -0.229700
  1.139000, -0.231400
  1.141000, -0.233100
  1.143000, -0.234700
  1.145000, -0.236100
  1.147000, -0.237500
  1.149000, -0.238700
  1.151000, -0.239900
  1.153000, -0.240800
  1.155000, -0.241600
  1.157000, -0.242300
  1.159000, -0.242800
  1.161000, -0.243300
  1.163000, -0.243600
  1.165000, -0.243800
  1.167000, -0.243900
  1.169000, -0.243700
  1.171000, -0.243300
  1.173000, -0.242900
  1.175000, -0.242300
  1.177000, -0.241600
  1.179000, -0.240700
  1.181000, -0.239600
  1.183000, -0.238400
  1.185000, -0.237100
  1.187000, -0.235600
  1.189000, -0.233900
  1.191000, -0.232000
  1.193000, -0.229800
  1.195000, -0.227600
  1.197000, -0.225200
  1.199000, -0.222600
  1.201000, -0.219900
  1.203000, -0.217100
  1.205000, -0.214000
  1.207000, -0.210700
  1.209000, -0.207300
  1.211000, -0.203800
  1.213000, -0.200100
  1.215000, -0.196200
  1.217000, -0.192100
  1.219000, -0.188000
  1.221000, -0.183800
  1.223000, -0.179500
  1.225000, -0.175200
  1.227000, -0.170800
  1.229000, -0.166200
  1.231000, -0.161400
  1.233000, -0.156700
  1.235000, -0.151900
  1.237000, -0.146900
  1.239000, -0.141900
  1.241000, -0.136800
  1.243000, -0.131700
  1.245000, -0.126600
  1.247000, -0.121500
  1.249000, -0.116400
  1.251000, -0.111200
  1.253000, -0.106000
  1.255000, -0.100900
  1.257000, -0.095900
  1.259000, -0.090800
  1.261000, -0.085700
  1.263000, -0.080600
  1.265000, -0.075700
  1.267000, -0.070700
  1.269000, -0.065700
  1.271000, -0.060800
  1.273000, -0.055900
  1.275000, -0.051000
  1.277000, -0.046300
  1.279000, -0.041700
  1.281000, -0.036900
  1.283000, -0.032200
  1.285000, -0.027500
  1.287000, -0.022900
  1.289000, -0.018300
  1.291000, -0.013800
  1.293000, -0.009300
  1.295000, -0.004800
  1.297000, -0.000400
  1.299000,  0.004100
  1.301000,  0.008500
  1.303000,  0.012800
  1.305000,  0.017000
  1.307000,  0.021300
  1.309000,  0.025700
  1.311000,  0.030100
  1.313000,  0.034300
  1.315000,  0.038500
  1.317000,  0.042700
  1.319000,  0.046900
  1.321000,  0.051100
  1.323000,  0.055300
  1.325000,  0.059500
  1.327000,  0.063800
  1.329000,  0.068100
  1.331000,  0.072200
  1.333000,  0.076400
  1.335000,  0.080700
  1.337000,  0.085000
  1.339000,  0.089200
  1.341000,  0.093500
  1.343000,  0.097900
  1.345000,  0.102300
  1.347000,  0.106800
  1.349000,  0.111200
  1.351000,  0.115600
  1.353000,  0.120200
  1.355000,  0.124700
  1.357000,  0.129300
  1.359000,  0.134100
  1.361000,  0.138800
  1.363000,  0.143600
  1.365000,  0.148400
  1.367000,  0.153400
  1.369000,  0.158300
  1.371000,  0.163300
  1.373000,  0.168300
  1.375000,  0.173500
  1.377000,  0.178700
  1.379000,  0.183900
  1.381000,  0.189200
  1.383000,  0.194400
  1.385000,  0.199600
  1.387000,  0.204800
  1.389000,  0.209900
  1.391000,  0.215000
  1.393000,  0.220000
  1.395000,  0.224900
  1.397000,  0.229500
  1.399000,  0.233800
