# z (nm)   (kJ/mol)
  0.529000, 24.506900
  0.533000, 24.195700
  0.537000, 23.547700
  0.539000, 23.247800
  0.541000, 22.913900
  0.543000, 22.580800
  0.545000, 22.234000
  0.547000, 21.881900
  0.549000, 21.513900
  0.551000, 21.132500
  0.553000, 20.743700
  0.555000, 20.346900
  0.557000, 19.945900
  0.559000, 19.545300
  0.561000, 19.144500
  0.563000, 18.743100
  0.565000, 18.340700
  0.567000, 17.939900
  0.569000, 17.537200
  0.571000, 17.138900
  0.573000, 16.741000
  0.575000, 16.338300
  0.577000, 15.941900
  0.579000, 15.552300
  0.581000, 15.167900
  0.583000, 14.789100
  0.585000, 14.417700
  0.587000, 14.051200
  0.589000, 13.687900
  0.591000, 13.333100
  0.593000, 12.985000
  0.595000, 12.641900
  0.597000, 12.310200
  0.599000, 11.990700
  0.601000, 11.681700
  0.603000, 11.379700
  0.605000, 11.087000
  0.607000, 10.799900
  0.609000, 10.517800
  0.611000, 10.245500
  0.613000,  9.983100
  0.615000,  9.728000
  0.617000,  9.480300
  0.619000,  9.240500
  0.621000,  9.009000
  0.623000,  8.785500
  0.625000,  8.566600
  0.627000,  8.356800
  0.629000,  8.152900
  0.631000,  7.953400
  0.633000,  7.759500
  0.635000,  7.570200
  0.637000,  7.386700
  0.639000,  7.208400
  0.641000,  7.033600
  0.643000,  6.862800
  0.645000,  6.696900
  0.647000,  6.534900
  0.649000,  6.375000
  0.651000,  6.218300
  0.653000,  6.064500
  0.655000,  5.912800
  0.657000,  5.764200
  0.659000,  5.617500
  0.661000,  5.472000
  0.663000,  5.328500
  0.665000,  5.186800
  0.667000,  5.046800
  0.669000,  4.908000
  0.671000,  4.769500
  0.673000,  4.631500
  0.675000,  4.493800
  0.677000,  4.355800
  0.679000,  4.217900
  0.681000,  4.080700
  0.683000,  3.943800
  0.685000,  3.807200
  0.687000,  3.670500
  0.689000,  3.533600
  0.691000,  3.396400
  0.693000,  3.259200
  0.695000,  3.122200
  0.697000,  2.984400
  0.699000,  2.846400
  0.701000,  2.708700
  0.703000,  2.570700
  0.705000,  2.433100
  0.707000,  2.295800
  0.709000,  2.159500
  0.711000,  2.024700
  0.713000,  1.891100
  0.715000,  1.758400
  0.717000,  1.626900
  0.719000,  1.497200
  0.721000,  1.369400
  0.723000,  1.243100
  0.725000,  1.119200
  0.727000,  0.998200
  0.729000,  0.879700
  0.731000,  0.764100
  0.733000,  0.651700
  0.735000,  0.542300
  0.737000,  0.436100
  0.739000,  0.333900
  0.741000,  0.235500
  0.743000,  0.141200
  0.745000,  0.051100
  0.747000, -0.035100
  0.749000, -0.117000
  0.751000, -0.194600
  0.753000, -0.267600
  0.755000, -0.336000
  0.757000, -0.399800
  0.759000, -0.459000
  0.761000, -0.513800
  0.763000, -0.564100
  0.765000, -0.609800
  0.767000, -0.651000
  0.769000, -0.687800
  0.771000, -0.720200
  0.773000, -0.748400
  0.775000, -0.772400
  0.777000, -0.792100
  0.779000, -0.807900
  0.781000, -0.819900
  0.783000, -0.828200
  0.785000, -0.833000
  0.787000, -0.834400
  0.789000, -0.832200
  0.791000, -0.827100
  0.793000, -0.819200
  0.795000, -0.808300
  0.797000, -0.794600
  0.799000, -0.778500
  0.801000, -0.759900
  0.803000, -0.738900
  0.805000, -0.716300
  0.807000, -0.691900
  0.809000, -0.665900
  0.811000, -0.638500
  0.813000, -0.609900
  0.815000, -0.580000
  0.817000, -0.548800
  0.819000, -0.516800
  0.821000, -0.484000
  0.823000, -0.450700
  0.825000, -0.417100
  0.827000, -0.383200
  0.829000, -0.348900
  0.831000, -0.314500
  0.833000, -0.280100
  0.835000, -0.245900
  0.837000, -0.211700
  0.839000, -0.177600
  0.841000, -0.143800
  0.843000, -0.110300
  0.845000, -0.077300
  0.847000, -0.044800
  0.849000, -0.012900
  0.851000,  0.018500
  0.853000,  0.049300
  0.855000,  0.079500
  0.857000,  0.109100
  0.859000,  0.138000
  0.861000,  0.166300
  0.863000,  0.193800
  0.865000,  0.220600
  0.867000,  0.246700
  0.869000,  0.272000
  0.871000,  0.296600
  0.873000,  0.320600
  0.875000,  0.343900
  0.877000,  0.366600
  0.879000,  0.388700
  0.881000,  0.410100
  0.883000,  0.430800
  0.885000,  0.450800
  0.887000,  0.470400
  0.889000,  0.489400
  0.891000,  0.507900
  0.893000,  0.525600
  0.895000,  0.542700
  0.897000,  0.559300
  0.899000,  0.575400
  0.901000,  0.591000
  0.903000,  0.606100
  0.905000,  0.620700
  0.907000,  0.634800
  0.909000,  0.648400
  0.911000,  0.661600
  0.913000,  0.674200
  0.915000,  0.686400
  0.917000,  0.698300
  0.919000,  0.709800
  0.921000,  0.720900
  0.923000,  0.731600
  0.925000,  0.741700
  0.927000,  0.751500
  0.929000,  0.761000
  0.931000,  0.770000
  0.933000,  0.778700
  0.935000,  0.786900
  0.937000,  0.794700
  0.939000,  0.801900
  0.941000,  0.808700
  0.943000,  0.815000
  0.945000,  0.820900
  0.947000,  0.826300
  0.949000,  0.831000
  0.951000,  0.835300
  0.953000,  0.839000
  0.955000,  0.842300
  0.957000,  0.844900
  0.959000,  0.846900
  0.961000,  0.848200
  0.963000,  0.849000
  0.965000,  0.849100
  0.967000,  0.848500
  0.969000,  0.847300
  0.971000,  0.845400
  0.973000,  0.842800
  0.975000,  0.839400
  0.977000,  0.835300
  0.979000,  0.830500
  0.981000,  0.824900
  0.983000,  0.818400
  0.985000,  0.811200
  0.987000,  0.803200
  0.989000,  0.794400
  0.991000,  0.784700
  0.993000,  0.774300
  0.995000,  0.763000
  0.997000,  0.750900
  0.999000,  0.738000
  1.001000,  0.724400
  1.003000,  0.709900
  1.005000,  0.694700
  1.007000,  0.678700
  1.009000,  0.662000
  1.011000,  0.644500
  1.013000,  0.626200
  1.015000,  0.607300
  1.017000,  0.587700
  1.019000,  0.567700
  1.021000,  0.547000
  1.023000,  0.525800
  1.025000,  0.504100
  1.027000,  0.481900
  1.029000,  0.459300
  1.031000,  0.436200
  1.033000,  0.412900
  1.035000,  0.389200
  1.037000,  0.365200
  1.039000,  0.341000
  1.041000,  0.316700
  1.043000,  0.292300
  1.045000,  0.267900
  1.047000,  0.243500
  1.049000,  0.219100
  1.051000,  0.195000
  1.053000,  0.170900
  1.055000,  0.146900
  1.057000,  0.123200
  1.059000,  0.099700
  1.061000,  0.076600
  1.063000,  0.053900
  1.065000,  0.031600
  1.067000,  0.009700
  1.069000, -0.011600
  1.071000, -0.032500
  1.073000, -0.052900
  1.075000, -0.072600
  1.077000, -0.091700
  1.079000, -0.110100
  1.081000, -0.127800
  1.083000, -0.144800
  1.085000, -0.161100
  1.087000, -0.176500
  1.089000, -0.191100
  1.091000, -0.204800
  1.093000, -0.217800
  1.095000, -0.230000
  1.097000, -0.241400
  1.099000, -0.251900
  1.101000, -0.261700
  1.103000, -0.270700
  1.105000, -0.278700
  1.107000, -0.286000
  1.109000, -0.292500
  1.111000, -0.298200
  1.113000, -0.303100
  1.115000, -0.307300
  1.117000, -0.310700
  1.119000, -0.313200
  1.121000, -0.315100
  1.123000, -0.316300
  1.125000, -0.316800
  1.127000, -0.316700
  1.129000, -0.316000
  1.131000, -0.314600
  1.133000, -0.312700
  1.135000, -0.310200
  1.137000, -0.307300
  1.139000, -0.303800
  1.141000, -0.299800
  1.143000, -0.295300
  1.145000, -0.290500
  1.147000, -0.285400
  1.149000, -0.280000
  1.151000, -0.274300
  1.153000, -0.268100
  1.155000, -0.261800
  1.157000, -0.255200
  1.159000, -0.248300
  1.161000, -0.241200
  1.163000, -0.233900
  1.165000, -0.226400
  1.167000, -0.218800
  1.169000, -0.211200
  1.171000, -0.203600
  1.173000, -0.195800
  1.175000, -0.187900
  1.177000, -0.179900
  1.179000, -0.172000
  1.181000, -0.164000
  1.183000, -0.156200
  1.185000, -0.148400
  1.187000, -0.140700
  1.189000, -0.133000
  1.191000, -0.125400
  1.193000, -0.118000
  1.195000, -0.110600
  1.197000, -0.103400
  1.199000, -0.096300
  1.201000, -0.089500
  1.203000, -0.082700
  1.205000, -0.076100
  1.207000, -0.069600
  1.209000, -0.063200
  1.211000, -0.057100
  1.213000, -0.051200
  1.215000, -0.045400
  1.217000, -0.039900
  1.219000, -0.034600
  1.221000, -0.029500
  1.223000, -0.024700
  1.225000, -0.020000
  1.227000, -0.015600
  1.229000, -0.011300
  1.231000, -0.007300
  1.233000, -0.003600
  1.235000, -0.000100
  1.237000,  0.003200
  1.239000,  0.006400
  1.241000,  0.009300
  1.243000,  0.012100
  1.245000,  0.014700
  1.247000,  0.017300
  1.249000,  0.019600
  1.251000,  0.021600
  1.253000,  0.023600
  1.255000,  0.025400
  1.257000,  0.027000
  1.259000,  0.028500
  1.261000,  0.029700
  1.263000,  0.030800
  1.265000,  0.031800
  1.267000,  0.032700
  1.269000,  0.033400
  1.271000,  0.033900
  1.273000,  0.034400
  1.275000,  0.034600
  1.277000,  0.034800
  1.279000,  0.034900
  1.281000,  0.034900
  1.283000,  0.034700
  1.285000,  0.034400
  1.287000,  0.033900
  1.289000,  0.033400
  1.291000,  0.032800
  1.293000,  0.032000
  1.295000,  0.031100
  1.297000,  0.030100
  1.299000,  0.029000
  1.301000,  0.027800
  1.303000,  0.026500
  1.305000,  0.025100
  1.307000,  0.023600
  1.309000,  0.022100
  1.311000,  0.020400
  1.313000,  0.018700
  1.315000,  0.016800
  1.317000,  0.014900
  1.319000,  0.013000
  1.321000,  0.010900
  1.323000,  0.008800
  1.325000,  0.006700
  1.327000,  0.004600
  1.329000,  0.002500
  1.331000,  0.000400
  1.333000, -0.001800
  1.335000, -0.003800
  1.337000, -0.005900
  1.339000, -0.007900
  1.341000, -0.009800
  1.343000, -0.011500
  1.345000, -0.013200
  1.347000, -0.014800
  1.349000, -0.016300
  1.351000, -0.017600
  1.353000, -0.018700
  1.355000, -0.019700
  1.357000, -0.020400
  1.359000, -0.021100
  1.361000, -0.021400
  1.363000, -0.021500
  1.365000, -0.021400
  1.367000, -0.020700
  1.369000, -0.019900
  1.371000, -0.019000
  1.373000, -0.017800
  1.375000, -0.016300
  1.377000, -0.014500
  1.379000, -0.012500
  1.381000, -0.010100
  1.383000, -0.007500
  1.385000, -0.004800
  1.387000, -0.001700
  1.389000,  0.001600
  1.391000,  0.005100
  1.393000,  0.008500
  1.395000,  0.011900
  1.397000,  0.015100
  1.399000,  0.018200
