# z (nm)   (kJ/mol)
  0.333000,  6.406000
  0.337000,  5.205200
  0.339000,  4.574700
  0.341000,  3.921700
  0.343000,  3.312500
  0.345000,  2.713600
  0.347000,  2.088600
  0.349000,  1.456200
  0.351000,  0.818600
  0.353000,  0.213600
  0.355000, -0.380600
  0.357000, -0.984700
  0.359000, -1.583400
  0.361000, -2.176200
  0.363000, -2.757900
  0.365000, -3.326000
  0.367000, -3.885100
  0.369000, -4.431600
  0.371000, -4.963800
  0.373000, -5.484600
  0.375000, -5.993100
  0.377000, -6.486900
  0.379000, -6.960500
  0.381000, -7.418100
  0.383000, -7.867500
  0.385000, -8.306500
  0.387000, -8.732100
  0.389000, -9.142400
  0.391000, -9.537700
  0.393000, -9.916600
  0.395000,-10.284300
  0.397000,-10.639500
  0.399000,-10.978700
  0.401000,-11.304900
  0.403000,-11.613100
  0.405000,-11.906000
  0.407000,-12.185900
  0.409000,-12.448400
  0.411000,-12.693600
  0.413000,-12.921500
  0.415000,-13.131200
  0.417000,-13.325700
  0.419000,-13.504200
  0.421000,-13.665800
  0.423000,-13.810400
  0.425000,-13.938800
  0.427000,-14.051000
  0.429000,-14.147500
  0.431000,-14.228000
  0.433000,-14.291300
  0.435000,-14.338900
  0.437000,-14.372600
  0.439000,-14.392400
  0.441000,-14.398200
  0.443000,-14.390600
  0.445000,-14.370200
  0.447000,-14.338000
  0.449000,-14.293500
  0.451000,-14.238600
  0.453000,-14.174200
  0.455000,-14.099900
  0.457000,-14.016500
  0.459000,-13.925400
  0.461000,-13.826300
  0.463000,-13.720100
  0.465000,-13.609200
  0.467000,-13.492300
  0.469000,-13.370700
  0.471000,-13.244600
  0.473000,-13.114400
  0.475000,-12.982200
  0.477000,-12.847300
  0.479000,-12.709900
  0.481000,-12.570800
  0.483000,-12.431000
  0.485000,-12.290800
  0.487000,-12.150200
  0.489000,-12.010200
  0.491000,-11.871700
  0.493000,-11.734700
  0.495000,-11.599000
  0.497000,-11.465300
  0.499000,-11.333700
  0.501000,-11.204100
  0.503000,-11.076800
  0.505000,-10.952300
  0.507000,-10.830800
  0.509000,-10.711800
  0.511000,-10.595800
  0.513000,-10.483500
  0.515000,-10.374900
  0.517000,-10.269500
  0.519000,-10.167200
  0.521000,-10.068900
  0.523000, -9.972900
  0.525000, -9.879000
  0.527000, -9.789000
  0.529000, -9.702800
  0.531000, -9.618800
  0.533000, -9.537200
  0.535000, -9.458100
  0.537000, -9.381900
  0.539000, -9.308600
  0.541000, -9.236400
  0.543000, -9.166000
  0.545000, -9.098100
  0.547000, -9.031500
  0.549000, -8.965700
  0.551000, -8.900800
  0.553000, -8.836600
  0.555000, -8.772500
  0.557000, -8.709200
  0.559000, -8.647200
  0.561000, -8.584700
  0.563000, -8.522200
  0.565000, -8.458900
  0.567000, -8.394300
  0.569000, -8.329500
  0.571000, -8.264000
  0.573000, -8.197200
  0.575000, -8.128900
  0.577000, -8.059000
  0.579000, -7.987900
  0.581000, -7.914800
  0.583000, -7.839700
  0.585000, -7.762800
  0.587000, -7.684300
  0.589000, -7.603600
  0.591000, -7.520400
  0.593000, -7.435200
  0.595000, -7.347900
  0.597000, -7.258400
  0.599000, -7.167000
  0.601000, -7.073800
  0.603000, -6.978300
  0.605000, -6.880900
  0.607000, -6.781600
  0.609000, -6.680900
  0.611000, -6.579100
  0.613000, -6.475800
  0.615000, -6.371400
  0.617000, -6.265900
  0.619000, -6.159300
  0.621000, -6.051300
  0.623000, -5.942400
  0.625000, -5.833100
  0.627000, -5.723400
  0.629000, -5.613500
  0.631000, -5.504100
  0.633000, -5.394800
  0.635000, -5.285600
  0.637000, -5.176900
  0.639000, -5.069800
  0.641000, -4.964000
  0.643000, -4.858800
  0.645000, -4.755100
  0.647000, -4.652700
  0.649000, -4.551200
  0.651000, -4.451600
  0.653000, -4.354200
  0.655000, -4.258600
  0.657000, -4.165000
  0.659000, -4.073700
  0.661000, -3.984400
  0.663000, -3.897100
  0.665000, -3.812300
  0.667000, -3.730000
  0.669000, -3.650000
  0.671000, -3.572500
  0.673000, -3.497600
  0.675000, -3.425300
  0.677000, -3.355800
  0.679000, -3.288300
  0.681000, -3.223000
  0.683000, -3.160300
  0.685000, -3.100100
  0.687000, -3.042100
  0.689000, -2.986600
  0.691000, -2.933100
  0.693000, -2.881800
  0.695000, -2.832700
  0.697000, -2.786000
  0.699000, -2.741500
  0.701000, -2.698500
  0.703000, -2.657600
  0.705000, -2.618500
  0.707000, -2.581500
  0.709000, -2.545800
  0.711000, -2.511500
  0.713000, -2.479000
  0.715000, -2.447800
  0.717000, -2.417700
  0.719000, -2.388900
  0.721000, -2.361600
  0.723000, -2.335100
  0.725000, -2.309400
  0.727000, -2.284800
  0.729000, -2.261300
  0.731000, -2.238600
  0.733000, -2.216500
  0.735000, -2.195100
  0.737000, -2.174200
  0.739000, -2.154000
  0.741000, -2.134400
  0.743000, -2.115100
  0.745000, -2.096500
  0.747000, -2.078400
  0.749000, -2.060800
  0.751000, -2.043700
  0.753000, -2.026600
  0.755000, -2.009800
  0.757000, -1.993400
  0.759000, -1.977100
  0.761000, -1.960900
  0.763000, -1.944900
  0.765000, -1.929200
  0.767000, -1.913600
  0.769000, -1.898200
  0.771000, -1.883200
  0.773000, -1.868500
  0.775000, -1.854000
  0.777000, -1.839500
  0.779000, -1.824800
  0.781000, -1.810000
  0.783000, -1.795800
  0.785000, -1.781800
  0.787000, -1.768000
  0.789000, -1.754000
  0.791000, -1.740000
  0.793000, -1.726500
  0.795000, -1.713000
  0.797000, -1.699300
  0.799000, -1.685800
  0.801000, -1.672400
  0.803000, -1.659200
  0.805000, -1.646000
  0.807000, -1.632900
  0.809000, -1.620200
  0.811000, -1.607400
  0.813000, -1.594700
  0.815000, -1.582200
  0.817000, -1.569600
  0.819000, -1.556800
  0.821000, -1.544100
  0.823000, -1.531800
  0.825000, -1.519500
  0.827000, -1.507200
  0.829000, -1.494700
  0.831000, -1.482300
  0.833000, -1.470000
  0.835000, -1.457900
  0.837000, -1.445600
  0.839000, -1.433400
  0.841000, -1.421200
  0.843000, -1.408800
  0.845000, -1.396500
  0.847000, -1.384100
  0.849000, -1.371800
  0.851000, -1.359700
  0.853000, -1.347400
  0.855000, -1.334700
  0.857000, -1.321800
  0.859000, -1.309000
  0.861000, -1.296300
  0.863000, -1.283100
  0.865000, -1.270100
  0.867000, -1.257300
  0.869000, -1.244100
  0.871000, -1.230700
  0.873000, -1.217400
  0.875000, -1.204300
  0.877000, -1.191000
  0.879000, -1.177500
  0.881000, -1.163900
  0.883000, -1.150500
  0.885000, -1.137100
  0.887000, -1.123600
  0.889000, -1.110000
  0.891000, -1.096600
  0.893000, -1.083000
  0.895000, -1.069300
  0.897000, -1.055900
  0.899000, -1.042600
  0.901000, -1.029200
  0.903000, -1.015700
  0.905000, -1.002300
  0.907000, -0.989000
  0.909000, -0.975800
  0.911000, -0.962800
  0.913000, -0.950000
  0.915000, -0.937000
  0.917000, -0.924100
  0.919000, -0.911500
  0.921000, -0.899000
  0.923000, -0.886600
  0.925000, -0.874300
  0.927000, -0.862400
  0.929000, -0.850600
  0.931000, -0.838700
  0.933000, -0.827200
  0.935000, -0.815900
  0.937000, -0.804600
  0.939000, -0.793800
  0.941000, -0.783000
  0.943000, -0.772500
  0.945000, -0.762400
  0.947000, -0.752700
  0.949000, -0.743100
  0.951000, -0.733600
  0.953000, -0.724300
  0.955000, -0.715200
  0.957000, -0.706200
  0.959000, -0.697400
  0.961000, -0.689000
  0.963000, -0.680600
  0.965000, -0.672500
  0.967000, -0.664600
  0.969000, -0.656800
  0.971000, -0.649100
  0.973000, -0.641700
  0.975000, -0.634400
  0.977000, -0.627300
  0.979000, -0.620400
  0.981000, -0.613500
  0.983000, -0.606900
  0.985000, -0.600300
  0.987000, -0.593700
  0.989000, -0.587300
  0.991000, -0.581000
  0.993000, -0.574700
  0.995000, -0.568500
  0.997000, -0.562200
  0.999000, -0.556100
  1.001000, -0.549900
  1.003000, -0.543600
  1.005000, -0.537500
  1.007000, -0.531600
  1.009000, -0.525500
  1.011000, -0.519200
  1.013000, -0.513000
  1.015000, -0.506800
  1.017000, -0.500700
  1.019000, -0.494500
  1.021000, -0.488300
  1.023000, -0.482200
  1.025000, -0.475900
  1.027000, -0.469600
  1.029000, -0.463300
  1.031000, -0.457000
  1.033000, -0.450900
  1.035000, -0.444600
  1.037000, -0.438300
  1.039000, -0.432100
  1.041000, -0.425900
  1.043000, -0.419700
  1.045000, -0.413500
  1.047000, -0.407400
  1.049000, -0.401300
  1.051000, -0.395300
  1.053000, -0.389300
  1.055000, -0.383300
  1.057000, -0.377500
  1.059000, -0.371800
  1.061000, -0.366200
  1.063000, -0.360700
  1.065000, -0.355200
  1.067000, -0.350000
  1.069000, -0.345100
  1.071000, -0.340100
  1.073000, -0.335200
  1.075000, -0.330400
  1.077000, -0.325800
  1.079000, -0.321200
  1.081000, -0.316700
  1.083000, -0.312400
  1.085000, -0.308400
  1.087000, -0.304500
  1.089000, -0.300600
  1.091000, -0.296700
  1.093000, -0.293000
  1.095000, -0.289300
  1.097000, -0.285700
  1.099000, -0.282600
  1.101000, -0.279500
  1.103000, -0.276500
  1.105000, -0.273600
  1.107000, -0.270600
  1.109000, -0.267500
  1.111000, -0.264700
  1.113000, -0.261900
  1.115000, -0.258900
  1.117000, -0.256100
  1.119000, -0.253300
  1.121000, -0.250700
  1.123000, -0.248100
  1.125000, -0.245400
  1.127000, -0.242600
  1.129000, -0.240000
  1.131000, -0.237400
  1.133000, -0.234700
  1.135000, -0.232100
  1.137000, -0.229600
  1.139000, -0.226800
  1.141000, -0.224000
  1.143000, -0.221400
  1.145000, -0.218700
  1.147000, -0.215900
  1.149000, -0.213100
  1.151000, -0.210200
  1.153000, -0.207300
  1.155000, -0.204400
  1.157000, -0.201500
  1.159000, -0.198600
  1.161000, -0.195400
  1.163000, -0.192200
  1.165000, -0.189300
  1.167000, -0.186400
  1.169000, -0.183400
  1.171000, -0.180400
  1.173000, -0.177400
  1.175000, -0.174500
  1.177000, -0.171500
  1.179000, -0.168500
  1.181000, -0.165700
  1.183000, -0.162800
  1.185000, -0.159900
  1.187000, -0.157000
  1.189000, -0.154200
  1.191000, -0.151500
  1.193000, -0.148700
  1.195000, -0.146100
  1.197000, -0.143700
  1.199000, -0.141200
  1.201000, -0.138800
  1.203000, -0.136400
  1.205000, -0.134000
  1.207000, -0.131700
  1.209000, -0.129400
  1.211000, -0.127100
  1.213000, -0.124900
  1.215000, -0.122900
  1.217000, -0.121000
  1.219000, -0.119000
  1.221000, -0.117000
  1.223000, -0.115300
  1.225000, -0.113500
  1.227000, -0.111600
  1.229000, -0.109800
  1.231000, -0.108000
  1.233000, -0.106200
  1.235000, -0.104400
  1.237000, -0.102600
  1.239000, -0.100800
  1.241000, -0.099100
  1.243000, -0.097200
  1.245000, -0.095300
  1.247000, -0.093400
  1.249000, -0.091600
  1.251000, -0.089600
  1.253000, -0.087500
  1.255000, -0.085400
  1.257000, -0.083200
  1.259000, -0.080800
  1.261000, -0.078300
  1.263000, -0.075700
  1.265000, -0.073000
  1.267000, -0.070300
  1.269000, -0.067600
  1.271000, -0.064800
  1.273000, -0.061900
  1.275000, -0.058900
  1.277000, -0.055700
  1.279000, -0.052300
  1.281000, -0.049100
  1.283000, -0.045700
  1.285000, -0.042200
  1.287000, -0.038400
  1.289000, -0.034600
  1.291000, -0.030800
  1.293000, -0.026900
  1.295000, -0.022800
  1.297000, -0.018800
  1.299000, -0.014700
  1.301000, -0.010400
  1.303000, -0.006300
  1.305000, -0.002000
  1.307000,  0.002300
  1.309000,  0.006600
  1.311000,  0.010800
  1.313000,  0.015100
  1.315000,  0.019400
  1.317000,  0.023700
  1.319000,  0.028000
  1.321000,  0.032200
  1.323000,  0.036600
  1.325000,  0.040900
  1.327000,  0.045200
  1.329000,  0.049400
  1.331000,  0.053700
  1.333000,  0.057900
  1.335000,  0.062200
  1.337000,  0.066500
  1.339000,  0.070600
  1.341000,  0.074600
  1.343000,  0.078600
  1.345000,  0.082500
  1.347000,  0.086300
  1.349000,  0.090200
  1.351000,  0.094100
  1.353000,  0.098000
  1.355000,  0.101800
  1.357000,  0.105600
  1.359000,  0.109200
  1.361000,  0.112800
  1.363000,  0.116300
  1.365000,  0.119800
  1.367000,  0.123300
  1.369000,  0.127000
  1.371000,  0.130500
  1.373000,  0.133900
  1.375000,  0.137500
  1.377000,  0.141100
  1.379000,  0.144700
  1.381000,  0.148100
  1.383000,  0.151200
  1.385000,  0.154200
  1.387000,  0.157200
  1.389000,  0.160000
  1.391000,  0.162600
  1.393000,  0.165000
  1.395000,  0.167300
  1.397000,  0.169400
  1.399000,  0.171100
