# z (nm)   (kJ/mol)
  0.3510   12.20850
  0.3550   11.03830
  0.3570   10.41930
  0.3590    9.80620
  0.3610    9.19240
  0.3630    8.54100
  0.3650    7.86800
  0.3670    7.21190
  0.3690    6.57460
  0.3710    5.93360
  0.3730    5.29670
  0.3750    4.65780
  0.3770    4.00390
  0.3790    3.36790
  0.3810    2.74600
  0.3830    2.12700
  0.3850    1.51220
  0.3870    0.90380
  0.3890    0.31160
  0.3910   -0.26930
  0.3930   -0.84030
  0.3950   -1.40320
  0.3970   -1.95920
  0.3990   -2.50720
  0.4010   -3.04270
  0.4030   -3.56480
  0.4050   -4.07250
  0.4070   -4.56560
  0.4090   -5.04680
  0.4110   -5.51380
  0.4130   -5.96660
  0.4150   -6.40420
  0.4170   -6.82430
  0.4190   -7.22870
  0.4210   -7.61870
  0.4230   -7.99530
  0.4250   -8.35690
  0.4270   -8.69950
  0.4290   -9.02640
  0.4310   -9.33460
  0.4330   -9.62360
  0.4350   -9.89720
  0.4370  -10.15550
  0.4390  -10.39720
  0.4410  -10.62030
  0.4430  -10.82590
  0.4450  -11.01500
  0.4470  -11.18740
  0.4490  -11.34370
  0.4510  -11.48330
  0.4530  -11.60640
  0.4550  -11.71530
  0.4570  -11.80860
  0.4590  -11.88490
  0.4610  -11.94440
  0.4630  -11.98920
  0.4650  -12.01920
  0.4670  -12.03530
  0.4690  -12.03670
  0.4710  -12.02060
  0.4730  -11.99000
  0.4750  -11.94860
  0.4770  -11.89680
  0.4790  -11.83160
  0.4810  -11.75450
  0.4830  -11.66740
  0.4850  -11.56950
  0.4870  -11.46190
  0.4890  -11.34560
  0.4910  -11.22010
  0.4930  -11.08600
  0.4950  -10.94390
  0.4970  -10.79410
  0.4990  -10.63850
  0.5010  -10.47620
  0.5030  -10.30750
  0.5050  -10.13420
  0.5070   -9.95560
  0.5090   -9.77250
  0.5110   -9.58640
  0.5130   -9.39820
  0.5150   -9.20640
  0.5170   -9.01150
  0.5190   -8.81400
  0.5210   -8.61530
  0.5230   -8.41540
  0.5250   -8.21450
  0.5270   -8.01410
  0.5290   -7.81450
  0.5310   -7.61540
  0.5330   -7.41500
  0.5350   -7.21470
  0.5370   -7.01560
  0.5390   -6.81750
  0.5410   -6.62030
  0.5430   -6.42390
  0.5450   -6.22900
  0.5470   -6.03610
  0.5490   -5.84500
  0.5510   -5.65690
  0.5530   -5.47200
  0.5550   -5.28930
  0.5570   -5.10910
  0.5590   -4.93120
  0.5610   -4.75630
  0.5630   -4.58470
  0.5650   -4.41590
  0.5670   -4.25080
  0.5690   -4.08870
  0.5710   -3.92970
  0.5730   -3.77470
  0.5750   -3.62350
  0.5770   -3.47590
  0.5790   -3.33210
  0.5810   -3.19240
  0.5830   -3.05610
  0.5850   -2.92350
  0.5870   -2.79520
  0.5890   -2.67080
  0.5910   -2.55010
  0.5930   -2.43380
  0.5950   -2.32210
  0.5970   -2.21460
  0.5990   -2.11080
  0.6010   -2.01130
  0.6030   -1.91620
  0.6050   -1.82530
  0.6070   -1.73860
  0.6090   -1.65620
  0.6110   -1.57810
  0.6130   -1.50390
  0.6150   -1.43370
  0.6170   -1.36780
  0.6190   -1.30590
  0.6210   -1.24810
  0.6230   -1.19410
  0.6250   -1.14360
  0.6270   -1.09700
  0.6290   -1.05430
  0.6310   -1.01530
  0.6330   -0.98000
  0.6350   -0.94840
  0.6370   -0.92010
  0.6390   -0.89530
  0.6410   -0.87390
  0.6430   -0.85580
  0.6450   -0.84050
  0.6470   -0.82810
  0.6490   -0.81870
  0.6510   -0.81220
  0.6530   -0.80840
  0.6550   -0.80700
  0.6570   -0.80830
  0.6590   -0.81190
  0.6610   -0.81780
  0.6630   -0.82600
  0.6650   -0.83600
  0.6670   -0.84790
  0.6690   -0.86170
  0.6710   -0.87710
  0.6730   -0.89410
  0.6750   -0.91280
  0.6770   -0.93270
  0.6790   -0.95410
  0.6810   -0.97690
  0.6830   -1.00080
  0.6850   -1.02550
  0.6870   -1.05130
  0.6890   -1.07790
  0.6910   -1.10500
  0.6930   -1.13270
  0.6950   -1.16090
  0.6970   -1.18960
  0.6990   -1.21870
  0.7010   -1.24800
  0.7030   -1.27740
  0.7050   -1.30650
  0.7070   -1.33580
  0.7090   -1.36540
  0.7110   -1.39470
  0.7130   -1.42390
  0.7150   -1.45280
  0.7170   -1.48150
  0.7190   -1.50990
  0.7210   -1.53800
  0.7230   -1.56550
  0.7250   -1.59250
  0.7270   -1.61890
  0.7290   -1.64450
  0.7310   -1.66930
  0.7330   -1.69360
  0.7350   -1.71720
  0.7370   -1.74010
  0.7390   -1.76220
  0.7410   -1.78340
  0.7430   -1.80370
  0.7450   -1.82310
  0.7470   -1.84150
  0.7490   -1.85910
  0.7510   -1.87580
  0.7530   -1.89160
  0.7550   -1.90640
  0.7570   -1.92010
  0.7590   -1.93290
  0.7610   -1.94470
  0.7630   -1.95550
  0.7650   -1.96520
  0.7670   -1.97370
  0.7690   -1.98120
  0.7710   -1.98790
  0.7730   -1.99350
  0.7750   -1.99800
  0.7770   -2.00160
  0.7790   -2.00410
  0.7810   -2.00550
  0.7830   -2.00610
  0.7850   -2.00580
  0.7870   -2.00440
  0.7890   -2.00220
  0.7910   -1.99900
  0.7930   -1.99470
  0.7950   -1.98920
  0.7970   -1.98280
  0.7990   -1.97580
  0.8010   -1.96780
  0.8030   -1.95870
  0.8050   -1.94860
  0.8070   -1.93770
  0.8090   -1.92610
  0.8110   -1.91360
  0.8130   -1.90010
  0.8150   -1.88580
  0.8170   -1.87080
  0.8190   -1.85490
  0.8210   -1.83810
  0.8230   -1.82070
  0.8250   -1.80250
  0.8270   -1.78350
  0.8290   -1.76410
  0.8310   -1.74390
  0.8330   -1.72310
  0.8350   -1.70180
  0.8370   -1.67980
  0.8390   -1.65720
  0.8410   -1.63410
  0.8430   -1.61060
  0.8450   -1.58650
  0.8470   -1.56180
  0.8490   -1.53670
  0.8510   -1.51120
  0.8530   -1.48540
  0.8550   -1.45930
  0.8570   -1.43280
  0.8590   -1.40610
  0.8610   -1.37910
  0.8630   -1.35180
  0.8650   -1.32410
  0.8670   -1.29640
  0.8690   -1.26870
  0.8710   -1.24100
  0.8730   -1.21320
  0.8750   -1.18540
  0.8770   -1.15760
  0.8790   -1.12980
  0.8810   -1.10210
  0.8830   -1.07460
  0.8850   -1.04710
  0.8870   -1.01990
  0.8890   -0.99290
  0.8910   -0.96610
  0.8930   -0.93930
  0.8950   -0.91290
  0.8970   -0.88710
  0.8990   -0.86170
  0.9010   -0.83640
  0.9030   -0.81160
  0.9050   -0.78730
  0.9070   -0.76350
  0.9090   -0.74020
  0.9110   -0.71750
  0.9130   -0.69510
  0.9150   -0.67310
  0.9170   -0.65170
  0.9190   -0.63090
  0.9210   -0.61100
  0.9230   -0.59160
  0.9250   -0.57270
  0.9270   -0.55440
  0.9290   -0.53690
  0.9310   -0.52000
  0.9330   -0.50360
  0.9350   -0.48780
  0.9370   -0.47270
  0.9390   -0.45840
  0.9410   -0.44490
  0.9430   -0.43180
  0.9450   -0.41930
  0.9470   -0.40740
  0.9490   -0.39630
  0.9510   -0.38570
  0.9530   -0.37570
  0.9550   -0.36620
  0.9570   -0.35740
  0.9590   -0.34930
  0.9610   -0.34170
  0.9630   -0.33470
  0.9650   -0.32840
  0.9670   -0.32270
  0.9690   -0.31740
  0.9710   -0.31240
  0.9730   -0.30800
  0.9750   -0.30410
  0.9770   -0.30070
  0.9790   -0.29780
  0.9810   -0.29530
  0.9830   -0.29310
  0.9850   -0.29140
  0.9870   -0.29020
  0.9890   -0.28930
  0.9910   -0.28890
  0.9930   -0.28860
  0.9950   -0.28850
  0.9970   -0.28870
  0.9990   -0.28940
  1.0010   -0.29030
  1.0030   -0.29140
  1.0050   -0.29270
  1.0070   -0.29410
  1.0090   -0.29590
  1.0110   -0.29800
  1.0130   -0.30010
  1.0150   -0.30230
  1.0170   -0.30480
  1.0190   -0.30760
  1.0210   -0.31040
  1.0230   -0.31330
  1.0250   -0.31640
  1.0270   -0.31960
  1.0290   -0.32290
  1.0310   -0.32630
  1.0330   -0.32980
  1.0350   -0.33340
  1.0370   -0.33700
  1.0390   -0.34060
  1.0410   -0.34420
  1.0430   -0.34810
  1.0450   -0.35200
  1.0470   -0.35600
  1.0490   -0.35980
  1.0510   -0.36370
  1.0530   -0.36760
  1.0550   -0.37150
  1.0570   -0.37540
  1.0590   -0.37920
  1.0610   -0.38310
  1.0630   -0.38690
  1.0650   -0.39060
  1.0670   -0.39420
  1.0690   -0.39780
  1.0710   -0.40130
  1.0730   -0.40470
  1.0750   -0.40790
  1.0770   -0.41100
  1.0790   -0.41400
  1.0810   -0.41690
  1.0830   -0.41950
  1.0850   -0.42190
  1.0870   -0.42420
  1.0890   -0.42620
  1.0910   -0.42800
  1.0930   -0.42970
  1.0950   -0.43110
  1.0970   -0.43230
  1.0990   -0.43320
  1.1010   -0.43380
  1.1030   -0.43410
  1.1050   -0.43420
  1.1070   -0.43380
  1.1090   -0.43300
  1.1110   -0.43210
  1.1130   -0.43100
  1.1150   -0.42950
  1.1170   -0.42780
  1.1190   -0.42570
  1.1210   -0.42320
  1.1230   -0.42040
  1.1250   -0.41730
  1.1270   -0.41380
  1.1290   -0.41020
  1.1310   -0.40630
  1.1330   -0.40210
  1.1350   -0.39760
  1.1370   -0.39280
  1.1390   -0.38770
  1.1410   -0.38240
  1.1430   -0.37690
  1.1450   -0.37110
  1.1470   -0.36520
  1.1490   -0.35900
  1.1510   -0.35250
  1.1530   -0.34600
  1.1550   -0.33930
  1.1570   -0.33240
  1.1590   -0.32540
  1.1610   -0.31830
  1.1630   -0.31100
  1.1650   -0.30360
  1.1670   -0.29630
  1.1690   -0.28890
  1.1710   -0.28150
  1.1730   -0.27410
  1.1750   -0.26670
  1.1770   -0.25930
  1.1790   -0.25170
  1.1810   -0.24430
  1.1830   -0.23690
  1.1850   -0.22950
  1.1870   -0.22220
  1.1890   -0.21500
  1.1910   -0.20780
  1.1930   -0.20080
  1.1950   -0.19380
  1.1970   -0.18690
  1.1990   -0.18010
  1.2010   -0.17330
  1.2030   -0.16680
  1.2050   -0.16030
  1.2070   -0.15390
  1.2090   -0.14760
  1.2110   -0.14140
  1.2130   -0.13540
  1.2150   -0.12960
  1.2170   -0.12380
  1.2190   -0.11810
  1.2210   -0.11260
  1.2230   -0.10710
  1.2250   -0.10170
  1.2270   -0.09640
  1.2290   -0.09140
  1.2310   -0.08660
  1.2330   -0.08180
  1.2350   -0.07710
  1.2370   -0.07240
  1.2390   -0.06780
  1.2410   -0.06340
  1.2430   -0.05900
  1.2450   -0.05480
  1.2470   -0.05060
  1.2490   -0.04660
  1.2510   -0.04270
  1.2530   -0.03900
  1.2550   -0.03530
  1.2570   -0.03180
  1.2590   -0.02840
  1.2610   -0.02510
  1.2630   -0.02190
  1.2650   -0.01880
  1.2670   -0.01570
  1.2690   -0.01280
  1.2710   -0.00980
  1.2730   -0.00700
  1.2750   -0.00430
  1.2770   -0.00170
  1.2790    0.00070
  1.2810    0.00310
  1.2830    0.00550
  1.2850    0.00770
  1.2870    0.00990
  1.2890    0.01200
  1.2910    0.01390
  1.2930    0.01580
  1.2950    0.01770
  1.2970    0.01960
  1.2990    0.02140
  1.3010    0.02320
  1.3030    0.02490
  1.3050    0.02660
  1.3070    0.02820
  1.3090    0.02980
  1.3110    0.03130
  1.3130    0.03280
  1.3150    0.03440
  1.3170    0.03580
  1.3190    0.03720
  1.3210    0.03860
  1.3230    0.04000
  1.3250    0.04150
  1.3270    0.04300
  1.3290    0.04440
  1.3310    0.04600
  1.3330    0.04750
  1.3350    0.04890
  1.3370    0.05040
  1.3390    0.05190
  1.3410    0.05340
  1.3430    0.05500
  1.3450    0.05660
  1.3470    0.05800
  1.3490    0.05950
  1.3510    0.06100
  1.3530    0.06250
  1.3550    0.06410
  1.3570    0.06570
  1.3590    0.06730
  1.3610    0.06870
  1.3630    0.07010
  1.3650    0.07140
  1.3670    0.07270
  1.3690    0.07410
  1.3710    0.07540
  1.3730    0.07680
  1.3750    0.07800
  1.3770    0.07900
  1.3790    0.08010
  1.3810    0.08100
  1.3830    0.08160
  1.3850    0.08200
  1.3870    0.08230
  1.3890    0.08210
  1.3910    0.08170
  1.3930    0.08090
  1.3950    0.07990
  1.3970    0.07870
  1.3990    0.07720
