# z (nm)   (kJ/mol)
  0.255000,  9.879900
  0.257000,  9.460100
  0.259000,  9.031200
  0.261000,  8.638800
  0.263000,  8.291300
  0.265000,  7.930200
  0.267000,  7.548600
  0.269000,  7.190900
  0.271000,  6.837600
  0.273000,  6.477000
  0.275000,  6.125500
  0.277000,  5.790800
  0.279000,  5.461600
  0.281000,  5.143200
  0.283000,  4.838100
  0.285000,  4.542700
  0.287000,  4.258400
  0.289000,  3.988600
  0.291000,  3.731600
  0.293000,  3.488400
  0.295000,  3.259100
  0.297000,  3.043200
  0.299000,  2.842300
  0.301000,  2.654800
  0.303000,  2.481500
  0.305000,  2.320300
  0.307000,  2.173300
  0.309000,  2.041400
  0.311000,  1.921600
  0.313000,  1.815600
  0.315000,  1.722900
  0.317000,  1.643700
  0.319000,  1.577100
  0.321000,  1.522200
  0.323000,  1.480000
  0.325000,  1.449500
  0.327000,  1.431200
  0.329000,  1.424800
  0.331000,  1.428000
  0.333000,  1.440800
  0.335000,  1.464400
  0.337000,  1.496500
  0.339000,  1.533500
  0.341000,  1.579700
  0.343000,  1.633500
  0.345000,  1.690000
  0.347000,  1.751200
  0.349000,  1.815900
  0.351000,  1.881900
  0.353000,  1.948700
  0.355000,  2.018300
  0.357000,  2.088900
  0.359000,  2.158100
  0.361000,  2.227900
  0.363000,  2.297900
  0.365000,  2.363900
  0.367000,  2.424100
  0.369000,  2.478000
  0.371000,  2.530200
  0.373000,  2.582900
  0.375000,  2.630200
  0.377000,  2.669900
  0.379000,  2.705300
  0.381000,  2.735200
  0.383000,  2.757800
  0.385000,  2.772900
  0.387000,  2.779400
  0.389000,  2.778700
  0.391000,  2.769900
  0.393000,  2.753500
  0.395000,  2.727800
  0.397000,  2.692000
  0.399000,  2.650700
  0.401000,  2.604100
  0.403000,  2.550500
  0.405000,  2.488800
  0.407000,  2.421300
  0.409000,  2.347700
  0.411000,  2.267000
  0.413000,  2.181200
  0.415000,  2.090200
  0.417000,  1.992800
  0.419000,  1.892000
  0.421000,  1.788700
  0.423000,  1.680200
  0.425000,  1.567600
  0.427000,  1.453100
  0.429000,  1.335600
  0.431000,  1.215700
  0.433000,  1.094200
  0.435000,  0.971000
  0.437000,  0.846400
  0.439000,  0.719800
  0.441000,  0.591900
  0.443000,  0.464500
  0.445000,  0.337200
  0.447000,  0.209600
  0.449000,  0.082700
  0.451000, -0.043300
  0.453000, -0.168600
  0.455000, -0.292700
  0.457000, -0.414500
  0.459000, -0.534400
  0.461000, -0.651100
  0.463000, -0.764000
  0.465000, -0.874600
  0.467000, -0.983300
  0.469000, -1.090000
  0.471000, -1.193600
  0.473000, -1.293100
  0.475000, -1.389500
  0.477000, -1.483200
  0.479000, -1.573300
  0.481000, -1.659700
  0.483000, -1.743200
  0.485000, -1.823000
  0.487000, -1.898800
  0.489000, -1.971000
  0.491000, -2.039200
  0.493000, -2.103700
  0.495000, -2.164700
  0.497000, -2.222100
  0.499000, -2.275700
  0.501000, -2.325400
  0.503000, -2.371600
  0.505000, -2.414500
  0.507000, -2.453900
  0.509000, -2.489300
  0.511000, -2.521200
  0.513000, -2.550000
  0.515000, -2.575100
  0.517000, -2.596400
  0.519000, -2.614300
  0.521000, -2.628600
  0.523000, -2.639800
  0.525000, -2.647400
  0.527000, -2.651500
  0.529000, -2.652500
  0.531000, -2.650700
  0.533000, -2.646300
  0.535000, -2.638800
  0.537000, -2.628700
  0.539000, -2.615600
  0.541000, -2.599400
  0.543000, -2.580600
  0.545000, -2.559100
  0.547000, -2.534400
  0.549000, -2.507000
  0.551000, -2.477300
  0.553000, -2.445200
  0.555000, -2.410400
  0.557000, -2.373700
  0.559000, -2.334800
  0.561000, -2.293600
  0.563000, -2.250400
  0.565000, -2.205300
  0.567000, -2.158800
  0.569000, -2.111100
  0.571000, -2.061900
  0.573000, -2.011300
  0.575000, -1.959500
  0.577000, -1.906100
  0.579000, -1.851400
  0.581000, -1.796100
  0.583000, -1.740200
  0.585000, -1.683300
  0.587000, -1.625900
  0.589000, -1.568700
  0.591000, -1.510800
  0.593000, -1.452200
  0.595000, -1.393900
  0.597000, -1.335700
  0.599000, -1.277900
  0.601000, -1.220700
  0.603000, -1.163700
  0.605000, -1.107500
  0.607000, -1.051800
  0.609000, -0.997000
  0.611000, -0.943400
  0.613000, -0.890800
  0.615000, -0.839200
  0.617000, -0.788900
  0.619000, -0.740100
  0.621000, -0.692400
  0.623000, -0.646500
  0.625000, -0.602500
  0.627000, -0.560400
  0.629000, -0.520200
  0.631000, -0.481500
  0.633000, -0.444400
  0.635000, -0.409300
  0.637000, -0.376200
  0.639000, -0.345300
  0.641000, -0.316500
  0.643000, -0.289700
  0.645000, -0.265100
  0.647000, -0.242300
  0.649000, -0.221400
  0.651000, -0.203000
  0.653000, -0.186600
  0.655000, -0.172100
  0.657000, -0.159400
  0.659000, -0.148800
  0.661000, -0.140100
  0.663000, -0.133300
  0.665000, -0.128500
  0.667000, -0.125400
  0.669000, -0.123800
  0.671000, -0.123800
  0.673000, -0.125500
  0.675000, -0.129200
  0.677000, -0.134200
  0.679000, -0.140500
  0.681000, -0.148300
  0.683000, -0.157200
  0.685000, -0.166900
  0.687000, -0.177500
  0.689000, -0.189300
  0.691000, -0.202000
  0.693000, -0.215600
  0.695000, -0.229700
  0.697000, -0.244500
  0.699000, -0.259400
  0.701000, -0.275000
  0.703000, -0.291700
  0.705000, -0.308400
  0.707000, -0.325000
  0.709000, -0.341500
  0.711000, -0.357800
  0.713000, -0.374400
  0.715000, -0.391200
  0.717000, -0.407800
  0.719000, -0.424000
  0.721000, -0.440100
  0.723000, -0.455800
  0.725000, -0.471300
  0.727000, -0.486500
  0.729000, -0.501000
  0.731000, -0.514700
  0.733000, -0.527800
  0.735000, -0.540600
  0.737000, -0.552800
  0.739000, -0.564500
  0.741000, -0.575600
  0.743000, -0.585600
  0.745000, -0.594800
  0.747000, -0.603100
  0.749000, -0.610800
  0.751000, -0.617800
  0.753000, -0.623700
  0.755000, -0.629000
  0.757000, -0.633500
  0.759000, -0.637200
  0.761000, -0.640100
  0.763000, -0.642100
  0.765000, -0.643000
  0.767000, -0.643200
  0.769000, -0.642900
  0.771000, -0.641700
  0.773000, -0.639400
  0.775000, -0.636300
  0.777000, -0.632200
  0.779000, -0.627400
  0.781000, -0.622100
  0.783000, -0.616000
  0.785000, -0.609400
  0.787000, -0.602000
  0.789000, -0.593900
  0.791000, -0.584900
  0.793000, -0.575500
  0.795000, -0.565500
  0.797000, -0.555000
  0.799000, -0.543700
  0.801000, -0.531900
  0.803000, -0.519600
  0.805000, -0.506900
  0.807000, -0.494000
  0.809000, -0.480700
  0.811000, -0.466900
  0.813000, -0.452900
  0.815000, -0.438400
  0.817000, -0.423600
  0.819000, -0.408600
  0.821000, -0.393400
  0.823000, -0.378100
  0.825000, -0.362800
  0.827000, -0.347300
  0.829000, -0.331500
  0.831000, -0.315700
  0.833000, -0.299900
  0.835000, -0.284200
  0.837000, -0.268500
  0.839000, -0.252900
  0.841000, -0.237600
  0.843000, -0.222400
  0.845000, -0.207400
  0.847000, -0.192700
  0.849000, -0.178200
  0.851000, -0.164000
  0.853000, -0.150100
  0.855000, -0.136500
  0.857000, -0.123300
  0.859000, -0.110500
  0.861000, -0.098400
  0.863000, -0.086800
  0.865000, -0.075400
  0.867000, -0.064600
  0.869000, -0.054100
  0.871000, -0.044300
  0.873000, -0.035000
  0.875000, -0.026200
  0.877000, -0.017900
  0.879000, -0.010200
  0.881000, -0.003000
  0.883000,  0.003600
  0.885000,  0.009600
  0.887000,  0.015100
  0.889000,  0.019900
  0.891000,  0.024200
  0.893000,  0.028000
  0.895000,  0.031300
  0.897000,  0.034000
  0.899000,  0.036300
  0.901000,  0.038000
  0.903000,  0.039300
  0.905000,  0.040100
  0.907000,  0.040500
  0.909000,  0.040400
  0.911000,  0.039900
  0.913000,  0.039000
  0.915000,  0.037800
  0.917000,  0.036200
  0.919000,  0.034100
  0.921000,  0.031800
  0.923000,  0.029300
  0.925000,  0.026500
  0.927000,  0.023300
  0.929000,  0.020000
  0.931000,  0.016500
  0.933000,  0.012600
  0.935000,  0.008800
  0.937000,  0.004800
  0.939000,  0.000700
  0.941000, -0.003500
  0.943000, -0.007700
  0.945000, -0.012200
  0.947000, -0.016700
  0.949000, -0.021000
  0.951000, -0.025300
  0.953000, -0.029600
  0.955000, -0.033900
  0.957000, -0.038400
  0.959000, -0.042800
  0.961000, -0.047100
  0.963000, -0.051300
  0.965000, -0.055500
  0.967000, -0.059700
  0.969000, -0.063700
  0.971000, -0.067500
  0.973000, -0.071100
  0.975000, -0.074600
  0.977000, -0.077900
  0.979000, -0.081200
  0.981000, -0.084400
  0.983000, -0.087600
  0.985000, -0.090500
  0.987000, -0.093100
  0.989000, -0.095600
  0.991000, -0.098100
  0.993000, -0.100200
  0.995000, -0.102200
  0.997000, -0.104200
  0.999000, -0.105800
  1.001000, -0.107200
  1.003000, -0.108400
  1.005000, -0.109500
  1.007000, -0.110600
  1.009000, -0.111400
  1.011000, -0.112100
  1.013000, -0.112500
  1.015000, -0.112700
  1.017000, -0.112800
  1.019000, -0.112800
  1.021000, -0.112600
  1.023000, -0.112100
  1.025000, -0.111600
  1.027000, -0.110900
  1.029000, -0.109900
  1.031000, -0.108900
  1.033000, -0.107700
  1.035000, -0.106300
  1.037000, -0.104800
  1.039000, -0.103100
  1.041000, -0.101400
  1.043000, -0.099400
  1.045000, -0.097400
  1.047000, -0.095300
  1.049000, -0.093100
  1.051000, -0.090700
  1.053000, -0.088200
  1.055000, -0.085600
  1.057000, -0.082900
  1.059000, -0.080200
  1.061000, -0.077300
  1.063000, -0.074300
  1.065000, -0.071300
  1.067000, -0.068300
  1.069000, -0.065100
  1.071000, -0.061800
  1.073000, -0.058400
  1.075000, -0.055100
  1.077000, -0.051800
  1.079000, -0.048300
  1.081000, -0.044900
  1.083000, -0.041400
  1.085000, -0.037800
  1.087000, -0.034200
  1.089000, -0.030800
  1.091000, -0.027300
  1.093000, -0.023800
  1.095000, -0.020200
  1.097000, -0.016700
  1.099000, -0.013400
  1.101000, -0.010100
  1.103000, -0.006700
  1.105000, -0.003400
  1.107000, -0.000100
  1.109000,  0.003000
  1.111000,  0.005900
  1.113000,  0.008900
  1.115000,  0.011900
  1.117000,  0.014700
  1.119000,  0.017300
  1.121000,  0.019900
  1.123000,  0.022400
  1.125000,  0.024900
  1.127000,  0.027200
  1.129000,  0.029200
  1.131000,  0.031200
  1.133000,  0.033300
  1.135000,  0.035100
  1.137000,  0.036900
  1.139000,  0.038500
  1.141000,  0.039800
  1.143000,  0.041100
  1.145000,  0.042200
  1.147000,  0.043100
  1.149000,  0.043800
  1.151000,  0.044500
  1.153000,  0.045000
  1.155000,  0.045300
  1.157000,  0.045500
  1.159000,  0.045600
  1.161000,  0.045500
  1.163000,  0.045400
  1.165000,  0.045300
  1.167000,  0.044900
  1.169000,  0.044500
  1.171000,  0.044000
  1.173000,  0.043300
  1.175000,  0.042600
  1.177000,  0.041700
  1.179000,  0.040700
  1.181000,  0.039700
  1.183000,  0.038700
  1.185000,  0.037600
  1.187000,  0.036500
  1.189000,  0.035400
  1.191000,  0.034100
  1.193000,  0.032800
  1.195000,  0.031500
  1.197000,  0.030100
  1.199000,  0.028700
  1.201000,  0.027300
  1.203000,  0.026000
  1.205000,  0.024700
  1.207000,  0.023400
  1.209000,  0.022100
  1.211000,  0.020800
  1.213000,  0.019600
  1.215000,  0.018400
  1.217000,  0.017400
  1.219000,  0.016300
  1.221000,  0.015300
  1.223000,  0.014500
  1.225000,  0.013900
  1.227000,  0.013300
  1.229000,  0.012600
  1.231000,  0.012100
  1.233000,  0.011700
  1.235000,  0.011300
  1.237000,  0.011100
  1.239000,  0.010900
  1.241000,  0.010800
  1.243000,  0.010700
  1.245000,  0.010700
  1.247000,  0.010600
  1.249000,  0.010700
  1.251000,  0.010800
  1.253000,  0.010900
  1.255000,  0.011100
  1.257000,  0.011300
  1.259000,  0.011600
  1.261000,  0.011900
  1.263000,  0.012100
  1.265000,  0.012300
  1.267000,  0.012400
  1.269000,  0.012600
  1.271000,  0.012700
  1.273000,  0.012800
  1.275000,  0.012800
  1.277000,  0.012700
  1.279000,  0.012600
  1.281000,  0.012300
  1.283000,  0.012000
  1.285000,  0.011700
  1.287000,  0.011300
  1.289000,  0.010900
  1.291000,  0.010400
  1.293000,  0.009700
  1.295000,  0.008900
  1.297000,  0.007900
  1.299000,  0.006800
  1.301000,  0.005600
  1.303000,  0.004500
  1.305000,  0.003200
  1.307000,  0.001800
  1.309000,  0.000300
  1.311000, -0.001300
  1.313000, -0.003000
  1.315000, -0.004700
  1.317000, -0.006500
  1.319000, -0.008400
  1.321000, -0.010200
  1.323000, -0.011900
  1.325000, -0.013700
  1.327000, -0.015500
  1.329000, -0.017200
  1.331000, -0.018900
  1.333000, -0.020500
  1.335000, -0.022000
  1.337000, -0.023300
  1.339000, -0.024500
  1.341000, -0.025500
  1.343000, -0.026500
  1.345000, -0.027200
  1.347000, -0.027900
  1.349000, -0.028400
  1.351000, -0.028700
  1.353000, -0.028900
  1.355000, -0.029100
  1.357000, -0.029000
  1.359000, -0.028700
  1.361000, -0.028100
  1.363000, -0.027400
  1.365000, -0.026200
  1.367000, -0.024800
  1.369000, -0.023200
  1.371000, -0.021500
  1.373000, -0.019600
  1.375000, -0.017500
  1.377000, -0.015500
  1.379000, -0.013300
  1.381000, -0.010900
  1.383000, -0.008500
  1.385000, -0.006100
  1.387000, -0.003500
  1.389000, -0.001100
  1.391000,  0.001100
  1.393000,  0.003300
  1.395000,  0.005300
  1.397000,  0.007000
  1.399000,  0.008600
