# z (nm)   (kJ/mol)
  0.305000, 14.915300
  0.307000, 14.428000
  0.309000, 13.924700
  0.311000, 13.403500
  0.313000, 12.876700
  0.315000, 12.344100
  0.317000, 11.808600
  0.319000, 11.260400
  0.321000, 10.702100
  0.323000, 10.147300
  0.325000,  9.588200
  0.327000,  9.019000
  0.329000,  8.446700
  0.331000,  7.876000
  0.333000,  7.308000
  0.335000,  6.748800
  0.337000,  6.199100
  0.339000,  5.655900
  0.341000,  5.116400
  0.343000,  4.580600
  0.345000,  4.051200
  0.347000,  3.533800
  0.349000,  3.030400
  0.351000,  2.531600
  0.353000,  2.039900
  0.355000,  1.562200
  0.357000,  1.096800
  0.359000,  0.644600
  0.361000,  0.199200
  0.363000, -0.235600
  0.365000, -0.653800
  0.367000, -1.066700
  0.369000, -1.470900
  0.371000, -1.861300
  0.373000, -2.241400
  0.375000, -2.609400
  0.377000, -2.965500
  0.379000, -3.313700
  0.381000, -3.648900
  0.383000, -3.968600
  0.385000, -4.274900
  0.387000, -4.568700
  0.389000, -4.850400
  0.391000, -5.119400
  0.393000, -5.374500
  0.395000, -5.617100
  0.397000, -5.847600
  0.399000, -6.063400
  0.401000, -6.267500
  0.403000, -6.458500
  0.405000, -6.635900
  0.407000, -6.801500
  0.409000, -6.953800
  0.411000, -7.093200
  0.413000, -7.221300
  0.415000, -7.337500
  0.417000, -7.439900
  0.419000, -7.530300
  0.421000, -7.608800
  0.423000, -7.676200
  0.425000, -7.733400
  0.427000, -7.777400
  0.429000, -7.811600
  0.431000, -7.837400
  0.433000, -7.855100
  0.435000, -7.863000
  0.437000, -7.859600
  0.439000, -7.848000
  0.441000, -7.827700
  0.443000, -7.801100
  0.445000, -7.770000
  0.447000, -7.732800
  0.449000, -7.688700
  0.451000, -7.637300
  0.453000, -7.582300
  0.455000, -7.523600
  0.457000, -7.459300
  0.459000, -7.390300
  0.461000, -7.318300
  0.463000, -7.242900
  0.465000, -7.164100
  0.467000, -7.083400
  0.469000, -7.000700
  0.471000, -6.916200
  0.473000, -6.830200
  0.475000, -6.743500
  0.477000, -6.656100
  0.479000, -6.567500
  0.481000, -6.478200
  0.483000, -6.389100
  0.485000, -6.300700
  0.487000, -6.213200
  0.489000, -6.125700
  0.491000, -6.038500
  0.493000, -5.952100
  0.495000, -5.866500
  0.497000, -5.781500
  0.499000, -5.697300
  0.501000, -5.614000
  0.503000, -5.531900
  0.505000, -5.450600
  0.507000, -5.369800
  0.509000, -5.289900
  0.511000, -5.211400
  0.513000, -5.134000
  0.515000, -5.056700
  0.517000, -4.979900
  0.519000, -4.904400
  0.521000, -4.829200
  0.523000, -4.754500
  0.525000, -4.680300
  0.527000, -4.607000
  0.529000, -4.535000
  0.531000, -4.463000
  0.533000, -4.390800
  0.535000, -4.318900
  0.537000, -4.247700
  0.539000, -4.176300
  0.541000, -4.104800
  0.543000, -4.033700
  0.545000, -3.962200
  0.547000, -3.890700
  0.549000, -3.819400
  0.551000, -3.747500
  0.553000, -3.675200
  0.555000, -3.603500
  0.557000, -3.531700
  0.559000, -3.459200
  0.561000, -3.386800
  0.563000, -3.314100
  0.565000, -3.240900
  0.567000, -3.167500
  0.569000, -3.093800
  0.571000, -3.019800
  0.573000, -2.945700
  0.575000, -2.871600
  0.577000, -2.797300
  0.579000, -2.722800
  0.581000, -2.648400
  0.583000, -2.573900
  0.585000, -2.499300
  0.587000, -2.424600
  0.589000, -2.349800
  0.591000, -2.275400
  0.593000, -2.201100
  0.595000, -2.127000
  0.597000, -2.053200
  0.599000, -1.979700
  0.601000, -1.906700
  0.603000, -1.834200
  0.605000, -1.762000
  0.607000, -1.690400
  0.609000, -1.619500
  0.611000, -1.549300
  0.613000, -1.479900
  0.615000, -1.411200
  0.617000, -1.343600
  0.619000, -1.277300
  0.621000, -1.211900
  0.623000, -1.147500
  0.625000, -1.084500
  0.627000, -1.022900
  0.629000, -0.962700
  0.631000, -0.904000
  0.633000, -0.846700
  0.635000, -0.790600
  0.637000, -0.736300
  0.639000, -0.683900
  0.641000, -0.633400
  0.643000, -0.584700
  0.645000, -0.537600
  0.647000, -0.492400
  0.649000, -0.449200
  0.651000, -0.408100
  0.653000, -0.368900
  0.655000, -0.331600
  0.657000, -0.296300
  0.659000, -0.263100
  0.661000, -0.232000
  0.663000, -0.202800
  0.665000, -0.175600
  0.667000, -0.150400
  0.669000, -0.127500
  0.671000, -0.106500
  0.673000, -0.087600
  0.675000, -0.070700
  0.677000, -0.055800
  0.679000, -0.042900
  0.681000, -0.031900
  0.683000, -0.022600
  0.685000, -0.015200
  0.687000, -0.009600
  0.689000, -0.005700
  0.691000, -0.003400
  0.693000, -0.002700
  0.695000, -0.003700
  0.697000, -0.006500
  0.699000, -0.010800
  0.701000, -0.016200
  0.703000, -0.022900
  0.705000, -0.030800
  0.707000, -0.039800
  0.709000, -0.049900
  0.711000, -0.061100
  0.713000, -0.073000
  0.715000, -0.085600
  0.717000, -0.099000
  0.719000, -0.113200
  0.721000, -0.127800
  0.723000, -0.143200
  0.725000, -0.159200
  0.727000, -0.175600
  0.729000, -0.192500
  0.731000, -0.209600
  0.733000, -0.226900
  0.735000, -0.244100
  0.737000, -0.261500
  0.739000, -0.279000
  0.741000, -0.296600
  0.743000, -0.314100
  0.745000, -0.331500
  0.747000, -0.348600
  0.749000, -0.365600
  0.751000, -0.382400
  0.753000, -0.398900
  0.755000, -0.415100
  0.757000, -0.430900
  0.759000, -0.446300
  0.761000, -0.461200
  0.763000, -0.475600
  0.765000, -0.489700
  0.767000, -0.503300
  0.769000, -0.516400
  0.771000, -0.529100
  0.773000, -0.541200
  0.775000, -0.552700
  0.777000, -0.563800
  0.779000, -0.574300
  0.781000, -0.584500
  0.783000, -0.594000
  0.785000, -0.602800
  0.787000, -0.611100
  0.789000, -0.619000
  0.791000, -0.626400
  0.793000, -0.633200
  0.795000, -0.639500
  0.797000, -0.645300
  0.799000, -0.650400
  0.801000, -0.655100
  0.803000, -0.659200
  0.805000, -0.662600
  0.807000, -0.665600
  0.809000, -0.668100
  0.811000, -0.670200
  0.813000, -0.671600
  0.815000, -0.672600
  0.817000, -0.673100
  0.819000, -0.673300
  0.821000, -0.673000
  0.823000, -0.672100
  0.825000, -0.670700
  0.827000, -0.668900
  0.829000, -0.666600
  0.831000, -0.663900
  0.833000, -0.660800
  0.835000, -0.657300
  0.837000, -0.653400
  0.839000, -0.649000
  0.841000, -0.644200
  0.843000, -0.638800
  0.845000, -0.633100
  0.847000, -0.627000
  0.849000, -0.620700
  0.851000, -0.613800
  0.853000, -0.606400
  0.855000, -0.598800
  0.857000, -0.590900
  0.859000, -0.582700
  0.861000, -0.574200
  0.863000, -0.565300
  0.865000, -0.556000
  0.867000, -0.546400
  0.869000, -0.536600
  0.871000, -0.526600
  0.873000, -0.516500
  0.875000, -0.506000
  0.877000, -0.495200
  0.879000, -0.484100
  0.881000, -0.472800
  0.883000, -0.461300
  0.885000, -0.449500
  0.887000, -0.437500
  0.889000, -0.425400
  0.891000, -0.413300
  0.893000, -0.401100
  0.895000, -0.388900
  0.897000, -0.376800
  0.899000, -0.364500
  0.901000, -0.352100
  0.903000, -0.339500
  0.905000, -0.327100
  0.907000, -0.314900
  0.909000, -0.302600
  0.911000, -0.290600
  0.913000, -0.278900
  0.915000, -0.267200
  0.917000, -0.255400
  0.919000, -0.243800
  0.921000, -0.232400
  0.923000, -0.221100
  0.925000, -0.210100
  0.927000, -0.199400
  0.929000, -0.188800
  0.931000, -0.178400
  0.933000, -0.168300
  0.935000, -0.158500
  0.937000, -0.148900
  0.939000, -0.139700
  0.941000, -0.131000
  0.943000, -0.122400
  0.945000, -0.114200
  0.947000, -0.106300
  0.949000, -0.098800
  0.951000, -0.091500
  0.953000, -0.084400
  0.955000, -0.077700
  0.957000, -0.071300
  0.959000, -0.065200
  0.961000, -0.059300
  0.963000, -0.053800
  0.965000, -0.048600
  0.967000, -0.043500
  0.969000, -0.038800
  0.971000, -0.034300
  0.973000, -0.029900
  0.975000, -0.025800
  0.977000, -0.021900
  0.979000, -0.018400
  0.981000, -0.014900
  0.983000, -0.011600
  0.985000, -0.008500
  0.987000, -0.005800
  0.989000, -0.003300
  0.991000, -0.000800
  0.993000,  0.001500
  0.995000,  0.003700
  0.997000,  0.005600
  0.999000,  0.007400
  1.001000,  0.009000
  1.003000,  0.010500
  1.005000,  0.011800
  1.007000,  0.013000
  1.009000,  0.014200
  1.011000,  0.015300
  1.013000,  0.016300
  1.015000,  0.017000
  1.017000,  0.017600
  1.019000,  0.018100
  1.021000,  0.018500
  1.023000,  0.018800
  1.025000,  0.019000
  1.027000,  0.019200
  1.029000,  0.019200
  1.031000,  0.019100
  1.033000,  0.018900
  1.035000,  0.018600
  1.037000,  0.018300
  1.039000,  0.017800
  1.041000,  0.017300
  1.043000,  0.016600
  1.045000,  0.015800
  1.047000,  0.015000
  1.049000,  0.014100
  1.051000,  0.013200
  1.053000,  0.012200
  1.055000,  0.011100
  1.057000,  0.010000
  1.059000,  0.008600
  1.061000,  0.007200
  1.063000,  0.005700
  1.065000,  0.004100
  1.067000,  0.002400
  1.069000,  0.000700
  1.071000, -0.001200
  1.073000, -0.003000
  1.075000, -0.004600
  1.077000, -0.006300
  1.079000, -0.008000
  1.081000, -0.009900
  1.083000, -0.012000
  1.085000, -0.013800
  1.087000, -0.015500
  1.089000, -0.017300
  1.091000, -0.019200
  1.093000, -0.021000
  1.095000, -0.022700
  1.097000, -0.024600
  1.099000, -0.026300
  1.101000, -0.028000
  1.103000, -0.029700
  1.105000, -0.031400
  1.107000, -0.033000
  1.109000, -0.034300
  1.111000, -0.035600
  1.113000, -0.036900
  1.115000, -0.038200
  1.117000, -0.039300
  1.119000, -0.040300
  1.121000, -0.041200
  1.123000, -0.041900
  1.125000, -0.042500
  1.127000, -0.043000
  1.129000, -0.043300
  1.131000, -0.043400
  1.133000, -0.043400
  1.135000, -0.043400
  1.137000, -0.043300
  1.139000, -0.043000
  1.141000, -0.042600
  1.143000, -0.041900
  1.145000, -0.041200
  1.147000, -0.040400
  1.149000, -0.039400
  1.151000, -0.038500
  1.153000, -0.037400
  1.155000, -0.036300
  1.157000, -0.035000
  1.159000, -0.033700
  1.161000, -0.032300
  1.163000, -0.030800
  1.165000, -0.029200
  1.167000, -0.027600
  1.169000, -0.026000
  1.171000, -0.024300
  1.173000, -0.022700
  1.175000, -0.021000
  1.177000, -0.019200
  1.179000, -0.017300
  1.181000, -0.015500
  1.183000, -0.013700
  1.185000, -0.011900
  1.187000, -0.010100
  1.189000, -0.008400
  1.191000, -0.006700
  1.193000, -0.005100
  1.195000, -0.003500
  1.197000, -0.002000
  1.199000, -0.000500
  1.201000,  0.000900
  1.203000,  0.002300
  1.205000,  0.003700
  1.207000,  0.005000
  1.209000,  0.006300
  1.211000,  0.007500
  1.213000,  0.008600
  1.215000,  0.009600
  1.217000,  0.010600
  1.219000,  0.011700
  1.221000,  0.012600
  1.223000,  0.013400
  1.225000,  0.014300
  1.227000,  0.015100
  1.229000,  0.015800
  1.231000,  0.016500
  1.233000,  0.017000
  1.235000,  0.017500
  1.237000,  0.017900
  1.239000,  0.018300
  1.241000,  0.018600
  1.243000,  0.018800
  1.245000,  0.019000
  1.247000,  0.019000
  1.249000,  0.019100
  1.251000,  0.019100
  1.253000,  0.019100
  1.255000,  0.019000
  1.257000,  0.018800
  1.259000,  0.018600
  1.261000,  0.018300
  1.263000,  0.018000
  1.265000,  0.017700
  1.267000,  0.017200
  1.269000,  0.016700
  1.271000,  0.016000
  1.273000,  0.015300
  1.275000,  0.014400
  1.277000,  0.013700
  1.279000,  0.012900
  1.281000,  0.012000
  1.283000,  0.010900
  1.285000,  0.009800
  1.287000,  0.008800
  1.289000,  0.008000
  1.291000,  0.007100
  1.293000,  0.006000
  1.295000,  0.004700
  1.297000,  0.003400
  1.299000,  0.002100
  1.301000,  0.000800
  1.303000, -0.000500
  1.305000, -0.001900
  1.307000, -0.003200
  1.309000, -0.004400
  1.311000, -0.005700
  1.313000, -0.006900
  1.315000, -0.008100
  1.317000, -0.009300
  1.319000, -0.010700
  1.321000, -0.012000
  1.323000, -0.013100
  1.325000, -0.014200
  1.327000, -0.015400
  1.329000, -0.016500
  1.331000, -0.017600
  1.333000, -0.018600
  1.335000, -0.019200
  1.337000, -0.019800
  1.339000, -0.020400
  1.341000, -0.020800
  1.343000, -0.021200
  1.345000, -0.021400
  1.347000, -0.021700
  1.349000, -0.021700
  1.351000, -0.021600
  1.353000, -0.021500
  1.355000, -0.021200
  1.357000, -0.020900
  1.359000, -0.020400
  1.361000, -0.019700
  1.363000, -0.018900
  1.365000, -0.018200
  1.367000, -0.017500
  1.369000, -0.016600
  1.371000, -0.015500
  1.373000, -0.014400
  1.375000, -0.013400
  1.377000, -0.012300
  1.379000, -0.011100
  1.381000, -0.010000
  1.383000, -0.009000
  1.385000, -0.008100
  1.387000, -0.006900
  1.389000, -0.005900
  1.391000, -0.005200
  1.393000, -0.004400
  1.395000, -0.004100
  1.397000, -0.004400
  1.399000, -0.004800
