# z (nm)   (kJ/mol)
  0.265000, 12.117300
  0.269000, 11.687100
  0.271000, 11.245500
  0.273000, 10.772900
  0.275000, 10.278900
  0.277000,  9.786000
  0.279000,  9.302800
  0.281000,  8.812400
  0.283000,  8.310500
  0.285000,  7.808000
  0.287000,  7.310500
  0.289000,  6.822000
  0.291000,  6.326200
  0.293000,  5.829600
  0.295000,  5.330600
  0.297000,  4.830400
  0.299000,  4.339700
  0.301000,  3.861100
  0.303000,  3.386900
  0.305000,  2.914500
  0.307000,  2.450400
  0.309000,  1.994600
  0.311000,  1.541800
  0.313000,  1.096400
  0.315000,  0.661500
  0.317000,  0.232900
  0.319000, -0.187900
  0.321000, -0.598000
  0.323000, -0.997900
  0.325000, -1.390700
  0.327000, -1.766800
  0.329000, -2.129600
  0.331000, -2.484700
  0.333000, -2.827900
  0.335000, -3.160700
  0.337000, -3.483600
  0.339000, -3.792400
  0.341000, -4.088100
  0.343000, -4.372900
  0.345000, -4.647500
  0.347000, -4.912100
  0.349000, -5.165400
  0.351000, -5.405800
  0.353000, -5.633400
  0.355000, -5.850600
  0.357000, -6.057000
  0.359000, -6.251600
  0.361000, -6.433800
  0.363000, -6.604000
  0.365000, -6.763100
  0.367000, -6.910400
  0.369000, -7.044600
  0.371000, -7.167200
  0.373000, -7.278300
  0.375000, -7.375900
  0.377000, -7.461800
  0.379000, -7.536800
  0.381000, -7.600300
  0.383000, -7.651800
  0.385000, -7.692600
  0.387000, -7.723000
  0.389000, -7.742200
  0.391000, -7.749800
  0.393000, -7.748300
  0.395000, -7.737600
  0.397000, -7.717500
  0.399000, -7.688300
  0.401000, -7.650400
  0.403000, -7.603300
  0.405000, -7.546400
  0.407000, -7.483300
  0.409000, -7.412800
  0.411000, -7.334200
  0.413000, -7.249600
  0.415000, -7.158500
  0.417000, -7.062400
  0.419000, -6.962600
  0.421000, -6.857400
  0.423000, -6.747300
  0.425000, -6.634000
  0.427000, -6.516900
  0.429000, -6.396200
  0.431000, -6.273400
  0.433000, -6.148100
  0.435000, -6.021200
  0.437000, -5.893400
  0.439000, -5.764300
  0.441000, -5.634100
  0.443000, -5.502700
  0.445000, -5.371100
  0.447000, -5.239800
  0.449000, -5.108800
  0.451000, -4.977900
  0.453000, -4.847100
  0.455000, -4.717100
  0.457000, -4.588400
  0.459000, -4.460900
  0.461000, -4.334700
  0.463000, -4.210300
  0.465000, -4.087300
  0.467000, -3.965700
  0.469000, -3.846100
  0.471000, -3.728600
  0.473000, -3.613100
  0.475000, -3.499700
  0.477000, -3.388500
  0.479000, -3.279500
  0.481000, -3.172800
  0.483000, -3.068500
  0.485000, -2.966900
  0.487000, -2.867800
  0.489000, -2.771300
  0.491000, -2.677500
  0.493000, -2.586100
  0.495000, -2.497200
  0.497000, -2.411100
  0.499000, -2.327500
  0.501000, -2.246700
  0.503000, -2.168400
  0.505000, -2.092700
  0.507000, -2.019900
  0.509000, -1.949900
  0.511000, -1.882500
  0.513000, -1.817900
  0.515000, -1.756200
  0.517000, -1.697100
  0.519000, -1.640700
  0.521000, -1.587100
  0.523000, -1.536100
  0.525000, -1.487800
  0.527000, -1.442200
  0.529000, -1.399100
  0.531000, -1.358700
  0.533000, -1.320700
  0.535000, -1.285200
  0.537000, -1.252200
  0.539000, -1.221900
  0.541000, -1.194000
  0.543000, -1.168400
  0.545000, -1.145100
  0.547000, -1.124400
  0.549000, -1.106200
  0.551000, -1.090100
  0.553000, -1.076100
  0.555000, -1.064300
  0.557000, -1.054600
  0.559000, -1.047000
  0.561000, -1.041600
  0.563000, -1.038000
  0.565000, -1.036300
  0.567000, -1.036600
  0.569000, -1.038600
  0.571000, -1.042300
  0.573000, -1.047600
  0.575000, -1.054100
  0.577000, -1.062100
  0.579000, -1.071400
  0.581000, -1.082000
  0.583000, -1.094100
  0.585000, -1.107200
  0.587000, -1.121100
  0.589000, -1.135900
  0.591000, -1.151400
  0.593000, -1.167800
  0.595000, -1.184800
  0.597000, -1.202300
  0.599000, -1.220200
  0.601000, -1.238500
  0.603000, -1.256800
  0.605000, -1.275500
  0.607000, -1.294400
  0.609000, -1.313000
  0.611000, -1.331600
  0.613000, -1.350200
  0.615000, -1.368500
  0.617000, -1.386400
  0.619000, -1.403900
  0.621000, -1.420900
  0.623000, -1.437200
  0.625000, -1.452900
  0.627000, -1.468000
  0.629000, -1.482400
  0.631000, -1.496000
  0.633000, -1.508600
  0.635000, -1.520300
  0.637000, -1.531300
  0.639000, -1.541200
  0.641000, -1.550300
  0.643000, -1.558400
  0.645000, -1.565700
  0.647000, -1.571800
  0.649000, -1.576600
  0.651000, -1.580300
  0.653000, -1.583000
  0.655000, -1.585000
  0.657000, -1.586000
  0.659000, -1.585800
  0.661000, -1.584600
  0.663000, -1.582500
  0.665000, -1.579200
  0.667000, -1.574900
  0.669000, -1.569800
  0.671000, -1.563800
  0.673000, -1.557000
  0.675000, -1.549300
  0.677000, -1.540900
  0.679000, -1.532000
  0.681000, -1.522300
  0.683000, -1.511900
  0.685000, -1.500800
  0.687000, -1.489100
  0.689000, -1.477200
  0.691000, -1.464800
  0.693000, -1.451900
  0.695000, -1.438500
  0.697000, -1.424900
  0.699000, -1.411000
  0.701000, -1.396700
  0.703000, -1.382500
  0.705000, -1.368200
  0.707000, -1.353800
  0.709000, -1.339200
  0.711000, -1.324400
  0.713000, -1.309800
  0.715000, -1.295100
  0.717000, -1.280500
  0.719000, -1.266100
  0.721000, -1.251800
  0.723000, -1.237600
  0.725000, -1.223600
  0.727000, -1.209700
  0.729000, -1.195900
  0.731000, -1.182300
  0.733000, -1.169000
  0.735000, -1.155900
  0.737000, -1.142900
  0.739000, -1.130000
  0.741000, -1.117300
  0.743000, -1.104700
  0.745000, -1.092400
  0.747000, -1.080200
  0.749000, -1.068300
  0.751000, -1.056500
  0.753000, -1.045000
  0.755000, -1.033600
  0.757000, -1.022300
  0.759000, -1.011300
  0.761000, -1.000400
  0.763000, -0.989500
  0.765000, -0.978800
  0.767000, -0.968100
  0.769000, -0.957400
  0.771000, -0.946700
  0.773000, -0.936300
  0.775000, -0.926000
  0.777000, -0.915600
  0.779000, -0.905300
  0.781000, -0.894900
  0.783000, -0.884600
  0.785000, -0.874500
  0.787000, -0.864300
  0.789000, -0.854000
  0.791000, -0.843800
  0.793000, -0.833500
  0.795000, -0.823400
  0.797000, -0.813400
  0.799000, -0.803400
  0.801000, -0.793400
  0.803000, -0.783400
  0.805000, -0.773500
  0.807000, -0.763500
  0.809000, -0.753600
  0.811000, -0.743800
  0.813000, -0.734000
  0.815000, -0.724300
  0.817000, -0.714800
  0.819000, -0.705200
  0.821000, -0.695800
  0.823000, -0.686600
  0.825000, -0.677600
  0.827000, -0.668600
  0.829000, -0.659800
  0.831000, -0.651200
  0.833000, -0.642700
  0.835000, -0.634300
  0.837000, -0.626000
  0.839000, -0.617900
  0.841000, -0.610100
  0.843000, -0.602400
  0.845000, -0.594900
  0.847000, -0.587400
  0.849000, -0.580100
  0.851000, -0.573200
  0.853000, -0.566400
  0.855000, -0.559800
  0.857000, -0.553400
  0.859000, -0.547300
  0.861000, -0.541600
  0.863000, -0.535900
  0.865000, -0.530300
  0.867000, -0.524900
  0.869000, -0.519500
  0.871000, -0.514400
  0.873000, -0.509600
  0.875000, -0.505000
  0.877000, -0.500700
  0.879000, -0.496600
  0.881000, -0.492400
  0.883000, -0.488400
  0.885000, -0.484500
  0.887000, -0.480700
  0.889000, -0.477000
  0.891000, -0.473500
  0.893000, -0.470000
  0.895000, -0.466500
  0.897000, -0.463100
  0.899000, -0.459800
  0.901000, -0.456700
  0.903000, -0.453600
  0.905000, -0.450500
  0.907000, -0.447400
  0.909000, -0.444500
  0.911000, -0.441700
  0.913000, -0.438800
  0.915000, -0.436000
  0.917000, -0.433100
  0.919000, -0.430400
  0.921000, -0.427700
  0.923000, -0.425000
  0.925000, -0.422200
  0.927000, -0.419400
  0.929000, -0.416600
  0.931000, -0.413800
  0.933000, -0.411000
  0.935000, -0.408300
  0.937000, -0.405600
  0.939000, -0.402900
  0.941000, -0.400200
  0.943000, -0.397500
  0.945000, -0.394700
  0.947000, -0.392000
  0.949000, -0.389200
  0.951000, -0.386300
  0.953000, -0.383500
  0.955000, -0.380700
  0.957000, -0.378000
  0.959000, -0.375300
  0.961000, -0.372500
  0.963000, -0.369600
  0.965000, -0.366800
  0.967000, -0.363900
  0.969000, -0.361100
  0.971000, -0.358100
  0.973000, -0.355400
  0.975000, -0.352700
  0.977000, -0.350100
  0.979000, -0.347400
  0.981000, -0.344700
  0.983000, -0.342000
  0.985000, -0.339200
  0.987000, -0.336600
  0.989000, -0.334100
  0.991000, -0.331500
  0.993000, -0.329000
  0.995000, -0.326500
  0.997000, -0.324100
  0.999000, -0.321800
  1.001000, -0.319400
  1.003000, -0.317000
  1.005000, -0.314700
  1.007000, -0.312200
  1.009000, -0.309800
  1.011000, -0.307500
  1.013000, -0.305300
  1.015000, -0.303100
  1.017000, -0.300800
  1.019000, -0.298400
  1.021000, -0.296200
  1.023000, -0.293800
  1.025000, -0.291500
  1.027000, -0.289100
  1.029000, -0.286700
  1.031000, -0.284300
  1.033000, -0.282000
  1.035000, -0.279700
  1.037000, -0.277300
  1.039000, -0.274900
  1.041000, -0.272500
  1.043000, -0.270100
  1.045000, -0.267600
  1.047000, -0.265200
  1.049000, -0.262700
  1.051000, -0.260200
  1.053000, -0.257700
  1.055000, -0.255200
  1.057000, -0.252700
  1.059000, -0.250100
  1.061000, -0.247400
  1.063000, -0.244800
  1.065000, -0.242300
  1.067000, -0.239800
  1.069000, -0.237200
  1.071000, -0.234600
  1.073000, -0.232100
  1.075000, -0.229400
  1.077000, -0.226800
  1.079000, -0.224400
  1.081000, -0.221900
  1.083000, -0.219400
  1.085000, -0.217000
  1.087000, -0.214600
  1.089000, -0.212100
  1.091000, -0.209700
  1.093000, -0.207300
  1.095000, -0.205000
  1.097000, -0.202800
  1.099000, -0.200600
  1.101000, -0.198400
  1.103000, -0.196200
  1.105000, -0.194000
  1.107000, -0.191900
  1.109000, -0.189700
  1.111000, -0.187500
  1.113000, -0.185400
  1.115000, -0.183300
  1.117000, -0.181300
  1.119000, -0.179400
  1.121000, -0.177600
  1.123000, -0.175700
  1.125000, -0.174000
  1.127000, -0.172300
  1.129000, -0.170600
  1.131000, -0.168900
  1.133000, -0.167200
  1.135000, -0.165500
  1.137000, -0.163800
  1.139000, -0.162100
  1.141000, -0.160400
  1.143000, -0.158700
  1.145000, -0.157200
  1.147000, -0.155600
  1.149000, -0.154000
  1.151000, -0.152500
  1.153000, -0.150900
  1.155000, -0.149300
  1.157000, -0.147600
  1.159000, -0.146100
  1.161000, -0.144400
  1.163000, -0.142700
  1.165000, -0.141000
  1.167000, -0.139300
  1.169000, -0.137500
  1.171000, -0.135600
  1.173000, -0.133800
  1.175000, -0.131900
  1.177000, -0.130000
  1.179000, -0.128100
  1.181000, -0.126000
  1.183000, -0.123900
  1.185000, -0.121800
  1.187000, -0.119800
  1.189000, -0.117600
  1.191000, -0.115400
  1.193000, -0.113000
  1.195000, -0.110600
  1.197000, -0.108200
  1.199000, -0.105800
  1.201000, -0.103400
  1.203000, -0.100900
  1.205000, -0.098300
  1.207000, -0.095700
  1.209000, -0.093000
  1.211000, -0.090400
  1.213000, -0.087600
  1.215000, -0.084800
  1.217000, -0.082100
  1.219000, -0.079300
  1.221000, -0.076500
  1.223000, -0.073800
  1.225000, -0.071200
  1.227000, -0.068500
  1.229000, -0.065900
  1.231000, -0.063200
  1.233000, -0.060600
  1.235000, -0.058100
  1.237000, -0.055600
  1.239000, -0.053100
  1.241000, -0.050700
  1.243000, -0.048400
  1.245000, -0.046000
  1.247000, -0.043800
  1.249000, -0.041600
  1.251000, -0.039500
  1.253000, -0.037500
  1.255000, -0.035600
  1.257000, -0.033900
  1.259000, -0.032300
  1.261000, -0.030700
  1.263000, -0.029100
  1.265000, -0.027600
  1.267000, -0.026200
  1.269000, -0.024900
  1.271000, -0.023600
  1.273000, -0.022500
  1.275000, -0.021300
  1.277000, -0.020200
  1.279000, -0.019200
  1.281000, -0.018200
  1.283000, -0.017100
  1.285000, -0.016300
  1.287000, -0.015500
  1.289000, -0.014700
  1.291000, -0.014000
  1.293000, -0.013100
  1.295000, -0.012200
  1.297000, -0.011300
  1.299000, -0.010600
  1.301000, -0.009800
  1.303000, -0.008900
  1.305000, -0.008200
  1.307000, -0.007300
  1.309000, -0.006200
  1.311000, -0.005200
  1.313000, -0.004100
  1.315000, -0.002800
  1.317000, -0.001500
  1.319000, -0.000000
  1.321000,  0.001500
  1.323000,  0.003100
  1.325000,  0.004800
  1.327000,  0.006600
  1.329000,  0.008800
  1.331000,  0.011100
  1.333000,  0.013400
  1.335000,  0.015900
  1.337000,  0.018600
  1.339000,  0.021300
  1.341000,  0.024100
  1.343000,  0.027100
  1.345000,  0.030300
  1.347000,  0.033600
  1.349000,  0.037100
  1.351000,  0.040700
  1.353000,  0.044500
  1.355000,  0.048300
  1.357000,  0.052300
  1.359000,  0.056400
  1.361000,  0.060500
  1.363000,  0.064700
  1.365000,  0.068900
  1.367000,  0.073200
  1.369000,  0.077700
  1.371000,  0.082300
  1.373000,  0.086900
  1.375000,  0.091600
  1.377000,  0.096200
  1.379000,  0.100700
  1.381000,  0.105200
  1.383000,  0.109800
  1.385000,  0.114200
  1.387000,  0.118500
  1.389000,  0.122600
  1.391000,  0.126200
  1.393000,  0.129700
  1.395000,  0.133100
  1.397000,  0.136000
  1.399000,  0.138500
