# z (nm)   (kJ/mol)
  0.283000,  3.857000
  0.285000,  3.187600
  0.287000,  2.512800
  0.289000,  1.927700
  0.291000,  1.362600
  0.293000,  0.722600
  0.295000,  0.078800
  0.297000, -0.559500
  0.299000, -1.204000
  0.301000, -1.850200
  0.303000, -2.493200
  0.305000, -3.139000
  0.307000, -3.788400
  0.309000, -4.430500
  0.311000, -5.062200
  0.313000, -5.688700
  0.315000, -6.313500
  0.317000, -6.930700
  0.319000, -7.532800
  0.321000, -8.118900
  0.323000, -8.693600
  0.325000, -9.257900
  0.327000, -9.806000
  0.329000,-10.338100
  0.331000,-10.858500
  0.333000,-11.363500
  0.335000,-11.853000
  0.337000,-12.327000
  0.339000,-12.785100
  0.341000,-13.228100
  0.343000,-13.654500
  0.345000,-14.063900
  0.347000,-14.456700
  0.349000,-14.830500
  0.351000,-15.184600
  0.353000,-15.521700
  0.355000,-15.839700
  0.357000,-16.134400
  0.359000,-16.407100
  0.361000,-16.658900
  0.363000,-16.894600
  0.365000,-17.110000
  0.367000,-17.295700
  0.369000,-17.459200
  0.371000,-17.606700
  0.373000,-17.733100
  0.375000,-17.836300
  0.377000,-17.911700
  0.379000,-17.961100
  0.381000,-17.989900
  0.383000,-17.986700
  0.385000,-17.954100
  0.387000,-17.905400
  0.389000,-17.836800
  0.391000,-17.739700
  0.393000,-17.615500
  0.395000,-17.458300
  0.397000,-17.282600
  0.399000,-17.092300
  0.401000,-16.877500
  0.403000,-16.633700
  0.405000,-16.380300
  0.407000,-16.117100
  0.409000,-15.825200
  0.411000,-15.516400
  0.413000,-15.200200
  0.415000,-14.872000
  0.417000,-14.529400
  0.419000,-14.200400
  0.421000,-13.875300
  0.423000,-13.536000
  0.425000,-13.193100
  0.427000,-12.848200
  0.429000,-12.500100
  0.431000,-12.152600
  0.433000,-11.824900
  0.435000,-11.499800
  0.437000,-11.159400
  0.439000,-10.827300
  0.441000,-10.503600
  0.443000,-10.192600
  0.445000, -9.890000
  0.447000, -9.589700
  0.449000, -9.308100
  0.451000, -9.029300
  0.453000, -8.749400
  0.455000, -8.481600
  0.457000, -8.219100
  0.459000, -7.962500
  0.461000, -7.716500
  0.463000, -7.481400
  0.465000, -7.254300
  0.467000, -7.038200
  0.469000, -6.830900
  0.471000, -6.630700
  0.473000, -6.441900
  0.475000, -6.261500
  0.477000, -6.091200
  0.479000, -5.928300
  0.481000, -5.769300
  0.483000, -5.617600
  0.485000, -5.471500
  0.487000, -5.330900
  0.489000, -5.201600
  0.491000, -5.081900
  0.493000, -4.967200
  0.495000, -4.857400
  0.497000, -4.753700
  0.499000, -4.655600
  0.501000, -4.561900
  0.503000, -4.475600
  0.505000, -4.389900
  0.507000, -4.310400
  0.509000, -4.238800
  0.511000, -4.167800
  0.513000, -4.099000
  0.515000, -4.039900
  0.517000, -3.988000
  0.519000, -3.938800
  0.521000, -3.894500
  0.523000, -3.852100
  0.525000, -3.810800
  0.527000, -3.771400
  0.529000, -3.736300
  0.531000, -3.706100
  0.533000, -3.677100
  0.535000, -3.648400
  0.537000, -3.621800
  0.539000, -3.596500
  0.541000, -3.572100
  0.543000, -3.550800
  0.545000, -3.530100
  0.547000, -3.508900
  0.549000, -3.489100
  0.551000, -3.468300
  0.553000, -3.446700
  0.555000, -3.425900
  0.557000, -3.406200
  0.559000, -3.386500
  0.561000, -3.365600
  0.563000, -3.344000
  0.565000, -3.322200
  0.567000, -3.299200
  0.569000, -3.274700
  0.571000, -3.249900
  0.573000, -3.224400
  0.575000, -3.198200
  0.577000, -3.170500
  0.579000, -3.141500
  0.581000, -3.111400
  0.583000, -3.078700
  0.585000, -3.045500
  0.587000, -3.011800
  0.589000, -2.976000
  0.591000, -2.938600
  0.593000, -2.900500
  0.595000, -2.860600
  0.597000, -2.817200
  0.599000, -2.773300
  0.601000, -2.729700
  0.603000, -2.684900
  0.605000, -2.638300
  0.607000, -2.591300
  0.609000, -2.544200
  0.611000, -2.495400
  0.613000, -2.444400
  0.615000, -2.392800
  0.617000, -2.341300
  0.619000, -2.289600
  0.621000, -2.237000
  0.623000, -2.184700
  0.625000, -2.132500
  0.627000, -2.080200
  0.629000, -2.028300
  0.631000, -1.976300
  0.633000, -1.924500
  0.635000, -1.872800
  0.637000, -1.821100
  0.639000, -1.770100
  0.641000, -1.720300
  0.643000, -1.670700
  0.645000, -1.620900
  0.647000, -1.571300
  0.649000, -1.523100
  0.651000, -1.475400
  0.653000, -1.427900
  0.655000, -1.381700
  0.657000, -1.336700
  0.659000, -1.292600
  0.661000, -1.249500
  0.663000, -1.207100
  0.665000, -1.165600
  0.667000, -1.125000
  0.669000, -1.086000
  0.671000, -1.048500
  0.673000, -1.012100
  0.675000, -0.976900
  0.677000, -0.943000
  0.679000, -0.910300
  0.681000, -0.878700
  0.683000, -0.848600
  0.685000, -0.820100
  0.687000, -0.792900
  0.689000, -0.767100
  0.691000, -0.742900
  0.693000, -0.719900
  0.695000, -0.698300
  0.697000, -0.678500
  0.699000, -0.660400
  0.701000, -0.643600
  0.703000, -0.628000
  0.705000, -0.613800
  0.707000, -0.601000
  0.709000, -0.589600
  0.711000, -0.579700
  0.713000, -0.571100
  0.715000, -0.563700
  0.717000, -0.557600
  0.719000, -0.552600
  0.721000, -0.548700
  0.723000, -0.545800
  0.725000, -0.544000
  0.727000, -0.543300
  0.729000, -0.543600
  0.731000, -0.544800
  0.733000, -0.546800
  0.735000, -0.549600
  0.737000, -0.553000
  0.739000, -0.557000
  0.741000, -0.561700
  0.743000, -0.567100
  0.745000, -0.572800
  0.747000, -0.578800
  0.749000, -0.585200
  0.751000, -0.591900
  0.753000, -0.599000
  0.755000, -0.606200
  0.757000, -0.613500
  0.759000, -0.620700
  0.761000, -0.627900
  0.763000, -0.635200
  0.765000, -0.642300
  0.767000, -0.649300
  0.769000, -0.655900
  0.771000, -0.662500
  0.773000, -0.668800
  0.775000, -0.675000
  0.777000, -0.680600
  0.779000, -0.685800
  0.781000, -0.690600
  0.783000, -0.695000
  0.785000, -0.699000
  0.787000, -0.702500
  0.789000, -0.705600
  0.791000, -0.708200
  0.793000, -0.710100
  0.795000, -0.711500
  0.797000, -0.712500
  0.799000, -0.712800
  0.801000, -0.712700
  0.803000, -0.712000
  0.805000, -0.710800
  0.807000, -0.708900
  0.809000, -0.706400
  0.811000, -0.703400
  0.813000, -0.699900
  0.815000, -0.696000
  0.817000, -0.691600
  0.819000, -0.686600
  0.821000, -0.681200
  0.823000, -0.675200
  0.825000, -0.668700
  0.827000, -0.661800
  0.829000, -0.654500
  0.831000, -0.646700
  0.833000, -0.638500
  0.835000, -0.629900
  0.837000, -0.621000
  0.839000, -0.611500
  0.841000, -0.601700
  0.843000, -0.591800
  0.845000, -0.581700
  0.847000, -0.571300
  0.849000, -0.560500
  0.851000, -0.549100
  0.853000, -0.537600
  0.855000, -0.525900
  0.857000, -0.513900
  0.859000, -0.501600
  0.861000, -0.489300
  0.863000, -0.476900
  0.865000, -0.464200
  0.867000, -0.451400
  0.869000, -0.438400
  0.871000, -0.425200
  0.873000, -0.412200
  0.875000, -0.399100
  0.877000, -0.385700
  0.879000, -0.372300
  0.881000, -0.359100
  0.883000, -0.345900
  0.885000, -0.332800
  0.887000, -0.319700
  0.889000, -0.306600
  0.891000, -0.293600
  0.893000, -0.280600
  0.895000, -0.267800
  0.897000, -0.255000
  0.899000, -0.242200
  0.901000, -0.229400
  0.903000, -0.216800
  0.905000, -0.204500
  0.907000, -0.192500
  0.909000, -0.180800
  0.911000, -0.169000
  0.913000, -0.157500
  0.915000, -0.146300
  0.917000, -0.135500
  0.919000, -0.124900
  0.921000, -0.114500
  0.923000, -0.104200
  0.925000, -0.094100
  0.927000, -0.084700
  0.929000, -0.075600
  0.931000, -0.066700
  0.933000, -0.058200
  0.935000, -0.049900
  0.937000, -0.041600
  0.939000, -0.033600
  0.941000, -0.026100
  0.943000, -0.019000
  0.945000, -0.012300
  0.947000, -0.005800
  0.949000,  0.000600
  0.951000,  0.006500
  0.953000,  0.012000
  0.955000,  0.017200
  0.957000,  0.022100
  0.959000,  0.026600
  0.961000,  0.030700
  0.963000,  0.034400
  0.965000,  0.038000
  0.967000,  0.041200
  0.969000,  0.044200
  0.971000,  0.047200
  0.973000,  0.049700
  0.975000,  0.051600
  0.977000,  0.053400
  0.979000,  0.055100
  0.981000,  0.056400
  0.983000,  0.057500
  0.985000,  0.058300
  0.987000,  0.058900
  0.989000,  0.059300
  0.991000,  0.059300
  0.993000,  0.059100
  0.995000,  0.058900
  0.997000,  0.058400
  0.999000,  0.057600
  1.001000,  0.056500
  1.003000,  0.055500
  1.005000,  0.054400
  1.007000,  0.052900
  1.009000,  0.051400
  1.011000,  0.049600
  1.013000,  0.047800
  1.015000,  0.045800
  1.017000,  0.043600
  1.019000,  0.041300
  1.021000,  0.038800
  1.023000,  0.036200
  1.025000,  0.033600
  1.027000,  0.031000
  1.029000,  0.028200
  1.031000,  0.025200
  1.033000,  0.022300
  1.035000,  0.019400
  1.037000,  0.016300
  1.039000,  0.013300
  1.041000,  0.010300
  1.043000,  0.007300
  1.045000,  0.004100
  1.047000,  0.000800
  1.049000, -0.002300
  1.051000, -0.005600
  1.053000, -0.008900
  1.055000, -0.012200
  1.057000, -0.015300
  1.059000, -0.018500
  1.061000, -0.021900
  1.063000, -0.025200
  1.065000, -0.028500
  1.067000, -0.031700
  1.069000, -0.034900
  1.071000, -0.038100
  1.073000, -0.041100
  1.075000, -0.044100
  1.077000, -0.047100
  1.079000, -0.050100
  1.081000, -0.053000
  1.083000, -0.055700
  1.085000, -0.058200
  1.087000, -0.060700
  1.089000, -0.063200
  1.091000, -0.065600
  1.093000, -0.067900
  1.095000, -0.070200
  1.097000, -0.072400
  1.099000, -0.074500
  1.101000, -0.076500
  1.103000, -0.078300
  1.105000, -0.079900
  1.107000, -0.081400
  1.109000, -0.082900
  1.111000, -0.084300
  1.113000, -0.085600
  1.115000, -0.086700
  1.117000, -0.087700
  1.119000, -0.088700
  1.121000, -0.089500
  1.123000, -0.090000
  1.125000, -0.090200
  1.127000, -0.090600
  1.129000, -0.090900
  1.131000, -0.090900
  1.133000, -0.091000
  1.135000, -0.091000
  1.137000, -0.090800
  1.139000, -0.090400
  1.141000, -0.089900
  1.143000, -0.089400
  1.145000, -0.088700
  1.147000, -0.088000
  1.149000, -0.087400
  1.151000, -0.086500
  1.153000, -0.085500
  1.155000, -0.084700
  1.157000, -0.083700
  1.159000, -0.082700
  1.161000, -0.081600
  1.163000, -0.080500
  1.165000, -0.079400
  1.167000, -0.078100
  1.169000, -0.076900
  1.171000, -0.075900
  1.173000, -0.074600
  1.175000, -0.073200
  1.177000, -0.071800
  1.179000, -0.070500
  1.181000, -0.069400
  1.183000, -0.068200
  1.185000, -0.066900
  1.187000, -0.065400
  1.189000, -0.064000
  1.191000, -0.062700
  1.193000, -0.061300
  1.195000, -0.060100
  1.197000, -0.058800
  1.199000, -0.057500
  1.201000, -0.056300
  1.203000, -0.055000
  1.205000, -0.053700
  1.207000, -0.052500
  1.209000, -0.051300
  1.211000, -0.050000
  1.213000, -0.048900
  1.215000, -0.047700
  1.217000, -0.046500
  1.219000, -0.045100
  1.221000, -0.043600
  1.223000, -0.042200
  1.225000, -0.040900
  1.227000, -0.039400
  1.229000, -0.038100
  1.231000, -0.036700
  1.233000, -0.035400
  1.235000, -0.034000
  1.237000, -0.032500
  1.239000, -0.031000
  1.241000, -0.029500
  1.243000, -0.028100
  1.245000, -0.026800
  1.247000, -0.025300
  1.249000, -0.023900
  1.251000, -0.022500
  1.253000, -0.021200
  1.255000, -0.019900
  1.257000, -0.018500
  1.259000, -0.017200
  1.261000, -0.015700
  1.263000, -0.014200
  1.265000, -0.013000
  1.267000, -0.011800
  1.269000, -0.010600
  1.271000, -0.009500
  1.273000, -0.008400
  1.275000, -0.007300
  1.277000, -0.006300
  1.279000, -0.005300
  1.281000, -0.004400
  1.283000, -0.003400
  1.285000, -0.002600
  1.287000, -0.001800
  1.289000, -0.001100
  1.291000, -0.000400
  1.293000,  0.000300
  1.295000,  0.000900
  1.297000,  0.001500
  1.299000,  0.001900
  1.301000,  0.002300
  1.303000,  0.002700
  1.305000,  0.003200
  1.307000,  0.003600
  1.309000,  0.003900
  1.311000,  0.004200
  1.313000,  0.004600
  1.315000,  0.005000
  1.317000,  0.005500
  1.319000,  0.005800
  1.321000,  0.006200
  1.323000,  0.006700
  1.325000,  0.007300
  1.327000,  0.007900
  1.329000,  0.008600
  1.331000,  0.009400
  1.333000,  0.010100
  1.335000,  0.010800
  1.337000,  0.011600
  1.339000,  0.012600
  1.341000,  0.013700
  1.343000,  0.014900
  1.345000,  0.016200
  1.347000,  0.017600
  1.349000,  0.019100
  1.351000,  0.020600
  1.353000,  0.022300
  1.355000,  0.024000
  1.357000,  0.025700
  1.359000,  0.027600
  1.361000,  0.029500
  1.363000,  0.031400
  1.365000,  0.033400
  1.367000,  0.035500
  1.369000,  0.037500
  1.371000,  0.039700
  1.373000,  0.041800
  1.375000,  0.043900
  1.377000,  0.046000
  1.379000,  0.048100
  1.381000,  0.050100
  1.383000,  0.052000
  1.385000,  0.053800
  1.387000,  0.055500
  1.389000,  0.057100
  1.391000,  0.058100
  1.393000,  0.058700
  1.395000,  0.059000
  1.397000,  0.059100
  1.399000,  0.058700
