# z (nm)   (kJ/mol)
  0.337000,  8.601600
  0.339000,  8.107600
  0.341000,  7.563800
  0.343000,  6.978000
  0.345000,  6.376000
  0.347000,  5.792800
  0.349000,  5.217100
  0.351000,  4.631400
  0.353000,  4.052700
  0.355000,  3.479900
  0.357000,  2.896900
  0.359000,  2.311300
  0.361000,  1.734700
  0.363000,  1.167400
  0.365000,  0.610000
  0.367000,  0.061800
  0.369000, -0.474200
  0.371000, -0.999800
  0.373000, -1.517100
  0.375000, -2.024300
  0.377000, -2.517700
  0.379000, -2.996400
  0.381000, -3.462900
  0.383000, -3.916100
  0.385000, -4.355700
  0.387000, -4.779500
  0.389000, -5.188900
  0.391000, -5.584800
  0.393000, -5.964800
  0.395000, -6.327600
  0.397000, -6.674200
  0.399000, -7.004400
  0.401000, -7.318900
  0.403000, -7.620200
  0.405000, -7.905500
  0.407000, -8.173400
  0.409000, -8.426600
  0.411000, -8.663100
  0.413000, -8.882500
  0.415000, -9.088000
  0.417000, -9.278500
  0.419000, -9.453500
  0.421000, -9.615500
  0.423000, -9.763200
  0.425000, -9.895000
  0.427000,-10.011900
  0.429000,-10.114200
  0.431000,-10.201800
  0.433000,-10.275300
  0.435000,-10.336800
  0.437000,-10.386000
  0.439000,-10.418800
  0.441000,-10.441700
  0.443000,-10.454500
  0.445000,-10.453600
  0.447000,-10.444700
  0.449000,-10.424000
  0.451000,-10.389700
  0.453000,-10.346600
  0.455000,-10.297300
  0.457000,-10.240100
  0.459000,-10.172000
  0.461000,-10.096000
  0.463000,-10.013500
  0.465000, -9.925600
  0.467000, -9.832600
  0.469000, -9.734000
  0.471000, -9.632900
  0.473000, -9.529200
  0.475000, -9.421000
  0.477000, -9.309100
  0.479000, -9.194000
  0.481000, -9.077600
  0.483000, -8.960800
  0.485000, -8.841900
  0.487000, -8.722000
  0.489000, -8.601200
  0.491000, -8.479000
  0.493000, -8.356100
  0.495000, -8.233600
  0.497000, -8.112400
  0.499000, -7.991600
  0.501000, -7.870200
  0.503000, -7.749300
  0.505000, -7.629500
  0.507000, -7.510300
  0.509000, -7.392200
  0.511000, -7.275300
  0.513000, -7.159400
  0.515000, -7.044000
  0.517000, -6.929600
  0.519000, -6.816600
  0.521000, -6.704900
  0.523000, -6.594300
  0.525000, -6.484900
  0.527000, -6.376700
  0.529000, -6.269500
  0.531000, -6.163100
  0.533000, -6.057900
  0.535000, -5.954000
  0.537000, -5.851200
  0.539000, -5.749300
  0.541000, -5.648400
  0.543000, -5.548100
  0.545000, -5.448900
  0.547000, -5.350700
  0.549000, -5.253600
  0.551000, -5.157700
  0.553000, -5.062500
  0.555000, -4.968300
  0.557000, -4.874800
  0.559000, -4.782200
  0.561000, -4.690600
  0.563000, -4.600400
  0.565000, -4.510800
  0.567000, -4.422200
  0.569000, -4.334500
  0.571000, -4.247600
  0.573000, -4.161900
  0.575000, -4.076800
  0.577000, -3.992600
  0.579000, -3.909400
  0.581000, -3.827000
  0.583000, -3.745500
  0.585000, -3.665000
  0.587000, -3.585600
  0.589000, -3.507200
  0.591000, -3.429800
  0.593000, -3.353300
  0.595000, -3.277800
  0.597000, -3.203200
  0.599000, -3.129500
  0.601000, -3.056700
  0.603000, -2.985000
  0.605000, -2.914300
  0.607000, -2.844500
  0.609000, -2.775600
  0.611000, -2.707800
  0.613000, -2.641200
  0.615000, -2.575500
  0.617000, -2.510600
  0.619000, -2.446700
  0.621000, -2.383900
  0.623000, -2.322000
  0.625000, -2.261400
  0.627000, -2.202000
  0.629000, -2.143900
  0.631000, -2.086600
  0.633000, -2.030400
  0.635000, -1.975400
  0.637000, -1.921600
  0.639000, -1.869100
  0.641000, -1.817800
  0.643000, -1.767700
  0.645000, -1.719100
  0.647000, -1.671600
  0.649000, -1.625300
  0.651000, -1.580400
  0.653000, -1.536800
  0.655000, -1.494500
  0.657000, -1.453600
  0.659000, -1.414100
  0.661000, -1.376100
  0.663000, -1.339300
  0.665000, -1.303700
  0.667000, -1.269800
  0.669000, -1.237400
  0.671000, -1.206600
  0.673000, -1.177300
  0.675000, -1.149600
  0.677000, -1.123200
  0.679000, -1.098400
  0.681000, -1.074900
  0.683000, -1.053000
  0.685000, -1.032500
  0.687000, -1.013500
  0.689000, -0.996000
  0.691000, -0.979700
  0.693000, -0.964700
  0.695000, -0.951100
  0.697000, -0.939100
  0.699000, -0.928400
  0.701000, -0.918800
  0.703000, -0.910400
  0.705000, -0.903400
  0.707000, -0.897600
  0.709000, -0.892800
  0.711000, -0.889100
  0.713000, -0.886500
  0.715000, -0.885000
  0.717000, -0.884500
  0.719000, -0.884700
  0.721000, -0.885800
  0.723000, -0.887800
  0.725000, -0.890400
  0.727000, -0.893700
  0.729000, -0.897800
  0.731000, -0.902500
  0.733000, -0.907700
  0.735000, -0.913400
  0.737000, -0.919600
  0.739000, -0.926300
  0.741000, -0.933100
  0.743000, -0.940100
  0.745000, -0.947400
  0.747000, -0.955000
  0.749000, -0.962600
  0.751000, -0.970200
  0.753000, -0.978000
  0.755000, -0.985700
  0.757000, -0.993200
  0.759000, -1.000700
  0.761000, -1.008000
  0.763000, -1.015200
  0.765000, -1.022200
  0.767000, -1.028900
  0.769000, -1.035400
  0.771000, -1.041600
  0.773000, -1.047500
  0.775000, -1.052800
  0.777000, -1.057800
  0.779000, -1.062400
  0.781000, -1.066600
  0.783000, -1.070100
  0.785000, -1.073300
  0.787000, -1.076000
  0.789000, -1.078100
  0.791000, -1.079800
  0.793000, -1.081100
  0.795000, -1.081700
  0.797000, -1.082000
  0.799000, -1.081800
  0.801000, -1.080900
  0.803000, -1.079500
  0.805000, -1.077500
  0.807000, -1.074800
  0.809000, -1.071600
  0.811000, -1.068000
  0.813000, -1.063900
  0.815000, -1.059300
  0.817000, -1.054400
  0.819000, -1.048900
  0.821000, -1.042900
  0.823000, -1.036300
  0.825000, -1.029400
  0.827000, -1.021900
  0.829000, -1.014200
  0.831000, -1.005900
  0.833000, -0.997300
  0.835000, -0.988200
  0.837000, -0.978800
  0.839000, -0.969100
  0.841000, -0.959000
  0.843000, -0.948500
  0.845000, -0.937700
  0.847000, -0.926500
  0.849000, -0.915000
  0.851000, -0.903200
  0.853000, -0.891100
  0.855000, -0.878700
  0.857000, -0.866100
  0.859000, -0.853400
  0.861000, -0.840400
  0.863000, -0.827100
  0.865000, -0.813700
  0.867000, -0.800200
  0.869000, -0.786500
  0.871000, -0.772700
  0.873000, -0.758600
  0.875000, -0.744500
  0.877000, -0.730400
  0.879000, -0.716000
  0.881000, -0.701400
  0.883000, -0.686800
  0.885000, -0.672200
  0.887000, -0.657400
  0.889000, -0.642800
  0.891000, -0.628100
  0.893000, -0.613300
  0.895000, -0.598400
  0.897000, -0.583700
  0.899000, -0.569000
  0.901000, -0.554300
  0.903000, -0.539600
  0.905000, -0.525000
  0.907000, -0.510500
  0.909000, -0.496100
  0.911000, -0.481800
  0.913000, -0.467600
  0.915000, -0.453600
  0.917000, -0.439800
  0.919000, -0.426200
  0.921000, -0.412700
  0.923000, -0.399300
  0.925000, -0.386100
  0.927000, -0.373100
  0.929000, -0.360400
  0.931000, -0.348000
  0.933000, -0.335900
  0.935000, -0.324100
  0.937000, -0.312600
  0.939000, -0.301300
  0.941000, -0.290300
  0.943000, -0.279500
  0.945000, -0.269100
  0.947000, -0.259100
  0.949000, -0.249400
  0.951000, -0.239900
  0.953000, -0.230800
  0.955000, -0.222100
  0.957000, -0.213600
  0.959000, -0.205500
  0.961000, -0.197700
  0.963000, -0.190300
  0.965000, -0.183200
  0.967000, -0.176400
  0.969000, -0.169900
  0.971000, -0.163700
  0.973000, -0.157700
  0.975000, -0.152200
  0.977000, -0.147100
  0.979000, -0.142100
  0.981000, -0.137500
  0.983000, -0.133100
  0.985000, -0.128900
  0.987000, -0.125000
  0.989000, -0.121500
  0.991000, -0.118400
  0.993000, -0.115300
  0.995000, -0.112500
  0.997000, -0.109800
  0.999000, -0.107400
  1.001000, -0.105200
  1.003000, -0.103200
  1.005000, -0.101500
  1.007000, -0.099900
  1.009000, -0.098500
  1.011000, -0.097400
  1.013000, -0.096400
  1.015000, -0.095600
  1.017000, -0.094900
  1.019000, -0.094500
  1.021000, -0.094100
  1.023000, -0.093700
  1.025000, -0.093500
  1.027000, -0.093500
  1.029000, -0.093600
  1.031000, -0.093700
  1.033000, -0.093900
  1.035000, -0.094300
  1.037000, -0.094700
  1.039000, -0.095300
  1.041000, -0.096000
  1.043000, -0.096800
  1.045000, -0.097600
  1.047000, -0.098500
  1.049000, -0.099400
  1.051000, -0.100300
  1.053000, -0.101200
  1.055000, -0.102200
  1.057000, -0.103300
  1.059000, -0.104400
  1.061000, -0.105600
  1.063000, -0.106800
  1.065000, -0.108100
  1.067000, -0.109400
  1.069000, -0.110700
  1.071000, -0.111800
  1.073000, -0.112900
  1.075000, -0.113900
  1.077000, -0.115000
  1.079000, -0.116000
  1.081000, -0.116900
  1.083000, -0.117700
  1.085000, -0.118600
  1.087000, -0.119300
  1.089000, -0.119900
  1.091000, -0.120400
  1.093000, -0.120800
  1.095000, -0.121300
  1.097000, -0.121700
  1.099000, -0.122000
  1.101000, -0.122100
  1.103000, -0.122000
  1.105000, -0.122000
  1.107000, -0.121700
  1.109000, -0.121300
  1.111000, -0.120800
  1.113000, -0.120400
  1.115000, -0.120000
  1.117000, -0.119400
  1.119000, -0.118600
  1.121000, -0.117700
  1.123000, -0.116700
  1.125000, -0.115700
  1.127000, -0.114800
  1.129000, -0.113700
  1.131000, -0.112400
  1.133000, -0.111100
  1.135000, -0.109900
  1.137000, -0.108600
  1.139000, -0.107200
  1.141000, -0.105900
  1.143000, -0.104700
  1.145000, -0.103400
  1.147000, -0.102000
  1.149000, -0.100700
  1.151000, -0.099500
  1.153000, -0.098200
  1.155000, -0.096900
  1.157000, -0.095500
  1.159000, -0.094300
  1.161000, -0.093100
  1.163000, -0.092000
  1.165000, -0.091000
  1.167000, -0.089900
  1.169000, -0.088900
  1.171000, -0.087900
  1.173000, -0.087000
  1.175000, -0.086200
  1.177000, -0.085400
  1.179000, -0.084700
  1.181000, -0.084100
  1.183000, -0.083400
  1.185000, -0.082700
  1.187000, -0.082100
  1.189000, -0.081400
  1.191000, -0.080800
  1.193000, -0.080100
  1.195000, -0.079500
  1.197000, -0.078900
  1.199000, -0.078300
  1.201000, -0.077600
  1.203000, -0.077000
  1.205000, -0.076200
  1.207000, -0.075300
  1.209000, -0.074300
  1.211000, -0.073200
  1.213000, -0.072100
  1.215000, -0.070900
  1.217000, -0.069700
  1.219000, -0.068400
  1.221000, -0.067000
  1.223000, -0.065400
  1.225000, -0.063600
  1.227000, -0.061600
  1.229000, -0.059500
  1.231000, -0.057200
  1.233000, -0.054800
  1.235000, -0.052400
  1.237000, -0.049900
  1.239000, -0.047200
  1.241000, -0.044500
  1.243000, -0.041700
  1.245000, -0.038700
  1.247000, -0.035800
  1.249000, -0.032600
  1.251000, -0.029400
  1.253000, -0.026200
  1.255000, -0.023000
  1.257000, -0.019800
  1.259000, -0.016600
  1.261000, -0.013400
  1.263000, -0.010200
  1.265000, -0.007000
  1.267000, -0.003900
  1.269000, -0.000900
  1.271000,  0.002100
  1.273000,  0.004900
  1.275000,  0.007700
  1.277000,  0.010400
  1.279000,  0.012700
  1.281000,  0.015000
  1.283000,  0.017200
  1.285000,  0.019300
  1.287000,  0.021100
  1.289000,  0.022800
  1.291000,  0.024300
  1.293000,  0.025600
  1.295000,  0.026900
  1.297000,  0.028000
  1.299000,  0.028800
  1.301000,  0.029500
  1.303000,  0.030000
  1.305000,  0.030300
  1.307000,  0.030500
  1.309000,  0.030700
  1.311000,  0.030700
  1.313000,  0.030500
  1.315000,  0.030100
  1.317000,  0.029600
  1.319000,  0.028900
  1.321000,  0.028300
  1.323000,  0.027600
  1.325000,  0.026900
  1.327000,  0.026200
  1.329000,  0.025500
  1.331000,  0.024800
  1.333000,  0.024200
  1.335000,  0.023500
  1.337000,  0.022900
  1.339000,  0.022300
  1.341000,  0.021700
  1.343000,  0.021200
  1.345000,  0.020900
  1.347000,  0.020600
  1.349000,  0.020400
  1.351000,  0.020400
  1.353000,  0.020400
  1.355000,  0.020600
  1.357000,  0.021100
  1.359000,  0.021900
  1.361000,  0.022500
  1.363000,  0.023300
  1.365000,  0.024100
  1.367000,  0.025400
  1.369000,  0.026900
  1.371000,  0.028400
  1.373000,  0.030000
  1.375000,  0.031500
  1.377000,  0.032700
  1.379000,  0.033900
  1.381000,  0.035300
  1.383000,  0.036800
  1.385000,  0.038300
  1.387000,  0.039800
  1.389000,  0.041000
  1.391000,  0.042100
  1.393000,  0.043300
  1.395000,  0.044200
  1.397000,  0.044700
  1.399000,  0.044800
