# z (nm)   (kJ/mol)
  0.321000, 13.586800
  0.323000, 13.097700
  0.325000, 12.545900
  0.327000, 11.979200
  0.329000, 11.395800
  0.331000, 10.815500
  0.333000, 10.228500
  0.335000,  9.637400
  0.337000,  9.034600
  0.339000,  8.427500
  0.341000,  7.826000
  0.343000,  7.224200
  0.345000,  6.627000
  0.347000,  6.037500
  0.349000,  5.454700
  0.351000,  4.866000
  0.353000,  4.278300
  0.355000,  3.701700
  0.357000,  3.132700
  0.359000,  2.569000
  0.361000,  2.009200
  0.363000,  1.465200
  0.365000,  0.934200
  0.367000,  0.411000
  0.369000, -0.099500
  0.371000, -0.592200
  0.373000, -1.071700
  0.375000, -1.543300
  0.377000, -2.003600
  0.379000, -2.444400
  0.381000, -2.869000
  0.383000, -3.283000
  0.385000, -3.680600
  0.387000, -4.064600
  0.389000, -4.436500
  0.391000, -4.794900
  0.393000, -5.138100
  0.395000, -5.466000
  0.397000, -5.780100
  0.399000, -6.081000
  0.401000, -6.368600
  0.403000, -6.640700
  0.405000, -6.897100
  0.407000, -7.139500
  0.409000, -7.367600
  0.411000, -7.582100
  0.413000, -7.784000
  0.415000, -7.972600
  0.417000, -8.147600
  0.419000, -8.308700
  0.421000, -8.455700
  0.423000, -8.590000
  0.425000, -8.711600
  0.427000, -8.822300
  0.429000, -8.922200
  0.431000, -9.008900
  0.433000, -9.082300
  0.435000, -9.145000
  0.437000, -9.197900
  0.439000, -9.239700
  0.441000, -9.271900
  0.443000, -9.295800
  0.445000, -9.312000
  0.447000, -9.319500
  0.449000, -9.317100
  0.451000, -9.306700
  0.453000, -9.290400
  0.455000, -9.267900
  0.457000, -9.240500
  0.459000, -9.207200
  0.461000, -9.168000
  0.463000, -9.124700
  0.465000, -9.076200
  0.467000, -9.022100
  0.469000, -8.964000
  0.471000, -8.902500
  0.473000, -8.837700
  0.475000, -8.769200
  0.477000, -8.698300
  0.479000, -8.627700
  0.481000, -8.555600
  0.483000, -8.481200
  0.485000, -8.405300
  0.487000, -8.327600
  0.489000, -8.248800
  0.491000, -8.169300
  0.493000, -8.088100
  0.495000, -8.006400
  0.497000, -7.924700
  0.499000, -7.841600
  0.501000, -7.757800
  0.503000, -7.673800
  0.505000, -7.589300
  0.507000, -7.504000
  0.509000, -7.418200
  0.511000, -7.331600
  0.513000, -7.244300
  0.515000, -7.156700
  0.517000, -7.068500
  0.519000, -6.979600
  0.521000, -6.889900
  0.523000, -6.799400
  0.525000, -6.708300
  0.527000, -6.616100
  0.529000, -6.522800
  0.531000, -6.428900
  0.533000, -6.334500
  0.535000, -6.239200
  0.537000, -6.143000
  0.539000, -6.045700
  0.541000, -5.947300
  0.543000, -5.848000
  0.545000, -5.747900
  0.547000, -5.647000
  0.549000, -5.545200
  0.551000, -5.442800
  0.553000, -5.339900
  0.555000, -5.237000
  0.557000, -5.133300
  0.559000, -5.028800
  0.561000, -4.923600
  0.563000, -4.818500
  0.565000, -4.713400
  0.567000, -4.608000
  0.569000, -4.502400
  0.571000, -4.397100
  0.573000, -4.291800
  0.575000, -4.186600
  0.577000, -4.081900
  0.579000, -3.977500
  0.581000, -3.873600
  0.583000, -3.770300
  0.585000, -3.667800
  0.587000, -3.566100
  0.589000, -3.465600
  0.591000, -3.365900
  0.593000, -3.266900
  0.595000, -3.169100
  0.597000, -3.072600
  0.599000, -2.977300
  0.601000, -2.883300
  0.603000, -2.790900
  0.605000, -2.699800
  0.607000, -2.610100
  0.609000, -2.522100
  0.611000, -2.435900
  0.613000, -2.351600
  0.615000, -2.269000
  0.617000, -2.188300
  0.619000, -2.109400
  0.621000, -2.032100
  0.623000, -1.956800
  0.625000, -1.883600
  0.627000, -1.812500
  0.629000, -1.743200
  0.631000, -1.676000
  0.633000, -1.611000
  0.635000, -1.548200
  0.637000, -1.487300
  0.639000, -1.428400
  0.641000, -1.371900
  0.643000, -1.317500
  0.645000, -1.264900
  0.647000, -1.214500
  0.649000, -1.166200
  0.651000, -1.119900
  0.653000, -1.075800
  0.655000, -1.033900
  0.657000, -0.993900
  0.659000, -0.956100
  0.661000, -0.920400
  0.663000, -0.886500
  0.665000, -0.854700
  0.667000, -0.825000
  0.669000, -0.797200
  0.671000, -0.771200
  0.673000, -0.747000
  0.675000, -0.724800
  0.677000, -0.704400
  0.679000, -0.685800
  0.681000, -0.668800
  0.683000, -0.653700
  0.685000, -0.640500
  0.687000, -0.628900
  0.689000, -0.618500
  0.691000, -0.609700
  0.693000, -0.602600
  0.695000, -0.597100
  0.697000, -0.592800
  0.699000, -0.589900
  0.701000, -0.588700
  0.703000, -0.588800
  0.705000, -0.590100
  0.707000, -0.592600
  0.709000, -0.595900
  0.711000, -0.600500
  0.713000, -0.606200
  0.715000, -0.612800
  0.717000, -0.620300
  0.719000, -0.628700
  0.721000, -0.637900
  0.723000, -0.647800
  0.725000, -0.658300
  0.727000, -0.669600
  0.729000, -0.681500
  0.731000, -0.693800
  0.733000, -0.706500
  0.735000, -0.719600
  0.737000, -0.733000
  0.739000, -0.746900
  0.741000, -0.761000
  0.743000, -0.775200
  0.745000, -0.789500
  0.747000, -0.803900
  0.749000, -0.818100
  0.751000, -0.832300
  0.753000, -0.846400
  0.755000, -0.860300
  0.757000, -0.873900
  0.759000, -0.887200
  0.761000, -0.900400
  0.763000, -0.913300
  0.765000, -0.925700
  0.767000, -0.937900
  0.769000, -0.949400
  0.771000, -0.960200
  0.773000, -0.970700
  0.775000, -0.980500
  0.777000, -0.989800
  0.779000, -0.998700
  0.781000, -1.006900
  0.783000, -1.014200
  0.785000, -1.021000
  0.787000, -1.027400
  0.789000, -1.032800
  0.791000, -1.037500
  0.793000, -1.041700
  0.795000, -1.045400
  0.797000, -1.048100
  0.799000, -1.050000
  0.801000, -1.051100
  0.803000, -1.051600
  0.805000, -1.051500
  0.807000, -1.050600
  0.809000, -1.049000
  0.811000, -1.046800
  0.813000, -1.043900
  0.815000, -1.040400
  0.817000, -1.036400
  0.819000, -1.031800
  0.821000, -1.026700
  0.823000, -1.020700
  0.825000, -1.014000
  0.827000, -1.007100
  0.829000, -0.999400
  0.831000, -0.990900
  0.833000, -0.981800
  0.835000, -0.972400
  0.837000, -0.962600
  0.839000, -0.952200
  0.841000, -0.941200
  0.843000, -0.929700
  0.845000, -0.918200
  0.847000, -0.906100
  0.849000, -0.893500
  0.851000, -0.880600
  0.853000, -0.867500
  0.855000, -0.854100
  0.857000, -0.840400
  0.859000, -0.826200
  0.861000, -0.811800
  0.863000, -0.797000
  0.865000, -0.782000
  0.867000, -0.766600
  0.869000, -0.751300
  0.871000, -0.735900
  0.873000, -0.720200
  0.875000, -0.704200
  0.877000, -0.688200
  0.879000, -0.671800
  0.881000, -0.655400
  0.883000, -0.639100
  0.885000, -0.622700
  0.887000, -0.606100
  0.889000, -0.589600
  0.891000, -0.573300
  0.893000, -0.557000
  0.895000, -0.540700
  0.897000, -0.524400
  0.899000, -0.508000
  0.901000, -0.491800
  0.903000, -0.475700
  0.905000, -0.459700
  0.907000, -0.443800
  0.909000, -0.428000
  0.911000, -0.412500
  0.913000, -0.397200
  0.915000, -0.382100
  0.917000, -0.367200
  0.919000, -0.352600
  0.921000, -0.338300
  0.923000, -0.324000
  0.925000, -0.310100
  0.927000, -0.296500
  0.929000, -0.283100
  0.931000, -0.270100
  0.933000, -0.257500
  0.935000, -0.245300
  0.937000, -0.233400
  0.939000, -0.221900
  0.941000, -0.210800
  0.943000, -0.200000
  0.945000, -0.189600
  0.947000, -0.179600
  0.949000, -0.169900
  0.951000, -0.160800
  0.953000, -0.152100
  0.955000, -0.143600
  0.957000, -0.135600
  0.959000, -0.128100
  0.961000, -0.120900
  0.963000, -0.114200
  0.965000, -0.107900
  0.967000, -0.101800
  0.969000, -0.096200
  0.971000, -0.090900
  0.973000, -0.086000
  0.975000, -0.081500
  0.977000, -0.077300
  0.979000, -0.073500
  0.981000, -0.070100
  0.983000, -0.066800
  0.985000, -0.063700
  0.987000, -0.061100
  0.989000, -0.058800
  0.991000, -0.056900
  0.993000, -0.055000
  0.995000, -0.053400
  0.997000, -0.052200
  0.999000, -0.051300
  1.001000, -0.050600
  1.003000, -0.050100
  1.005000, -0.049800
  1.007000, -0.049800
  1.009000, -0.050100
  1.011000, -0.050400
  1.013000, -0.051000
  1.015000, -0.051600
  1.017000, -0.052300
  1.019000, -0.053300
  1.021000, -0.054100
  1.023000, -0.054900
  1.025000, -0.056000
  1.027000, -0.057400
  1.029000, -0.058700
  1.031000, -0.060100
  1.033000, -0.061500
  1.035000, -0.063000
  1.037000, -0.064600
  1.039000, -0.066200
  1.041000, -0.068000
  1.043000, -0.069900
  1.045000, -0.071800
  1.047000, -0.073600
  1.049000, -0.075300
  1.051000, -0.077300
  1.053000, -0.079100
  1.055000, -0.081000
  1.057000, -0.083000
  1.059000, -0.085000
  1.061000, -0.087000
  1.063000, -0.088900
  1.065000, -0.090700
  1.067000, -0.092500
  1.069000, -0.094400
  1.071000, -0.096100
  1.073000, -0.097600
  1.075000, -0.099500
  1.077000, -0.101300
  1.079000, -0.103000
  1.081000, -0.104800
  1.083000, -0.106500
  1.085000, -0.108300
  1.087000, -0.110000
  1.089000, -0.111500
  1.091000, -0.113100
  1.093000, -0.114600
  1.095000, -0.116100
  1.097000, -0.117500
  1.099000, -0.118600
  1.101000, -0.119500
  1.103000, -0.120400
  1.105000, -0.121200
  1.107000, -0.121900
  1.109000, -0.122600
  1.111000, -0.123300
  1.113000, -0.123800
  1.115000, -0.124100
  1.117000, -0.124400
  1.119000, -0.124500
  1.121000, -0.124400
  1.123000, -0.124200
  1.125000, -0.123800
  1.127000, -0.123200
  1.129000, -0.122300
  1.131000, -0.121300
  1.133000, -0.120200
  1.135000, -0.118900
  1.137000, -0.117400
  1.139000, -0.115800
  1.141000, -0.114100
  1.143000, -0.112400
  1.145000, -0.110300
  1.147000, -0.108100
  1.149000, -0.105800
  1.151000, -0.103300
  1.153000, -0.100600
  1.155000, -0.097600
  1.157000, -0.094500
  1.159000, -0.091400
  1.161000, -0.088200
  1.163000, -0.084900
  1.165000, -0.081500
  1.167000, -0.077900
  1.169000, -0.074300
  1.171000, -0.070800
  1.173000, -0.067200
  1.175000, -0.063500
  1.177000, -0.059800
  1.179000, -0.056100
  1.181000, -0.052400
  1.183000, -0.048700
  1.185000, -0.045100
  1.187000, -0.041500
  1.189000, -0.037900
  1.191000, -0.034200
  1.193000, -0.030600
  1.195000, -0.027200
  1.197000, -0.023800
  1.199000, -0.020600
  1.201000, -0.017300
  1.203000, -0.014300
  1.205000, -0.011400
  1.207000, -0.008600
  1.209000, -0.005800
  1.211000, -0.003200
  1.213000, -0.000900
  1.215000,  0.001400
  1.217000,  0.003400
  1.219000,  0.005300
  1.221000,  0.007100
  1.223000,  0.008700
  1.225000,  0.010100
  1.227000,  0.011400
  1.229000,  0.012500
  1.231000,  0.013600
  1.233000,  0.014500
  1.235000,  0.015000
  1.237000,  0.015400
  1.239000,  0.015800
  1.241000,  0.015900
  1.243000,  0.015900
  1.245000,  0.015700
  1.247000,  0.015400
  1.249000,  0.015000
  1.251000,  0.014400
  1.253000,  0.013800
  1.255000,  0.013200
  1.257000,  0.012500
  1.259000,  0.011600
  1.261000,  0.010600
  1.263000,  0.009400
  1.265000,  0.008200
  1.267000,  0.007000
  1.269000,  0.005900
  1.271000,  0.004500
  1.273000,  0.003200
  1.275000,  0.001900
  1.277000,  0.000700
  1.279000, -0.000600
  1.281000, -0.001900
  1.283000, -0.003200
  1.285000, -0.004300
  1.287000, -0.005400
  1.289000, -0.006600
  1.291000, -0.007800
  1.293000, -0.008800
  1.295000, -0.009900
  1.297000, -0.011000
  1.299000, -0.012000
  1.301000, -0.012800
  1.303000, -0.013600
  1.305000, -0.014400
  1.307000, -0.015100
  1.309000, -0.015800
  1.311000, -0.016500
  1.313000, -0.017000
  1.315000, -0.017600
  1.317000, -0.018000
  1.319000, -0.018300
  1.321000, -0.018500
  1.323000, -0.018600
  1.325000, -0.018800
  1.327000, -0.018900
  1.329000, -0.018800
  1.331000, -0.018500
  1.333000, -0.018300
  1.335000, -0.017900
  1.337000, -0.017400
  1.339000, -0.016800
  1.341000, -0.016000
  1.343000, -0.015300
  1.345000, -0.014500
  1.347000, -0.013400
  1.349000, -0.012300
  1.351000, -0.011100
  1.353000, -0.009700
  1.355000, -0.008200
  1.357000, -0.006800
  1.359000, -0.005200
  1.361000, -0.003600
  1.363000, -0.001900
  1.365000, -0.000200
  1.367000,  0.001500
  1.369000,  0.003400
  1.371000,  0.005500
  1.373000,  0.007700
  1.375000,  0.009800
  1.377000,  0.011800
  1.379000,  0.013900
  1.381000,  0.016000
  1.383000,  0.018100
  1.385000,  0.020100
  1.387000,  0.022100
  1.389000,  0.023900
  1.391000,  0.025200
  1.393000,  0.026300
  1.395000,  0.026900
  1.397000,  0.027400
  1.399000,  0.027800
