# z (nm)   (kJ/mol)
  0.337000, 14.168700
  0.339000, 13.804700
  0.341000, 13.398200
  0.343000, 12.962700
  0.345000, 12.527600
  0.347000, 12.075600
  0.349000, 11.633100
  0.351000, 11.198600
  0.353000, 10.754600
  0.355000, 10.303900
  0.357000,  9.847000
  0.359000,  9.386700
  0.361000,  8.926600
  0.363000,  8.471900
  0.365000,  8.023300
  0.367000,  7.574700
  0.369000,  7.124200
  0.371000,  6.674600
  0.373000,  6.232900
  0.375000,  5.794000
  0.377000,  5.357600
  0.379000,  4.929300
  0.381000,  4.512900
  0.383000,  4.103000
  0.385000,  3.699900
  0.387000,  3.307900
  0.389000,  2.925300
  0.391000,  2.549200
  0.393000,  2.180400
  0.395000,  1.822800
  0.397000,  1.474700
  0.399000,  1.135400
  0.401000,  0.803900
  0.403000,  0.482500
  0.405000,  0.170700
  0.407000, -0.133500
  0.409000, -0.425500
  0.411000, -0.707300
  0.413000, -0.981000
  0.415000, -1.246900
  0.417000, -1.503000
  0.419000, -1.749800
  0.421000, -1.986800
  0.423000, -2.213700
  0.425000, -2.432100
  0.427000, -2.640600
  0.429000, -2.839100
  0.431000, -3.028700
  0.433000, -3.209600
  0.435000, -3.381400
  0.437000, -3.543700
  0.439000, -3.697200
  0.441000, -3.841700
  0.443000, -3.977100
  0.445000, -4.103800
  0.447000, -4.222500
  0.449000, -4.332300
  0.451000, -4.432700
  0.453000, -4.525100
  0.455000, -4.609800
  0.457000, -4.685500
  0.459000, -4.753100
  0.461000, -4.814900
  0.463000, -4.869100
  0.465000, -4.915200
  0.467000, -4.954900
  0.469000, -4.988100
  0.471000, -5.015500
  0.473000, -5.037200
  0.475000, -5.052800
  0.477000, -5.062500
  0.479000, -5.067900
  0.481000, -5.068100
  0.483000, -5.064000
  0.485000, -5.056100
  0.487000, -5.043000
  0.489000, -5.025300
  0.491000, -5.003300
  0.493000, -4.977600
  0.495000, -4.949200
  0.497000, -4.918600
  0.499000, -4.884300
  0.501000, -4.846700
  0.503000, -4.806500
  0.505000, -4.764500
  0.507000, -4.720400
  0.509000, -4.673700
  0.511000, -4.625200
  0.513000, -4.575200
  0.515000, -4.523500
  0.517000, -4.469100
  0.519000, -4.413000
  0.521000, -4.355700
  0.523000, -4.296800
  0.525000, -4.236800
  0.527000, -4.175300
  0.529000, -4.112700
  0.531000, -4.048900
  0.533000, -3.983800
  0.535000, -3.918000
  0.537000, -3.851000
  0.539000, -3.782800
  0.541000, -3.714000
  0.543000, -3.644700
  0.545000, -3.574300
  0.547000, -3.503000
  0.549000, -3.431000
  0.551000, -3.358000
  0.553000, -3.284300
  0.555000, -3.209900
  0.557000, -3.134900
  0.559000, -3.059000
  0.561000, -2.982400
  0.563000, -2.905400
  0.565000, -2.828000
  0.567000, -2.750000
  0.569000, -2.671400
  0.571000, -2.592600
  0.573000, -2.513300
  0.575000, -2.433700
  0.577000, -2.353900
  0.579000, -2.273800
  0.581000, -2.193700
  0.583000, -2.113400
  0.585000, -2.032800
  0.587000, -1.952200
  0.589000, -1.871800
  0.591000, -1.791500
  0.593000, -1.711400
  0.595000, -1.631400
  0.597000, -1.551400
  0.599000, -1.471800
  0.601000, -1.392800
  0.603000, -1.314300
  0.605000, -1.236400
  0.607000, -1.159100
  0.609000, -1.082100
  0.611000, -1.006100
  0.613000, -0.931100
  0.615000, -0.856600
  0.617000, -0.783100
  0.619000, -0.710700
  0.621000, -0.639400
  0.623000, -0.569300
  0.625000, -0.500400
  0.627000, -0.433000
  0.629000, -0.366800
  0.631000, -0.301900
  0.633000, -0.238900
  0.635000, -0.177500
  0.637000, -0.117300
  0.639000, -0.058800
  0.641000, -0.002300
  0.643000,  0.052800
  0.645000,  0.106400
  0.647000,  0.157500
  0.649000,  0.206300
  0.651000,  0.253000
  0.653000,  0.298200
  0.655000,  0.341400
  0.657000,  0.382400
  0.659000,  0.421100
  0.661000,  0.457500
  0.663000,  0.491300
  0.665000,  0.522300
  0.667000,  0.551300
  0.669000,  0.578100
  0.671000,  0.602800
  0.673000,  0.624900
  0.675000,  0.644500
  0.677000,  0.661400
  0.679000,  0.675800
  0.681000,  0.687900
  0.683000,  0.697900
  0.685000,  0.705800
  0.687000,  0.711500
  0.689000,  0.714900
  0.691000,  0.715800
  0.693000,  0.714500
  0.695000,  0.711200
  0.697000,  0.705700
  0.699000,  0.698000
  0.701000,  0.688100
  0.703000,  0.676700
  0.705000,  0.663500
  0.707000,  0.648600
  0.709000,  0.631900
  0.711000,  0.613700
  0.713000,  0.593700
  0.715000,  0.572700
  0.717000,  0.550600
  0.719000,  0.526900
  0.721000,  0.501900
  0.723000,  0.476000
  0.725000,  0.449300
  0.727000,  0.421900
  0.729000,  0.393700
  0.731000,  0.364800
  0.733000,  0.335000
  0.735000,  0.304800
  0.737000,  0.274400
  0.739000,  0.243800
  0.741000,  0.213200
  0.743000,  0.182000
  0.745000,  0.150500
  0.747000,  0.119200
  0.749000,  0.088100
  0.751000,  0.057300
  0.753000,  0.027100
  0.755000, -0.002900
  0.757000, -0.032800
  0.759000, -0.062100
  0.761000, -0.090700
  0.763000, -0.118800
  0.765000, -0.146200
  0.767000, -0.172800
  0.769000, -0.198700
  0.771000, -0.223800
  0.773000, -0.248100
  0.775000, -0.271500
  0.777000, -0.293800
  0.779000, -0.315400
  0.781000, -0.336200
  0.783000, -0.355900
  0.785000, -0.374800
  0.787000, -0.392800
  0.789000, -0.409800
  0.791000, -0.425900
  0.793000, -0.440900
  0.795000, -0.455000
  0.797000, -0.468100
  0.799000, -0.480200
  0.801000, -0.491200
  0.803000, -0.501500
  0.805000, -0.510900
  0.807000, -0.519100
  0.809000, -0.526500
  0.811000, -0.533300
  0.813000, -0.539200
  0.815000, -0.544300
  0.817000, -0.548800
  0.819000, -0.552500
  0.821000, -0.555400
  0.823000, -0.557500
  0.825000, -0.558900
  0.827000, -0.559700
  0.829000, -0.559800
  0.831000, -0.559200
  0.833000, -0.558100
  0.835000, -0.556400
  0.837000, -0.554300
  0.839000, -0.551500
  0.841000, -0.547800
  0.843000, -0.543900
  0.845000, -0.539700
  0.847000, -0.534800
  0.849000, -0.529300
  0.851000, -0.523400
  0.853000, -0.517200
  0.855000, -0.510500
  0.857000, -0.503300
  0.859000, -0.495600
  0.861000, -0.487600
  0.863000, -0.479400
  0.865000, -0.471000
  0.867000, -0.462300
  0.869000, -0.453200
  0.871000, -0.443800
  0.873000, -0.434200
  0.875000, -0.424300
  0.877000, -0.414100
  0.879000, -0.403600
  0.881000, -0.393000
  0.883000, -0.382200
  0.885000, -0.371100
  0.887000, -0.359800
  0.889000, -0.348400
  0.891000, -0.336900
  0.893000, -0.325300
  0.895000, -0.313400
  0.897000, -0.301400
  0.899000, -0.289500
  0.901000, -0.277700
  0.903000, -0.265700
  0.905000, -0.253700
  0.907000, -0.241600
  0.909000, -0.229500
  0.911000, -0.217400
  0.913000, -0.205500
  0.915000, -0.193600
  0.917000, -0.181800
  0.919000, -0.170000
  0.921000, -0.158500
  0.923000, -0.147000
  0.925000, -0.135600
  0.927000, -0.124400
  0.929000, -0.113300
  0.931000, -0.102400
  0.933000, -0.091600
  0.935000, -0.080900
  0.937000, -0.070400
  0.939000, -0.060300
  0.941000, -0.050400
  0.943000, -0.040600
  0.945000, -0.031100
  0.947000, -0.021900
  0.949000, -0.013000
  0.951000, -0.004400
  0.953000,  0.004000
  0.955000,  0.012200
  0.957000,  0.020100
  0.959000,  0.027600
  0.961000,  0.034700
  0.963000,  0.041500
  0.965000,  0.048000
  0.967000,  0.054100
  0.969000,  0.059800
  0.971000,  0.065200
  0.973000,  0.070300
  0.975000,  0.075100
  0.977000,  0.079600
  0.979000,  0.083700
  0.981000,  0.087600
  0.983000,  0.091100
  0.985000,  0.094300
  0.987000,  0.097200
  0.989000,  0.099500
  0.991000,  0.101600
  0.993000,  0.103400
  0.995000,  0.104800
  0.997000,  0.105900
  0.999000,  0.106700
  1.001000,  0.107100
  1.003000,  0.107300
  1.005000,  0.107100
  1.007000,  0.106500
  1.009000,  0.105700
  1.011000,  0.104700
  1.013000,  0.103400
  1.015000,  0.101800
  1.017000,  0.099900
  1.019000,  0.097900
  1.021000,  0.095400
  1.023000,  0.092800
  1.025000,  0.089900
  1.027000,  0.086900
  1.029000,  0.083600
  1.031000,  0.080000
  1.033000,  0.076300
  1.035000,  0.072400
  1.037000,  0.068500
  1.039000,  0.064200
  1.041000,  0.059900
  1.043000,  0.055500
  1.045000,  0.051100
  1.047000,  0.046600
  1.049000,  0.041900
  1.051000,  0.037200
  1.053000,  0.032600
  1.055000,  0.027800
  1.057000,  0.023000
  1.059000,  0.018200
  1.061000,  0.013400
  1.063000,  0.008600
  1.065000,  0.003700
  1.067000, -0.001100
  1.069000, -0.005900
  1.071000, -0.010600
  1.073000, -0.015300
  1.075000, -0.019900
  1.077000, -0.024400
  1.079000, -0.028900
  1.081000, -0.033200
  1.083000, -0.037400
  1.085000, -0.041400
  1.087000, -0.045300
  1.089000, -0.049200
  1.091000, -0.052900
  1.093000, -0.056500
  1.095000, -0.059900
  1.097000, -0.063100
  1.099000, -0.066200
  1.101000, -0.069300
  1.103000, -0.072000
  1.105000, -0.074600
  1.107000, -0.077200
  1.109000, -0.079600
  1.111000, -0.081800
  1.113000, -0.083800
  1.115000, -0.085700
  1.117000, -0.087500
  1.119000, -0.089100
  1.121000, -0.090500
  1.123000, -0.091900
  1.125000, -0.093100
  1.127000, -0.094100
  1.129000, -0.095000
  1.131000, -0.095700
  1.133000, -0.096400
  1.135000, -0.096900
  1.137000, -0.097300
  1.139000, -0.097500
  1.141000, -0.097700
  1.143000, -0.097700
  1.145000, -0.097700
  1.147000, -0.097500
  1.149000, -0.097300
  1.151000, -0.096900
  1.153000, -0.096300
  1.155000, -0.095800
  1.157000, -0.095200
  1.159000, -0.094400
  1.161000, -0.093500
  1.163000, -0.092600
  1.165000, -0.091400
  1.167000, -0.090200
  1.169000, -0.089100
  1.171000, -0.087900
  1.173000, -0.086500
  1.175000, -0.085000
  1.177000, -0.083500
  1.179000, -0.082000
  1.181000, -0.080500
  1.183000, -0.078900
  1.185000, -0.077200
  1.187000, -0.075600
  1.189000, -0.073900
  1.191000, -0.072100
  1.193000, -0.070300
  1.195000, -0.068500
  1.197000, -0.066800
  1.199000, -0.065000
  1.201000, -0.063000
  1.203000, -0.061100
  1.205000, -0.059200
  1.207000, -0.057300
  1.209000, -0.055300
  1.211000, -0.053400
  1.213000, -0.051500
  1.215000, -0.049700
  1.217000, -0.047800
  1.219000, -0.045800
  1.221000, -0.043900
  1.223000, -0.042000
  1.225000, -0.040300
  1.227000, -0.038400
  1.229000, -0.036500
  1.231000, -0.034700
  1.233000, -0.032900
  1.235000, -0.031100
  1.237000, -0.029400
  1.239000, -0.027700
  1.241000, -0.025900
  1.243000, -0.024100
  1.245000, -0.022500
  1.247000, -0.021000
  1.249000, -0.019500
  1.251000, -0.018100
  1.253000, -0.016600
  1.255000, -0.015100
  1.257000, -0.013500
  1.259000, -0.012000
  1.261000, -0.010700
  1.263000, -0.009300
  1.265000, -0.007900
  1.267000, -0.006700
  1.269000, -0.005600
  1.271000, -0.004600
  1.273000, -0.003500
  1.275000, -0.002500
  1.277000, -0.001600
  1.279000, -0.000600
  1.281000,  0.000300
  1.283000,  0.001200
  1.285000,  0.002100
  1.287000,  0.002900
  1.289000,  0.003600
  1.291000,  0.004300
  1.293000,  0.004700
  1.295000,  0.005200
  1.297000,  0.005800
  1.299000,  0.006300
  1.301000,  0.006600
  1.303000,  0.007000
  1.305000,  0.007300
  1.307000,  0.007500
  1.309000,  0.007700
  1.311000,  0.007900
  1.313000,  0.008000
  1.315000,  0.008200
  1.317000,  0.008500
  1.319000,  0.008600
  1.321000,  0.008700
  1.323000,  0.008900
  1.325000,  0.009100
  1.327000,  0.009200
  1.329000,  0.009400
  1.331000,  0.009700
  1.333000,  0.010000
  1.335000,  0.010400
  1.337000,  0.010700
  1.339000,  0.011200
  1.341000,  0.011700
  1.343000,  0.012300
  1.345000,  0.012900
  1.347000,  0.013700
  1.349000,  0.014600
  1.351000,  0.015500
  1.353000,  0.016600
  1.355000,  0.017800
  1.357000,  0.019100
  1.359000,  0.020400
  1.361000,  0.021900
  1.363000,  0.023500
  1.365000,  0.025200
  1.367000,  0.027000
  1.369000,  0.028900
  1.371000,  0.031000
  1.373000,  0.033400
  1.375000,  0.035800
  1.377000,  0.038300
  1.379000,  0.040700
  1.381000,  0.043100
  1.383000,  0.045600
  1.385000,  0.048000
  1.387000,  0.050500
  1.389000,  0.052900
  1.391000,  0.055000
  1.393000,  0.057200
  1.395000,  0.059200
  1.397000,  0.061000
  1.399000,  0.062300
