# z (nm)   (kJ/mol)
  0.345000, 16.820900
  0.349000, 15.940600
  0.351000, 15.556800
  0.353000, 15.181300
  0.355000, 14.745200
  0.357000, 14.299500
  0.359000, 13.889000
  0.361000, 13.475100
  0.363000, 13.012400
  0.365000, 12.544600
  0.367000, 12.099100
  0.369000, 11.624100
  0.371000, 11.133000
  0.373000, 10.633900
  0.375000, 10.138300
  0.377000,  9.647100
  0.379000,  9.155000
  0.381000,  8.666400
  0.383000,  8.182700
  0.385000,  7.699400
  0.387000,  7.218600
  0.389000,  6.748400
  0.391000,  6.279600
  0.393000,  5.810500
  0.395000,  5.350200
  0.397000,  4.900500
  0.399000,  4.458300
  0.401000,  4.024900
  0.403000,  3.595400
  0.405000,  3.171300
  0.407000,  2.761400
  0.409000,  2.360700
  0.411000,  1.967400
  0.413000,  1.584500
  0.415000,  1.212400
  0.417000,  0.848900
  0.419000,  0.494800
  0.421000,  0.152400
  0.423000, -0.179600
  0.425000, -0.500700
  0.427000, -0.809400
  0.429000, -1.106600
  0.431000, -1.392600
  0.433000, -1.671200
  0.435000, -1.939300
  0.437000, -2.196000
  0.439000, -2.444200
  0.441000, -2.681700
  0.443000, -2.908000
  0.445000, -3.123000
  0.447000, -3.327700
  0.449000, -3.522000
  0.451000, -3.704800
  0.453000, -3.877800
  0.455000, -4.041300
  0.457000, -4.195100
  0.459000, -4.338800
  0.461000, -4.472300
  0.463000, -4.596100
  0.465000, -4.710300
  0.467000, -4.815200
  0.469000, -4.911200
  0.471000, -4.998000
  0.473000, -5.075600
  0.475000, -5.144600
  0.477000, -5.205600
  0.479000, -5.258400
  0.481000, -5.303500
  0.483000, -5.340800
  0.485000, -5.371300
  0.487000, -5.394400
  0.489000, -5.409600
  0.491000, -5.419100
  0.493000, -5.422200
  0.495000, -5.419500
  0.497000, -5.412800
  0.499000, -5.401100
  0.501000, -5.384200
  0.503000, -5.361700
  0.505000, -5.334600
  0.507000, -5.304000
  0.509000, -5.269700
  0.511000, -5.231100
  0.513000, -5.188700
  0.515000, -5.143700
  0.517000, -5.095800
  0.519000, -5.044600
  0.521000, -4.990500
  0.523000, -4.934000
  0.525000, -4.874900
  0.527000, -4.813000
  0.529000, -4.748400
  0.531000, -4.681200
  0.533000, -4.611800
  0.535000, -4.541000
  0.537000, -4.467800
  0.539000, -4.392600
  0.541000, -4.315800
  0.543000, -4.237200
  0.545000, -4.156200
  0.547000, -4.073500
  0.549000, -3.989800
  0.551000, -3.904700
  0.553000, -3.818000
  0.555000, -3.729500
  0.557000, -3.639300
  0.559000, -3.547800
  0.561000, -3.455100
  0.563000, -3.361400
  0.565000, -3.266500
  0.567000, -3.170100
  0.569000, -3.072900
  0.571000, -2.974700
  0.573000, -2.875000
  0.575000, -2.774600
  0.577000, -2.673700
  0.579000, -2.572400
  0.581000, -2.470200
  0.583000, -2.367500
  0.585000, -2.264400
  0.587000, -2.160900
  0.589000, -2.057300
  0.591000, -1.953400
  0.593000, -1.849200
  0.595000, -1.745400
  0.597000, -1.642500
  0.599000, -1.539800
  0.601000, -1.437000
  0.603000, -1.335100
  0.605000, -1.234100
  0.607000, -1.133900
  0.609000, -1.034800
  0.611000, -0.937100
  0.613000, -0.840700
  0.615000, -0.745400
  0.617000, -0.651700
  0.619000, -0.560300
  0.621000, -0.470200
  0.623000, -0.381800
  0.625000, -0.295200
  0.627000, -0.210400
  0.629000, -0.128100
  0.631000, -0.048000
  0.633000,  0.029200
  0.635000,  0.103800
  0.637000,  0.175600
  0.639000,  0.244600
  0.641000,  0.311200
  0.643000,  0.375300
  0.645000,  0.436300
  0.647000,  0.494600
  0.649000,  0.550200
  0.651000,  0.602500
  0.653000,  0.651600
  0.655000,  0.697400
  0.657000,  0.740200
  0.659000,  0.780000
  0.661000,  0.816600
  0.663000,  0.850100
  0.665000,  0.880500
  0.667000,  0.907600
  0.669000,  0.931600
  0.671000,  0.952600
  0.673000,  0.970400
  0.675000,  0.985300
  0.677000,  0.997400
  0.679000,  1.006600
  0.681000,  1.013000
  0.683000,  1.016700
  0.685000,  1.017900
  0.687000,  1.016400
  0.689000,  1.012200
  0.691000,  1.005200
  0.693000,  0.995600
  0.695000,  0.984200
  0.697000,  0.970800
  0.699000,  0.955100
  0.701000,  0.937500
  0.703000,  0.918100
  0.705000,  0.896600
  0.707000,  0.873500
  0.709000,  0.848700
  0.711000,  0.822600
  0.713000,  0.794800
  0.715000,  0.765600
  0.717000,  0.735100
  0.719000,  0.703800
  0.721000,  0.671400
  0.723000,  0.638200
  0.725000,  0.604200
  0.727000,  0.569600
  0.729000,  0.534500
  0.731000,  0.498900
  0.733000,  0.463000
  0.735000,  0.426500
  0.737000,  0.389500
  0.739000,  0.352600
  0.741000,  0.315500
  0.743000,  0.278400
  0.745000,  0.241500
  0.747000,  0.204800
  0.749000,  0.168300
  0.751000,  0.132100
  0.753000,  0.096500
  0.755000,  0.061200
  0.757000,  0.026400
  0.759000, -0.007700
  0.761000, -0.041100
  0.763000, -0.073700
  0.765000, -0.105500
  0.767000, -0.136500
  0.769000, -0.166800
  0.771000, -0.196300
  0.773000, -0.224800
  0.775000, -0.252300
  0.777000, -0.278700
  0.779000, -0.304300
  0.781000, -0.328800
  0.783000, -0.352200
  0.785000, -0.374400
  0.787000, -0.395500
  0.789000, -0.415600
  0.791000, -0.434400
  0.793000, -0.452200
  0.795000, -0.468800
  0.797000, -0.484200
  0.799000, -0.498300
  0.801000, -0.511400
  0.803000, -0.523200
  0.805000, -0.533600
  0.807000, -0.542900
  0.809000, -0.550900
  0.811000, -0.557800
  0.813000, -0.563500
  0.815000, -0.568000
  0.817000, -0.571300
  0.819000, -0.573500
  0.821000, -0.574600
  0.823000, -0.574600
  0.825000, -0.573600
  0.827000, -0.571600
  0.829000, -0.568500
  0.831000, -0.564400
  0.833000, -0.559300
  0.835000, -0.553300
  0.837000, -0.546300
  0.839000, -0.538300
  0.841000, -0.529500
  0.843000, -0.520200
  0.845000, -0.509900
  0.847000, -0.498700
  0.849000, -0.487000
  0.851000, -0.474600
  0.853000, -0.461600
  0.855000, -0.447900
  0.857000, -0.433500
  0.859000, -0.418700
  0.861000, -0.403400
  0.863000, -0.387600
  0.865000, -0.371400
  0.867000, -0.354900
  0.869000, -0.338100
  0.871000, -0.321200
  0.873000, -0.304000
  0.875000, -0.286500
  0.877000, -0.268900
  0.879000, -0.251200
  0.881000, -0.233200
  0.883000, -0.215000
  0.885000, -0.196800
  0.887000, -0.178600
  0.889000, -0.160400
  0.891000, -0.142300
  0.893000, -0.124300
  0.895000, -0.106300
  0.897000, -0.088500
  0.899000, -0.070800
  0.901000, -0.053400
  0.903000, -0.036100
  0.905000, -0.018900
  0.907000, -0.002000
  0.909000,  0.014600
  0.911000,  0.031000
  0.913000,  0.047200
  0.915000,  0.063100
  0.917000,  0.078700
  0.919000,  0.094100
  0.921000,  0.109300
  0.923000,  0.124000
  0.925000,  0.138200
  0.927000,  0.152000
  0.929000,  0.165700
  0.931000,  0.179100
  0.933000,  0.192200
  0.935000,  0.204700
  0.937000,  0.216700
  0.939000,  0.228300
  0.941000,  0.239500
  0.943000,  0.250200
  0.945000,  0.260400
  0.947000,  0.270300
  0.949000,  0.279700
  0.951000,  0.288600
  0.953000,  0.297300
  0.955000,  0.305400
  0.957000,  0.313000
  0.959000,  0.320200
  0.961000,  0.326800
  0.963000,  0.332900
  0.965000,  0.338400
  0.967000,  0.343500
  0.969000,  0.348200
  0.971000,  0.352400
  0.973000,  0.356100
  0.975000,  0.359400
  0.977000,  0.362200
  0.979000,  0.364400
  0.981000,  0.366200
  0.983000,  0.367600
  0.985000,  0.368700
  0.987000,  0.369200
  0.989000,  0.369200
  0.991000,  0.368800
  0.993000,  0.368000
  0.995000,  0.366900
  0.997000,  0.365300
  0.999000,  0.363400
  1.001000,  0.361000
  1.003000,  0.358200
  1.005000,  0.355300
  1.007000,  0.351800
  1.009000,  0.348000
  1.011000,  0.343900
  1.013000,  0.339500
  1.015000,  0.334700
  1.017000,  0.329600
  1.019000,  0.324300
  1.021000,  0.318600
  1.023000,  0.312600
  1.025000,  0.306300
  1.027000,  0.299900
  1.029000,  0.293200
  1.031000,  0.286300
  1.033000,  0.279200
  1.035000,  0.271900
  1.037000,  0.264500
  1.039000,  0.256900
  1.041000,  0.249000
  1.043000,  0.241200
  1.045000,  0.233200
  1.047000,  0.225000
  1.049000,  0.216700
  1.051000,  0.208300
  1.053000,  0.199800
  1.055000,  0.191200
  1.057000,  0.182500
  1.059000,  0.173800
  1.061000,  0.165000
  1.063000,  0.156100
  1.065000,  0.147100
  1.067000,  0.138300
  1.069000,  0.129300
  1.071000,  0.120300
  1.073000,  0.111300
  1.075000,  0.102500
  1.077000,  0.093800
  1.079000,  0.085100
  1.081000,  0.076400
  1.083000,  0.067800
  1.085000,  0.059200
  1.087000,  0.050800
  1.089000,  0.042400
  1.091000,  0.034200
  1.093000,  0.026100
  1.095000,  0.018100
  1.097000,  0.010400
  1.099000,  0.002900
  1.101000, -0.004500
  1.103000, -0.011800
  1.105000, -0.018900
  1.107000, -0.025700
  1.109000, -0.032400
  1.111000, -0.038700
  1.113000, -0.044800
  1.115000, -0.050600
  1.117000, -0.056200
  1.119000, -0.061700
  1.121000, -0.066900
  1.123000, -0.071900
  1.125000, -0.076600
  1.127000, -0.081000
  1.129000, -0.085100
  1.131000, -0.088900
  1.133000, -0.092400
  1.135000, -0.095800
  1.137000, -0.098900
  1.139000, -0.101500
  1.141000, -0.103900
  1.143000, -0.106000
  1.145000, -0.107800
  1.147000, -0.109200
  1.149000, -0.110500
  1.151000, -0.111500
  1.153000, -0.112100
  1.155000, -0.112500
  1.157000, -0.112600
  1.159000, -0.112500
  1.161000, -0.112200
  1.163000, -0.111700
  1.165000, -0.111000
  1.167000, -0.110200
  1.169000, -0.109000
  1.171000, -0.107600
  1.173000, -0.106000
  1.175000, -0.104300
  1.177000, -0.102500
  1.179000, -0.100600
  1.181000, -0.098300
  1.183000, -0.096000
  1.185000, -0.093600
  1.187000, -0.091100
  1.189000, -0.088600
  1.191000, -0.085800
  1.193000, -0.083000
  1.195000, -0.080100
  1.197000, -0.077200
  1.199000, -0.074400
  1.201000, -0.071400
  1.203000, -0.068300
  1.205000, -0.065300
  1.207000, -0.062400
  1.209000, -0.059400
  1.211000, -0.056300
  1.213000, -0.053400
  1.215000, -0.050500
  1.217000, -0.047700
  1.219000, -0.045000
  1.221000, -0.042300
  1.223000, -0.039500
  1.225000, -0.036900
  1.227000, -0.034400
  1.229000, -0.031900
  1.231000, -0.029500
  1.233000, -0.027400
  1.235000, -0.025300
  1.237000, -0.023200
  1.239000, -0.021200
  1.241000, -0.019000
  1.243000, -0.017000
  1.245000, -0.015200
  1.247000, -0.013400
  1.249000, -0.011600
  1.251000, -0.009900
  1.253000, -0.008200
  1.255000, -0.006700
  1.257000, -0.005300
  1.259000, -0.003900
  1.261000, -0.002600
  1.263000, -0.001400
  1.265000, -0.000200
  1.267000,  0.000900
  1.269000,  0.001900
  1.271000,  0.002800
  1.273000,  0.003700
  1.275000,  0.004600
  1.277000,  0.005500
  1.279000,  0.006300
  1.281000,  0.006800
  1.283000,  0.007300
  1.285000,  0.007900
  1.287000,  0.008400
  1.289000,  0.008800
  1.291000,  0.009100
  1.293000,  0.009300
  1.295000,  0.009500
  1.297000,  0.009700
  1.299000,  0.009700
  1.301000,  0.009700
  1.303000,  0.009600
  1.305000,  0.009500
  1.307000,  0.009400
  1.309000,  0.009100
  1.311000,  0.009000
  1.313000,  0.008700
  1.315000,  0.008500
  1.317000,  0.008200
  1.319000,  0.007800
  1.321000,  0.007600
  1.323000,  0.007300
  1.325000,  0.007100
  1.327000,  0.006800
  1.329000,  0.006400
  1.331000,  0.006100
  1.333000,  0.006100
  1.335000,  0.006100
  1.337000,  0.006200
  1.339000,  0.006200
  1.341000,  0.006400
  1.343000,  0.006600
  1.345000,  0.007000
  1.347000,  0.007400
  1.349000,  0.008000
  1.351000,  0.008800
  1.353000,  0.009600
  1.355000,  0.010500
  1.357000,  0.011500
  1.359000,  0.012900
  1.361000,  0.014400
  1.363000,  0.016000
  1.365000,  0.017600
  1.367000,  0.019500
  1.369000,  0.021500
  1.371000,  0.023600
  1.373000,  0.025900
  1.375000,  0.028300
  1.377000,  0.030900
  1.379000,  0.033700
  1.381000,  0.036400
  1.383000,  0.039100
  1.385000,  0.041900
  1.387000,  0.044800
  1.389000,  0.047700
  1.391000,  0.050400
  1.393000,  0.052800
  1.395000,  0.055000
  1.397000,  0.057000
  1.399000,  0.058900
