# z (nm)   (kJ/mol)
  0.319000, 17.440300
  0.321000, 17.002900
  0.323000, 16.518800
  0.325000, 16.072300
  0.327000, 15.629400
  0.329000, 15.174300
  0.331000, 14.708000
  0.333000, 14.212400
  0.335000, 13.726400
  0.337000, 13.239700
  0.339000, 12.741700
  0.341000, 12.241000
  0.343000, 11.748700
  0.345000, 11.256100
  0.347000, 10.753700
  0.349000, 10.242300
  0.351000,  9.740100
  0.353000,  9.251300
  0.355000,  8.749000
  0.357000,  8.244900
  0.359000,  7.749400
  0.361000,  7.262300
  0.363000,  6.788800
  0.365000,  6.320400
  0.367000,  5.854300
  0.369000,  5.386700
  0.371000,  4.921300
  0.373000,  4.460900
  0.375000,  4.003700
  0.377000,  3.560400
  0.379000,  3.129000
  0.381000,  2.705000
  0.383000,  2.291600
  0.385000,  1.885200
  0.387000,  1.487700
  0.389000,  1.099400
  0.391000,  0.717100
  0.393000,  0.343300
  0.395000, -0.021400
  0.397000, -0.376900
  0.399000, -0.719800
  0.401000, -1.049400
  0.403000, -1.368500
  0.405000, -1.678500
  0.407000, -1.979700
  0.409000, -2.270500
  0.411000, -2.549500
  0.413000, -2.820700
  0.415000, -3.082000
  0.417000, -3.328900
  0.419000, -3.566000
  0.421000, -3.793900
  0.423000, -4.010300
  0.425000, -4.216700
  0.427000, -4.413100
  0.429000, -4.598900
  0.431000, -4.774900
  0.433000, -4.940300
  0.435000, -5.093900
  0.437000, -5.236900
  0.439000, -5.370600
  0.441000, -5.494300
  0.443000, -5.607100
  0.445000, -5.710700
  0.447000, -5.804300
  0.449000, -5.886000
  0.451000, -5.958600
  0.453000, -6.024500
  0.455000, -6.081600
  0.457000, -6.128900
  0.459000, -6.167700
  0.461000, -6.198200
  0.463000, -6.220900
  0.465000, -6.237100
  0.467000, -6.247000
  0.469000, -6.249100
  0.471000, -6.242900
  0.473000, -6.231200
  0.475000, -6.214400
  0.477000, -6.192300
  0.479000, -6.166200
  0.481000, -6.135100
  0.483000, -6.098200
  0.485000, -6.057800
  0.487000, -6.014100
  0.489000, -5.966300
  0.491000, -5.915400
  0.493000, -5.861700
  0.495000, -5.805500
  0.497000, -5.746700
  0.499000, -5.685900
  0.501000, -5.623600
  0.503000, -5.559300
  0.505000, -5.493700
  0.507000, -5.426700
  0.509000, -5.358600
  0.511000, -5.289700
  0.513000, -5.220100
  0.515000, -5.149900
  0.517000, -5.078900
  0.519000, -5.007400
  0.521000, -4.935500
  0.523000, -4.863800
  0.525000, -4.791700
  0.527000, -4.719300
  0.529000, -4.647100
  0.531000, -4.574800
  0.533000, -4.502200
  0.535000, -4.429700
  0.537000, -4.357100
  0.539000, -4.284300
  0.541000, -4.211800
  0.543000, -4.139600
  0.545000, -4.067200
  0.547000, -3.994600
  0.549000, -3.921700
  0.551000, -3.849100
  0.553000, -3.776800
  0.555000, -3.704600
  0.557000, -3.632400
  0.559000, -3.560200
  0.561000, -3.487800
  0.563000, -3.415300
  0.565000, -3.343200
  0.567000, -3.271200
  0.569000, -3.198900
  0.571000, -3.126600
  0.573000, -3.054100
  0.575000, -2.981500
  0.577000, -2.908700
  0.579000, -2.835800
  0.581000, -2.763200
  0.583000, -2.690700
  0.585000, -2.618100
  0.587000, -2.545600
  0.589000, -2.473100
  0.591000, -2.400100
  0.593000, -2.327400
  0.595000, -2.254900
  0.597000, -2.182900
  0.599000, -2.111000
  0.601000, -2.039400
  0.603000, -1.967900
  0.605000, -1.896800
  0.607000, -1.826300
  0.609000, -1.755900
  0.611000, -1.685700
  0.613000, -1.616300
  0.615000, -1.547500
  0.617000, -1.479700
  0.619000, -1.412800
  0.621000, -1.346200
  0.623000, -1.280300
  0.625000, -1.215100
  0.627000, -1.151200
  0.629000, -1.088800
  0.631000, -1.027100
  0.633000, -0.966300
  0.635000, -0.907400
  0.637000, -0.849900
  0.639000, -0.793600
  0.641000, -0.738600
  0.643000, -0.685300
  0.645000, -0.633700
  0.647000, -0.583600
  0.649000, -0.534900
  0.651000, -0.487800
  0.653000, -0.442700
  0.655000, -0.399300
  0.657000, -0.357500
  0.659000, -0.317800
  0.661000, -0.279700
  0.663000, -0.243200
  0.665000, -0.209300
  0.667000, -0.177600
  0.669000, -0.147700
  0.671000, -0.119700
  0.673000, -0.093800
  0.675000, -0.070200
  0.677000, -0.049000
  0.679000, -0.030000
  0.681000, -0.012900
  0.683000,  0.002500
  0.685000,  0.015900
  0.687000,  0.027000
  0.689000,  0.035900
  0.691000,  0.042900
  0.693000,  0.048000
  0.695000,  0.051100
  0.697000,  0.052800
  0.699000,  0.052800
  0.701000,  0.050500
  0.703000,  0.046600
  0.705000,  0.041000
  0.707000,  0.033900
  0.709000,  0.025400
  0.711000,  0.015500
  0.713000,  0.004100
  0.715000, -0.008600
  0.717000, -0.022400
  0.719000, -0.037500
  0.721000, -0.053700
  0.723000, -0.071000
  0.725000, -0.089400
  0.727000, -0.108700
  0.729000, -0.128800
  0.731000, -0.149700
  0.733000, -0.171100
  0.735000, -0.193000
  0.737000, -0.215400
  0.739000, -0.238100
  0.741000, -0.261200
  0.743000, -0.284600
  0.745000, -0.308400
  0.747000, -0.332300
  0.749000, -0.356300
  0.751000, -0.380400
  0.753000, -0.404300
  0.755000, -0.428000
  0.757000, -0.451800
  0.759000, -0.475300
  0.761000, -0.498500
  0.763000, -0.521400
  0.765000, -0.543900
  0.767000, -0.566000
  0.769000, -0.587500
  0.771000, -0.608500
  0.773000, -0.629200
  0.775000, -0.649200
  0.777000, -0.668600
  0.779000, -0.687400
  0.781000, -0.705300
  0.783000, -0.722600
  0.785000, -0.739200
  0.787000, -0.755200
  0.789000, -0.770400
  0.791000, -0.784700
  0.793000, -0.798300
  0.795000, -0.811100
  0.797000, -0.822900
  0.799000, -0.833800
  0.801000, -0.843900
  0.803000, -0.853300
  0.805000, -0.861800
  0.807000, -0.869400
  0.809000, -0.876300
  0.811000, -0.882500
  0.813000, -0.887900
  0.815000, -0.892200
  0.817000, -0.895800
  0.819000, -0.898500
  0.821000, -0.900500
  0.823000, -0.901800
  0.825000, -0.902400
  0.827000, -0.902300
  0.829000, -0.901300
  0.831000, -0.899500
  0.833000, -0.897100
  0.835000, -0.894000
  0.837000, -0.890200
  0.839000, -0.885700
  0.841000, -0.880700
  0.843000, -0.874900
  0.845000, -0.868500
  0.847000, -0.861400
  0.849000, -0.853800
  0.851000, -0.845800
  0.853000, -0.837300
  0.855000, -0.828300
  0.857000, -0.818700
  0.859000, -0.808500
  0.861000, -0.797900
  0.863000, -0.786900
  0.865000, -0.775500
  0.867000, -0.763700
  0.869000, -0.751500
  0.871000, -0.739200
  0.873000, -0.726500
  0.875000, -0.713300
  0.877000, -0.699800
  0.879000, -0.686000
  0.881000, -0.672000
  0.883000, -0.657600
  0.885000, -0.643000
  0.887000, -0.628100
  0.889000, -0.613000
  0.891000, -0.597700
  0.893000, -0.582300
  0.895000, -0.566800
  0.897000, -0.550900
  0.899000, -0.534700
  0.901000, -0.518700
  0.903000, -0.502700
  0.905000, -0.486700
  0.907000, -0.470700
  0.909000, -0.454900
  0.911000, -0.438900
  0.913000, -0.422900
  0.915000, -0.407000
  0.917000, -0.391100
  0.919000, -0.375200
  0.921000, -0.359500
  0.923000, -0.344000
  0.925000, -0.328600
  0.927000, -0.313200
  0.929000, -0.298100
  0.931000, -0.283300
  0.933000, -0.268500
  0.935000, -0.253900
  0.937000, -0.239600
  0.939000, -0.225500
  0.941000, -0.211600
  0.943000, -0.198000
  0.945000, -0.184700
  0.947000, -0.171700
  0.949000, -0.159100
  0.951000, -0.146700
  0.953000, -0.134400
  0.955000, -0.122600
  0.957000, -0.111200
  0.959000, -0.100100
  0.961000, -0.089400
  0.963000, -0.079100
  0.965000, -0.069100
  0.967000, -0.059600
  0.969000, -0.050400
  0.971000, -0.041600
  0.973000, -0.033300
  0.975000, -0.025400
  0.977000, -0.017700
  0.979000, -0.010400
  0.981000, -0.003500
  0.983000,  0.003100
  0.985000,  0.009400
  0.987000,  0.015200
  0.989000,  0.020500
  0.991000,  0.025500
  0.993000,  0.030200
  0.995000,  0.034400
  0.997000,  0.038400
  0.999000,  0.042100
  1.001000,  0.045400
  1.003000,  0.048200
  1.005000,  0.050800
  1.007000,  0.053100
  1.009000,  0.055200
  1.011000,  0.056900
  1.013000,  0.058300
  1.015000,  0.059400
  1.017000,  0.060300
  1.019000,  0.060900
  1.021000,  0.061300
  1.023000,  0.061600
  1.025000,  0.061500
  1.027000,  0.061200
  1.029000,  0.060700
  1.031000,  0.060100
  1.033000,  0.059300
  1.035000,  0.058500
  1.037000,  0.057400
  1.039000,  0.056100
  1.041000,  0.054600
  1.043000,  0.053100
  1.045000,  0.051200
  1.047000,  0.049100
  1.049000,  0.047100
  1.051000,  0.045000
  1.053000,  0.042700
  1.055000,  0.040500
  1.057000,  0.038300
  1.059000,  0.035800
  1.061000,  0.033300
  1.063000,  0.030700
  1.065000,  0.028000
  1.067000,  0.025200
  1.069000,  0.022500
  1.071000,  0.019600
  1.073000,  0.016800
  1.075000,  0.014000
  1.077000,  0.011100
  1.079000,  0.008200
  1.081000,  0.005100
  1.083000,  0.002300
  1.085000, -0.000600
  1.087000, -0.003500
  1.089000, -0.006500
  1.091000, -0.009400
  1.093000, -0.012300
  1.095000, -0.015100
  1.097000, -0.017800
  1.099000, -0.020600
  1.101000, -0.023300
  1.103000, -0.026000
  1.105000, -0.028800
  1.107000, -0.031400
  1.109000, -0.033800
  1.111000, -0.036200
  1.113000, -0.038400
  1.115000, -0.040800
  1.117000, -0.043100
  1.119000, -0.045200
  1.121000, -0.047300
  1.123000, -0.049400
  1.125000, -0.051300
  1.127000, -0.053100
  1.129000, -0.054900
  1.131000, -0.056500
  1.133000, -0.058000
  1.135000, -0.059500
  1.137000, -0.060900
  1.139000, -0.062100
  1.141000, -0.063200
  1.143000, -0.064100
  1.145000, -0.064800
  1.147000, -0.065500
  1.149000, -0.066000
  1.151000, -0.066400
  1.153000, -0.066700
  1.155000, -0.066900
  1.157000, -0.066800
  1.159000, -0.066800
  1.161000, -0.066500
  1.163000, -0.066000
  1.165000, -0.065500
  1.167000, -0.064900
  1.169000, -0.064200
  1.171000, -0.063400
  1.173000, -0.062500
  1.175000, -0.061400
  1.177000, -0.060100
  1.179000, -0.058900
  1.181000, -0.057700
  1.183000, -0.056300
  1.185000, -0.054800
  1.187000, -0.053200
  1.189000, -0.051700
  1.191000, -0.050100
  1.193000, -0.048500
  1.195000, -0.046900
  1.197000, -0.045300
  1.199000, -0.043500
  1.201000, -0.041800
  1.203000, -0.040100
  1.205000, -0.038500
  1.207000, -0.037000
  1.209000, -0.035500
  1.211000, -0.034000
  1.213000, -0.032500
  1.215000, -0.031100
  1.217000, -0.029700
  1.219000, -0.028300
  1.221000, -0.027100
  1.223000, -0.025900
  1.225000, -0.024600
  1.227000, -0.023500
  1.229000, -0.022700
  1.231000, -0.021800
  1.233000, -0.021000
  1.235000, -0.020600
  1.237000, -0.020200
  1.239000, -0.019600
  1.241000, -0.019100
  1.243000, -0.018700
  1.245000, -0.018200
  1.247000, -0.017900
  1.249000, -0.017600
  1.251000, -0.017400
  1.253000, -0.017000
  1.255000, -0.016800
  1.257000, -0.016700
  1.259000, -0.016400
  1.261000, -0.016100
  1.263000, -0.015800
  1.265000, -0.015400
  1.267000, -0.015100
  1.269000, -0.014600
  1.271000, -0.014300
  1.273000, -0.014100
  1.275000, -0.013700
  1.277000, -0.013300
  1.279000, -0.012900
  1.281000, -0.012500
  1.283000, -0.011900
  1.285000, -0.011300
  1.287000, -0.010700
  1.289000, -0.010000
  1.291000, -0.009300
  1.293000, -0.008600
  1.295000, -0.007800
  1.297000, -0.006900
  1.299000, -0.006000
  1.301000, -0.005000
  1.303000, -0.004100
  1.305000, -0.003100
  1.307000, -0.002100
  1.309000, -0.001100
  1.311000, -0.000000
  1.313000,  0.001000
  1.315000,  0.002000
  1.317000,  0.003000
  1.319000,  0.004000
  1.321000,  0.005000
  1.323000,  0.006000
  1.325000,  0.007100
  1.327000,  0.008100
  1.329000,  0.009200
  1.331000,  0.010200
  1.333000,  0.011100
  1.335000,  0.011900
  1.337000,  0.012700
  1.339000,  0.013700
  1.341000,  0.014600
  1.343000,  0.015600
  1.345000,  0.016600
  1.347000,  0.017600
  1.349000,  0.018600
  1.351000,  0.019700
  1.353000,  0.020700
  1.355000,  0.021600
  1.357000,  0.022500
  1.359000,  0.023700
  1.361000,  0.024800
  1.363000,  0.025900
  1.365000,  0.027000
  1.367000,  0.028300
  1.369000,  0.029600
  1.371000,  0.030900
  1.373000,  0.032300
  1.375000,  0.033700
  1.377000,  0.035200
  1.379000,  0.036700
  1.381000,  0.038100
  1.383000,  0.039700
  1.385000,  0.041500
  1.387000,  0.043300
  1.389000,  0.045100
  1.391000,  0.046700
  1.393000,  0.048200
  1.395000,  0.049500
  1.397000,  0.050300
  1.399000,  0.050900
