# z (nm)   (kJ/mol)
  0.3190   17.44030
  0.3210   17.00290
  0.3230   16.51880
  0.3250   16.07230
  0.3270   15.62940
  0.3290   15.17430
  0.3310   14.70800
  0.3330   14.21240
  0.3350   13.72640
  0.3370   13.23970
  0.3390   12.74170
  0.3410   12.24100
  0.3430   11.74870
  0.3450   11.25610
  0.3470   10.75370
  0.3490   10.24230
  0.3510    9.74010
  0.3530    9.25130
  0.3550    8.74900
  0.3570    8.24490
  0.3590    7.74940
  0.3610    7.26230
  0.3630    6.78880
  0.3650    6.32040
  0.3670    5.85430
  0.3690    5.38670
  0.3710    4.92130
  0.3730    4.46090
  0.3750    4.00370
  0.3770    3.56040
  0.3790    3.12900
  0.3810    2.70500
  0.3830    2.29160
  0.3850    1.88520
  0.3870    1.48770
  0.3890    1.09940
  0.3910    0.71710
  0.3930    0.34330
  0.3950   -0.02140
  0.3970   -0.37690
  0.3990   -0.71980
  0.4010   -1.04940
  0.4030   -1.36850
  0.4050   -1.67850
  0.4070   -1.97970
  0.4090   -2.27050
  0.4110   -2.54950
  0.4130   -2.82070
  0.4150   -3.08200
  0.4170   -3.32890
  0.4190   -3.56600
  0.4210   -3.79390
  0.4230   -4.01030
  0.4250   -4.21670
  0.4270   -4.41310
  0.4290   -4.59890
  0.4310   -4.77490
  0.4330   -4.94030
  0.4350   -5.09390
  0.4370   -5.23690
  0.4390   -5.37060
  0.4410   -5.49430
  0.4430   -5.60710
  0.4450   -5.71070
  0.4470   -5.80430
  0.4490   -5.88600
  0.4510   -5.95860
  0.4530   -6.02450
  0.4550   -6.08160
  0.4570   -6.12890
  0.4590   -6.16770
  0.4610   -6.19820
  0.4630   -6.22090
  0.4650   -6.23710
  0.4670   -6.24700
  0.4690   -6.24910
  0.4710   -6.24290
  0.4730   -6.23120
  0.4750   -6.21440
  0.4770   -6.19230
  0.4790   -6.16620
  0.4810   -6.13510
  0.4830   -6.09820
  0.4850   -6.05780
  0.4870   -6.01410
  0.4890   -5.96630
  0.4910   -5.91540
  0.4930   -5.86170
  0.4950   -5.80550
  0.4970   -5.74670
  0.4990   -5.68590
  0.5010   -5.62360
  0.5030   -5.55930
  0.5050   -5.49370
  0.5070   -5.42670
  0.5090   -5.35860
  0.5110   -5.28970
  0.5130   -5.22010
  0.5150   -5.14990
  0.5170   -5.07890
  0.5190   -5.00740
  0.5210   -4.93550
  0.5230   -4.86380
  0.5250   -4.79170
  0.5270   -4.71930
  0.5290   -4.64710
  0.5310   -4.57480
  0.5330   -4.50220
  0.5350   -4.42970
  0.5370   -4.35710
  0.5390   -4.28430
  0.5410   -4.21180
  0.5430   -4.13960
  0.5450   -4.06720
  0.5470   -3.99460
  0.5490   -3.92170
  0.5510   -3.84910
  0.5530   -3.77680
  0.5550   -3.70460
  0.5570   -3.63240
  0.5590   -3.56020
  0.5610   -3.48780
  0.5630   -3.41530
  0.5650   -3.34320
  0.5670   -3.27120
  0.5690   -3.19890
  0.5710   -3.12660
  0.5730   -3.05410
  0.5750   -2.98150
  0.5770   -2.90870
  0.5790   -2.83580
  0.5810   -2.76320
  0.5830   -2.69070
  0.5850   -2.61810
  0.5870   -2.54560
  0.5890   -2.47310
  0.5910   -2.40010
  0.5930   -2.32740
  0.5950   -2.25490
  0.5970   -2.18290
  0.5990   -2.11100
  0.6010   -2.03940
  0.6030   -1.96790
  0.6050   -1.89680
  0.6070   -1.82630
  0.6090   -1.75590
  0.6110   -1.68570
  0.6130   -1.61630
  0.6150   -1.54750
  0.6170   -1.47970
  0.6190   -1.41280
  0.6210   -1.34620
  0.6230   -1.28030
  0.6250   -1.21510
  0.6270   -1.15120
  0.6290   -1.08880
  0.6310   -1.02710
  0.6330   -0.96630
  0.6350   -0.90740
  0.6370   -0.84990
  0.6390   -0.79360
  0.6410   -0.73860
  0.6430   -0.68530
  0.6450   -0.63370
  0.6470   -0.58360
  0.6490   -0.53490
  0.6510   -0.48780
  0.6530   -0.44270
  0.6550   -0.39930
  0.6570   -0.35750
  0.6590   -0.31780
  0.6610   -0.27970
  0.6630   -0.24320
  0.6650   -0.20930
  0.6670   -0.17760
  0.6690   -0.14770
  0.6710   -0.11970
  0.6730   -0.09380
  0.6750   -0.07020
  0.6770   -0.04900
  0.6790   -0.03000
  0.6810   -0.01290
  0.6830    0.00250
  0.6850    0.01590
  0.6870    0.02700
  0.6890    0.03590
  0.6910    0.04290
  0.6930    0.04800
  0.6950    0.05110
  0.6970    0.05280
  0.6990    0.05280
  0.7010    0.05050
  0.7030    0.04660
  0.7050    0.04100
  0.7070    0.03390
  0.7090    0.02540
  0.7110    0.01550
  0.7130    0.00410
  0.7150   -0.00860
  0.7170   -0.02240
  0.7190   -0.03750
  0.7210   -0.05370
  0.7230   -0.07100
  0.7250   -0.08940
  0.7270   -0.10870
  0.7290   -0.12880
  0.7310   -0.14970
  0.7330   -0.17110
  0.7350   -0.19300
  0.7370   -0.21540
  0.7390   -0.23810
  0.7410   -0.26120
  0.7430   -0.28460
  0.7450   -0.30840
  0.7470   -0.33230
  0.7490   -0.35630
  0.7510   -0.38040
  0.7530   -0.40430
  0.7550   -0.42800
  0.7570   -0.45180
  0.7590   -0.47530
  0.7610   -0.49850
  0.7630   -0.52140
  0.7650   -0.54390
  0.7670   -0.56600
  0.7690   -0.58750
  0.7710   -0.60850
  0.7730   -0.62920
  0.7750   -0.64920
  0.7770   -0.66860
  0.7790   -0.68740
  0.7810   -0.70530
  0.7830   -0.72260
  0.7850   -0.73920
  0.7870   -0.75520
  0.7890   -0.77040
  0.7910   -0.78470
  0.7930   -0.79830
  0.7950   -0.81110
  0.7970   -0.82290
  0.7990   -0.83380
  0.8010   -0.84390
  0.8030   -0.85330
  0.8050   -0.86180
  0.8070   -0.86940
  0.8090   -0.87630
  0.8110   -0.88250
  0.8130   -0.88790
  0.8150   -0.89220
  0.8170   -0.89580
  0.8190   -0.89850
  0.8210   -0.90050
  0.8230   -0.90180
  0.8250   -0.90240
  0.8270   -0.90230
  0.8290   -0.90130
  0.8310   -0.89950
  0.8330   -0.89710
  0.8350   -0.89400
  0.8370   -0.89020
  0.8390   -0.88570
  0.8410   -0.88070
  0.8430   -0.87490
  0.8450   -0.86850
  0.8470   -0.86140
  0.8490   -0.85380
  0.8510   -0.84580
  0.8530   -0.83730
  0.8550   -0.82830
  0.8570   -0.81870
  0.8590   -0.80850
  0.8610   -0.79790
  0.8630   -0.78690
  0.8650   -0.77550
  0.8670   -0.76370
  0.8690   -0.75150
  0.8710   -0.73920
  0.8730   -0.72650
  0.8750   -0.71330
  0.8770   -0.69980
  0.8790   -0.68600
  0.8810   -0.67200
  0.8830   -0.65760
  0.8850   -0.64300
  0.8870   -0.62810
  0.8890   -0.61300
  0.8910   -0.59770
  0.8930   -0.58230
  0.8950   -0.56680
  0.8970   -0.55090
  0.8990   -0.53470
  0.9010   -0.51870
  0.9030   -0.50270
  0.9050   -0.48670
  0.9070   -0.47070
  0.9090   -0.45490
  0.9110   -0.43890
  0.9130   -0.42290
  0.9150   -0.40700
  0.9170   -0.39110
  0.9190   -0.37520
  0.9210   -0.35950
  0.9230   -0.34400
  0.9250   -0.32860
  0.9270   -0.31320
  0.9290   -0.29810
  0.9310   -0.28330
  0.9330   -0.26850
  0.9350   -0.25390
  0.9370   -0.23960
  0.9390   -0.22550
  0.9410   -0.21160
  0.9430   -0.19800
  0.9450   -0.18470
  0.9470   -0.17170
  0.9490   -0.15910
  0.9510   -0.14670
  0.9530   -0.13440
  0.9550   -0.12260
  0.9570   -0.11120
  0.9590   -0.10010
  0.9610   -0.08940
  0.9630   -0.07910
  0.9650   -0.06910
  0.9670   -0.05960
  0.9690   -0.05040
  0.9710   -0.04160
  0.9730   -0.03330
  0.9750   -0.02540
  0.9770   -0.01770
  0.9790   -0.01040
  0.9810   -0.00350
  0.9830    0.00310
  0.9850    0.00940
  0.9870    0.01520
  0.9890    0.02050
  0.9910    0.02550
  0.9930    0.03020
  0.9950    0.03440
  0.9970    0.03840
  0.9990    0.04210
  1.0010    0.04540
  1.0030    0.04820
  1.0050    0.05080
  1.0070    0.05310
  1.0090    0.05520
  1.0110    0.05690
  1.0130    0.05830
  1.0150    0.05940
  1.0170    0.06030
  1.0190    0.06090
  1.0210    0.06130
  1.0230    0.06160
  1.0250    0.06150
  1.0270    0.06120
  1.0290    0.06070
  1.0310    0.06010
  1.0330    0.05930
  1.0350    0.05850
  1.0370    0.05740
  1.0390    0.05610
  1.0410    0.05460
  1.0430    0.05310
  1.0450    0.05120
  1.0470    0.04910
  1.0490    0.04710
  1.0510    0.04500
  1.0530    0.04270
  1.0550    0.04050
  1.0570    0.03830
  1.0590    0.03580
  1.0610    0.03330
  1.0630    0.03070
  1.0650    0.02800
  1.0670    0.02520
  1.0690    0.02250
  1.0710    0.01960
  1.0730    0.01680
  1.0750    0.01400
  1.0770    0.01110
  1.0790    0.00820
  1.0810    0.00510
  1.0830    0.00230
  1.0850   -0.00060
  1.0870   -0.00350
  1.0890   -0.00650
  1.0910   -0.00940
  1.0930   -0.01230
  1.0950   -0.01510
  1.0970   -0.01780
  1.0990   -0.02060
  1.1010   -0.02330
  1.1030   -0.02600
  1.1050   -0.02880
  1.1070   -0.03140
  1.1090   -0.03380
  1.1110   -0.03620
  1.1130   -0.03840
  1.1150   -0.04080
  1.1170   -0.04310
  1.1190   -0.04520
  1.1210   -0.04730
  1.1230   -0.04940
  1.1250   -0.05130
  1.1270   -0.05310
  1.1290   -0.05490
  1.1310   -0.05650
  1.1330   -0.05800
  1.1350   -0.05950
  1.1370   -0.06090
  1.1390   -0.06210
  1.1410   -0.06320
  1.1430   -0.06410
  1.1450   -0.06480
  1.1470   -0.06550
  1.1490   -0.06600
  1.1510   -0.06640
  1.1530   -0.06670
  1.1550   -0.06690
  1.1570   -0.06680
  1.1590   -0.06680
  1.1610   -0.06650
  1.1630   -0.06600
  1.1650   -0.06550
  1.1670   -0.06490
  1.1690   -0.06420
  1.1710   -0.06340
  1.1730   -0.06250
  1.1750   -0.06140
  1.1770   -0.06010
  1.1790   -0.05890
  1.1810   -0.05770
  1.1830   -0.05630
  1.1850   -0.05480
  1.1870   -0.05320
  1.1890   -0.05170
  1.1910   -0.05010
  1.1930   -0.04850
  1.1950   -0.04690
  1.1970   -0.04530
  1.1990   -0.04350
  1.2010   -0.04180
  1.2030   -0.04010
  1.2050   -0.03850
  1.2070   -0.03700
  1.2090   -0.03550
  1.2110   -0.03400
  1.2130   -0.03250
  1.2150   -0.03110
  1.2170   -0.02970
  1.2190   -0.02830
  1.2210   -0.02710
  1.2230   -0.02590
  1.2250   -0.02460
  1.2270   -0.02350
  1.2290   -0.02270
  1.2310   -0.02180
  1.2330   -0.02100
  1.2350   -0.02060
  1.2370   -0.02020
  1.2390   -0.01960
  1.2410   -0.01910
  1.2430   -0.01870
  1.2450   -0.01820
  1.2470   -0.01790
  1.2490   -0.01760
  1.2510   -0.01740
  1.2530   -0.01700
  1.2550   -0.01680
  1.2570   -0.01670
  1.2590   -0.01640
  1.2610   -0.01610
  1.2630   -0.01580
  1.2650   -0.01540
  1.2670   -0.01510
  1.2690   -0.01460
  1.2710   -0.01430
  1.2730   -0.01410
  1.2750   -0.01370
  1.2770   -0.01330
  1.2790   -0.01290
  1.2810   -0.01250
  1.2830   -0.01190
  1.2850   -0.01130
  1.2870   -0.01070
  1.2890   -0.01000
  1.2910   -0.00930
  1.2930   -0.00860
  1.2950   -0.00780
  1.2970   -0.00690
  1.2990   -0.00600
  1.3010   -0.00500
  1.3030   -0.00410
  1.3050   -0.00310
  1.3070   -0.00210
  1.3090   -0.00110
  1.3110   -0.00000
  1.3130    0.00100
  1.3150    0.00200
  1.3170    0.00300
  1.3190    0.00400
  1.3210    0.00500
  1.3230    0.00600
  1.3250    0.00710
  1.3270    0.00810
  1.3290    0.00920
  1.3310    0.01020
  1.3330    0.01110
  1.3350    0.01190
  1.3370    0.01270
  1.3390    0.01370
  1.3410    0.01460
  1.3430    0.01560
  1.3450    0.01660
  1.3470    0.01760
  1.3490    0.01860
  1.3510    0.01970
  1.3530    0.02070
  1.3550    0.02160
  1.3570    0.02250
  1.3590    0.02370
  1.3610    0.02480
  1.3630    0.02590
  1.3650    0.02700
  1.3670    0.02830
  1.3690    0.02960
  1.3710    0.03090
  1.3730    0.03230
  1.3750    0.03370
  1.3770    0.03520
  1.3790    0.03670
  1.3810    0.03810
  1.3830    0.03970
  1.3850    0.04150
  1.3870    0.04330
  1.3890    0.04510
  1.3910    0.04670
  1.3930    0.04820
  1.3950    0.04950
  1.3970    0.05030
  1.3990    0.05090
