# z (nm)   (kJ/mol)
  0.359000, 12.059500
  0.361000, 11.453300
  0.365000, 10.307200
  0.367000,  9.807100
  0.369000,  9.238300
  0.371000,  8.659500
  0.373000,  8.099200
  0.375000,  7.537400
  0.377000,  6.990300
  0.379000,  6.449900
  0.381000,  5.900600
  0.383000,  5.356500
  0.385000,  4.829000
  0.387000,  4.310100
  0.389000,  3.792500
  0.391000,  3.277400
  0.393000,  2.772600
  0.395000,  2.285500
  0.397000,  1.811300
  0.399000,  1.349000
  0.401000,  0.892100
  0.403000,  0.447800
  0.405000,  0.017500
  0.407000, -0.398700
  0.409000, -0.800400
  0.411000, -1.189400
  0.413000, -1.562200
  0.415000, -1.919400
  0.417000, -2.264600
  0.419000, -2.597400
  0.421000, -2.916200
  0.423000, -3.220500
  0.425000, -3.511100
  0.427000, -3.789500
  0.429000, -4.052600
  0.431000, -4.299300
  0.433000, -4.532400
  0.435000, -4.751500
  0.437000, -4.957100
  0.439000, -5.149500
  0.441000, -5.328100
  0.443000, -5.492900
  0.445000, -5.644400
  0.447000, -5.783000
  0.449000, -5.908500
  0.451000, -6.021900
  0.453000, -6.123800
  0.455000, -6.215100
  0.457000, -6.295300
  0.459000, -6.364200
  0.461000, -6.421900
  0.463000, -6.470500
  0.465000, -6.509500
  0.467000, -6.537100
  0.469000, -6.556900
  0.471000, -6.570000
  0.473000, -6.575200
  0.475000, -6.573300
  0.477000, -6.566900
  0.479000, -6.555600
  0.481000, -6.537600
  0.483000, -6.514900
  0.485000, -6.488100
  0.487000, -6.456600
  0.489000, -6.422700
  0.491000, -6.386700
  0.493000, -6.349000
  0.495000, -6.309700
  0.497000, -6.268300
  0.499000, -6.225600
  0.501000, -6.182000
  0.503000, -6.137500
  0.505000, -6.092900
  0.507000, -6.048200
  0.509000, -6.003800
  0.511000, -5.960100
  0.513000, -5.916600
  0.515000, -5.873700
  0.517000, -5.831500
  0.519000, -5.790200
  0.521000, -5.749300
  0.523000, -5.708600
  0.525000, -5.668200
  0.527000, -5.628700
  0.529000, -5.589800
  0.531000, -5.551200
  0.533000, -5.512800
  0.535000, -5.474300
  0.537000, -5.435600
  0.539000, -5.397400
  0.541000, -5.358500
  0.543000, -5.319100
  0.545000, -5.279700
  0.547000, -5.240000
  0.549000, -5.200100
  0.551000, -5.158700
  0.553000, -5.116400
  0.555000, -5.073600
  0.557000, -5.029500
  0.559000, -4.983900
  0.561000, -4.937700
  0.563000, -4.890300
  0.565000, -4.841300
  0.567000, -4.790600
  0.569000, -4.738200
  0.571000, -4.684400
  0.573000, -4.629100
  0.575000, -4.571600
  0.577000, -4.512400
  0.579000, -4.452100
  0.581000, -4.390000
  0.583000, -4.326100
  0.585000, -4.260300
  0.587000, -4.192600
  0.589000, -4.123400
  0.591000, -4.052800
  0.593000, -3.980400
  0.595000, -3.906500
  0.597000, -3.831500
  0.599000, -3.755300
  0.601000, -3.678100
  0.603000, -3.599800
  0.605000, -3.520400
  0.607000, -3.439700
  0.609000, -3.358100
  0.611000, -3.275600
  0.613000, -3.192700
  0.615000, -3.109100
  0.617000, -3.024600
  0.619000, -2.939600
  0.621000, -2.854400
  0.623000, -2.769400
  0.625000, -2.683700
  0.627000, -2.597800
  0.629000, -2.512300
  0.631000, -2.427000
  0.633000, -2.341700
  0.635000, -2.256500
  0.637000, -2.171800
  0.639000, -2.087600
  0.641000, -2.003800
  0.643000, -1.920800
  0.645000, -1.838700
  0.647000, -1.757600
  0.649000, -1.677700
  0.651000, -1.598900
  0.653000, -1.521300
  0.655000, -1.445000
  0.657000, -1.370200
  0.659000, -1.296800
  0.661000, -1.224700
  0.663000, -1.153900
  0.665000, -1.084600
  0.667000, -1.017400
  0.669000, -0.952200
  0.671000, -0.888300
  0.673000, -0.826300
  0.675000, -0.766500
  0.677000, -0.708700
  0.679000, -0.653000
  0.681000, -0.599000
  0.683000, -0.547000
  0.685000, -0.497400
  0.687000, -0.450100
  0.689000, -0.404500
  0.691000, -0.361200
  0.693000, -0.320200
  0.695000, -0.281300
  0.697000, -0.244400
  0.699000, -0.209600
  0.701000, -0.177100
  0.703000, -0.146600
  0.705000, -0.118300
  0.707000, -0.092200
  0.709000, -0.068000
  0.711000, -0.045800
  0.713000, -0.025800
  0.715000, -0.008000
  0.717000,  0.007900
  0.719000,  0.021800
  0.721000,  0.033900
  0.723000,  0.044200
  0.725000,  0.052800
  0.727000,  0.059700
  0.729000,  0.064700
  0.731000,  0.068200
  0.733000,  0.070200
  0.735000,  0.070500
  0.737000,  0.069100
  0.739000,  0.066500
  0.741000,  0.062600
  0.743000,  0.057500
  0.745000,  0.050900
  0.747000,  0.043000
  0.749000,  0.034000
  0.751000,  0.023900
  0.753000,  0.012700
  0.755000,  0.000400
  0.757000, -0.012500
  0.759000, -0.026100
  0.761000, -0.040600
  0.763000, -0.056100
  0.765000, -0.072000
  0.767000, -0.088400
  0.769000, -0.105400
  0.771000, -0.123200
  0.773000, -0.141300
  0.775000, -0.159700
  0.777000, -0.178700
  0.779000, -0.197900
  0.781000, -0.217300
  0.783000, -0.236800
  0.785000, -0.256400
  0.787000, -0.276000
  0.789000, -0.295500
  0.791000, -0.315100
  0.793000, -0.334500
  0.795000, -0.353900
  0.797000, -0.373100
  0.799000, -0.391900
  0.801000, -0.410400
  0.803000, -0.428800
  0.805000, -0.446800
  0.807000, -0.464400
  0.809000, -0.481500
  0.811000, -0.498200
  0.813000, -0.514500
  0.815000, -0.530200
  0.817000, -0.545400
  0.819000, -0.560000
  0.821000, -0.574100
  0.823000, -0.587400
  0.825000, -0.600300
  0.827000, -0.612700
  0.829000, -0.624300
  0.831000, -0.635100
  0.833000, -0.645500
  0.835000, -0.655100
  0.837000, -0.663800
  0.839000, -0.671900
  0.841000, -0.679300
  0.843000, -0.686200
  0.845000, -0.692600
  0.847000, -0.698100
  0.849000, -0.702900
  0.851000, -0.707000
  0.853000, -0.710500
  0.855000, -0.713300
  0.857000, -0.715500
  0.859000, -0.717100
  0.861000, -0.718000
  0.863000, -0.718100
  0.865000, -0.717500
  0.867000, -0.716300
  0.869000, -0.714400
  0.871000, -0.712100
  0.873000, -0.709200
  0.875000, -0.705900
  0.877000, -0.702200
  0.879000, -0.697900
  0.881000, -0.693100
  0.883000, -0.687900
  0.885000, -0.682100
  0.887000, -0.675800
  0.889000, -0.669100
  0.891000, -0.662100
  0.893000, -0.654700
  0.895000, -0.646900
  0.897000, -0.638600
  0.899000, -0.629900
  0.901000, -0.620700
  0.903000, -0.611400
  0.905000, -0.601900
  0.907000, -0.592100
  0.909000, -0.581800
  0.911000, -0.571500
  0.913000, -0.560900
  0.915000, -0.549900
  0.917000, -0.538800
  0.919000, -0.527600
  0.921000, -0.516200
  0.923000, -0.504700
  0.925000, -0.493000
  0.927000, -0.481000
  0.929000, -0.468900
  0.931000, -0.456700
  0.933000, -0.444500
  0.935000, -0.432500
  0.937000, -0.420200
  0.939000, -0.407800
  0.941000, -0.395300
  0.943000, -0.382800
  0.945000, -0.370400
  0.947000, -0.358100
  0.949000, -0.346000
  0.951000, -0.333900
  0.953000, -0.321700
  0.955000, -0.309400
  0.957000, -0.297300
  0.959000, -0.285400
  0.961000, -0.273600
  0.963000, -0.261800
  0.965000, -0.250300
  0.967000, -0.238800
  0.969000, -0.227500
  0.971000, -0.216500
  0.973000, -0.205700
  0.975000, -0.194900
  0.977000, -0.184300
  0.979000, -0.174000
  0.981000, -0.164000
  0.983000, -0.154100
  0.985000, -0.144300
  0.987000, -0.134800
  0.989000, -0.125600
  0.991000, -0.116600
  0.993000, -0.107800
  0.995000, -0.099300
  0.997000, -0.091000
  0.999000, -0.083100
  1.001000, -0.075600
  1.003000, -0.068300
  1.005000, -0.061300
  1.007000, -0.054400
  1.009000, -0.047900
  1.011000, -0.041700
  1.013000, -0.035700
  1.015000, -0.030000
  1.017000, -0.024500
  1.019000, -0.019400
  1.021000, -0.014600
  1.023000, -0.010000
  1.025000, -0.005600
  1.027000, -0.001500
  1.029000,  0.002400
  1.031000,  0.006000
  1.033000,  0.009400
  1.035000,  0.012600
  1.037000,  0.015400
  1.039000,  0.018000
  1.041000,  0.020400
  1.043000,  0.022600
  1.045000,  0.024700
  1.047000,  0.026700
  1.049000,  0.028300
  1.051000,  0.029700
  1.053000,  0.031100
  1.055000,  0.032300
  1.057000,  0.033200
  1.059000,  0.034100
  1.061000,  0.034900
  1.063000,  0.035700
  1.065000,  0.036300
  1.067000,  0.036900
  1.069000,  0.037400
  1.071000,  0.037700
  1.073000,  0.037800
  1.075000,  0.038000
  1.077000,  0.038100
  1.079000,  0.038100
  1.081000,  0.038000
  1.083000,  0.037900
  1.085000,  0.037700
  1.087000,  0.037400
  1.089000,  0.036800
  1.091000,  0.036300
  1.093000,  0.035800
  1.095000,  0.035200
  1.097000,  0.034600
  1.099000,  0.033700
  1.101000,  0.032700
  1.103000,  0.031800
  1.105000,  0.030800
  1.107000,  0.029600
  1.109000,  0.028300
  1.111000,  0.026900
  1.113000,  0.025500
  1.115000,  0.024000
  1.117000,  0.022400
  1.119000,  0.020800
  1.121000,  0.019000
  1.123000,  0.017100
  1.125000,  0.015100
  1.127000,  0.012800
  1.129000,  0.010500
  1.131000,  0.008100
  1.133000,  0.005600
  1.135000,  0.003100
  1.137000,  0.000500
  1.139000, -0.002200
  1.141000, -0.004900
  1.143000, -0.007700
  1.145000, -0.010700
  1.147000, -0.013900
  1.149000, -0.017000
  1.151000, -0.020100
  1.153000, -0.023300
  1.155000, -0.026800
  1.157000, -0.030100
  1.159000, -0.033300
  1.161000, -0.036500
  1.163000, -0.039700
  1.165000, -0.043000
  1.167000, -0.046100
  1.169000, -0.049400
  1.171000, -0.052600
  1.173000, -0.055600
  1.175000, -0.058500
  1.177000, -0.061300
  1.179000, -0.064100
  1.181000, -0.066900
  1.183000, -0.069600
  1.185000, -0.072000
  1.187000, -0.074200
  1.189000, -0.076100
  1.191000, -0.077900
  1.193000, -0.079700
  1.195000, -0.081400
  1.197000, -0.082800
  1.199000, -0.084000
  1.201000, -0.085200
  1.203000, -0.086100
  1.205000, -0.086800
  1.207000, -0.087200
  1.209000, -0.087300
  1.211000, -0.087200
  1.213000, -0.087100
  1.215000, -0.086800
  1.217000, -0.086400
  1.219000, -0.085700
  1.221000, -0.084800
  1.223000, -0.083900
  1.225000, -0.082800
  1.227000, -0.081500
  1.229000, -0.080100
  1.231000, -0.078600
  1.233000, -0.076800
  1.235000, -0.074800
  1.237000, -0.072800
  1.239000, -0.070600
  1.241000, -0.068300
  1.243000, -0.066000
  1.245000, -0.063600
  1.247000, -0.061100
  1.249000, -0.058500
  1.251000, -0.055700
  1.253000, -0.053100
  1.255000, -0.050300
  1.257000, -0.047500
  1.259000, -0.044800
  1.261000, -0.042000
  1.263000, -0.039400
  1.265000, -0.036700
  1.267000, -0.034100
  1.269000, -0.031400
  1.271000, -0.028800
  1.273000, -0.026300
  1.275000, -0.023900
  1.277000, -0.021700
  1.279000, -0.019400
  1.281000, -0.017300
  1.283000, -0.015100
  1.285000, -0.013000
  1.287000, -0.011000
  1.289000, -0.009100
  1.291000, -0.007200
  1.293000, -0.005400
  1.295000, -0.003800
  1.297000, -0.002300
  1.299000, -0.000800
  1.301000,  0.000800
  1.303000,  0.002100
  1.305000,  0.003200
  1.307000,  0.004400
  1.309000,  0.005600
  1.311000,  0.006900
  1.313000,  0.008100
  1.315000,  0.009200
  1.317000,  0.010100
  1.319000,  0.011300
  1.321000,  0.012600
  1.323000,  0.013800
  1.325000,  0.015100
  1.327000,  0.016500
  1.329000,  0.018100
  1.331000,  0.019800
  1.333000,  0.021600
  1.335000,  0.023500
  1.337000,  0.025500
  1.339000,  0.027500
  1.341000,  0.029600
  1.343000,  0.031800
  1.345000,  0.034200
  1.347000,  0.036800
  1.349000,  0.039500
  1.351000,  0.042400
  1.353000,  0.045600
  1.355000,  0.048900
  1.357000,  0.052300
  1.359000,  0.055800
  1.361000,  0.059600
  1.363000,  0.063400
  1.365000,  0.067300
  1.367000,  0.071700
  1.369000,  0.076100
  1.371000,  0.080600
  1.373000,  0.085400
  1.375000,  0.090400
  1.377000,  0.095300
  1.379000,  0.100400
  1.381000,  0.105300
  1.383000,  0.110100
  1.385000,  0.114900
  1.387000,  0.119800
  1.389000,  0.124600
  1.391000,  0.129200
  1.393000,  0.133700
  1.395000,  0.138100
  1.397000,  0.141900
  1.399000,  0.145400
