# z (nm)   (kJ/mol)
  0.3590   12.05950
  0.3610   11.45330
  0.3650   10.30720
  0.3670    9.80710
  0.3690    9.23830
  0.3710    8.65950
  0.3730    8.09920
  0.3750    7.53740
  0.3770    6.99030
  0.3790    6.44990
  0.3810    5.90060
  0.3830    5.35650
  0.3850    4.82900
  0.3870    4.31010
  0.3890    3.79250
  0.3910    3.27740
  0.3930    2.77260
  0.3950    2.28550
  0.3970    1.81130
  0.3990    1.34900
  0.4010    0.89210
  0.4030    0.44780
  0.4050    0.01750
  0.4070   -0.39870
  0.4090   -0.80040
  0.4110   -1.18940
  0.4130   -1.56220
  0.4150   -1.91940
  0.4170   -2.26460
  0.4190   -2.59740
  0.4210   -2.91620
  0.4230   -3.22050
  0.4250   -3.51110
  0.4270   -3.78950
  0.4290   -4.05260
  0.4310   -4.29930
  0.4330   -4.53240
  0.4350   -4.75150
  0.4370   -4.95710
  0.4390   -5.14950
  0.4410   -5.32810
  0.4430   -5.49290
  0.4450   -5.64440
  0.4470   -5.78300
  0.4490   -5.90850
  0.4510   -6.02190
  0.4530   -6.12380
  0.4550   -6.21510
  0.4570   -6.29530
  0.4590   -6.36420
  0.4610   -6.42190
  0.4630   -6.47050
  0.4650   -6.50950
  0.4670   -6.53710
  0.4690   -6.55690
  0.4710   -6.57000
  0.4730   -6.57520
  0.4750   -6.57330
  0.4770   -6.56690
  0.4790   -6.55560
  0.4810   -6.53760
  0.4830   -6.51490
  0.4850   -6.48810
  0.4870   -6.45660
  0.4890   -6.42270
  0.4910   -6.38670
  0.4930   -6.34900
  0.4950   -6.30970
  0.4970   -6.26830
  0.4990   -6.22560
  0.5010   -6.18200
  0.5030   -6.13750
  0.5050   -6.09290
  0.5070   -6.04820
  0.5090   -6.00380
  0.5110   -5.96010
  0.5130   -5.91660
  0.5150   -5.87370
  0.5170   -5.83150
  0.5190   -5.79020
  0.5210   -5.74930
  0.5230   -5.70860
  0.5250   -5.66820
  0.5270   -5.62870
  0.5290   -5.58980
  0.5310   -5.55120
  0.5330   -5.51280
  0.5350   -5.47430
  0.5370   -5.43560
  0.5390   -5.39740
  0.5410   -5.35850
  0.5430   -5.31910
  0.5450   -5.27970
  0.5470   -5.24000
  0.5490   -5.20010
  0.5510   -5.15870
  0.5530   -5.11640
  0.5550   -5.07360
  0.5570   -5.02950
  0.5590   -4.98390
  0.5610   -4.93770
  0.5630   -4.89030
  0.5650   -4.84130
  0.5670   -4.79060
  0.5690   -4.73820
  0.5710   -4.68440
  0.5730   -4.62910
  0.5750   -4.57160
  0.5770   -4.51240
  0.5790   -4.45210
  0.5810   -4.39000
  0.5830   -4.32610
  0.5850   -4.26030
  0.5870   -4.19260
  0.5890   -4.12340
  0.5910   -4.05280
  0.5930   -3.98040
  0.5950   -3.90650
  0.5970   -3.83150
  0.5990   -3.75530
  0.6010   -3.67810
  0.6030   -3.59980
  0.6050   -3.52040
  0.6070   -3.43970
  0.6090   -3.35810
  0.6110   -3.27560
  0.6130   -3.19270
  0.6150   -3.10910
  0.6170   -3.02460
  0.6190   -2.93960
  0.6210   -2.85440
  0.6230   -2.76940
  0.6250   -2.68370
  0.6270   -2.59780
  0.6290   -2.51230
  0.6310   -2.42700
  0.6330   -2.34170
  0.6350   -2.25650
  0.6370   -2.17180
  0.6390   -2.08760
  0.6410   -2.00380
  0.6430   -1.92080
  0.6450   -1.83870
  0.6470   -1.75760
  0.6490   -1.67770
  0.6510   -1.59890
  0.6530   -1.52130
  0.6550   -1.44500
  0.6570   -1.37020
  0.6590   -1.29680
  0.6610   -1.22470
  0.6630   -1.15390
  0.6650   -1.08460
  0.6670   -1.01740
  0.6690   -0.95220
  0.6710   -0.88830
  0.6730   -0.82630
  0.6750   -0.76650
  0.6770   -0.70870
  0.6790   -0.65300
  0.6810   -0.59900
  0.6830   -0.54700
  0.6850   -0.49740
  0.6870   -0.45010
  0.6890   -0.40450
  0.6910   -0.36120
  0.6930   -0.32020
  0.6950   -0.28130
  0.6970   -0.24440
  0.6990   -0.20960
  0.7010   -0.17710
  0.7030   -0.14660
  0.7050   -0.11830
  0.7070   -0.09220
  0.7090   -0.06800
  0.7110   -0.04580
  0.7130   -0.02580
  0.7150   -0.00800
  0.7170    0.00790
  0.7190    0.02180
  0.7210    0.03390
  0.7230    0.04420
  0.7250    0.05280
  0.7270    0.05970
  0.7290    0.06470
  0.7310    0.06820
  0.7330    0.07020
  0.7350    0.07050
  0.7370    0.06910
  0.7390    0.06650
  0.7410    0.06260
  0.7430    0.05750
  0.7450    0.05090
  0.7470    0.04300
  0.7490    0.03400
  0.7510    0.02390
  0.7530    0.01270
  0.7550    0.00040
  0.7570   -0.01250
  0.7590   -0.02610
  0.7610   -0.04060
  0.7630   -0.05610
  0.7650   -0.07200
  0.7670   -0.08840
  0.7690   -0.10540
  0.7710   -0.12320
  0.7730   -0.14130
  0.7750   -0.15970
  0.7770   -0.17870
  0.7790   -0.19790
  0.7810   -0.21730
  0.7830   -0.23680
  0.7850   -0.25640
  0.7870   -0.27600
  0.7890   -0.29550
  0.7910   -0.31510
  0.7930   -0.33450
  0.7950   -0.35390
  0.7970   -0.37310
  0.7990   -0.39190
  0.8010   -0.41040
  0.8030   -0.42880
  0.8050   -0.44680
  0.8070   -0.46440
  0.8090   -0.48150
  0.8110   -0.49820
  0.8130   -0.51450
  0.8150   -0.53020
  0.8170   -0.54540
  0.8190   -0.56000
  0.8210   -0.57410
  0.8230   -0.58740
  0.8250   -0.60030
  0.8270   -0.61270
  0.8290   -0.62430
  0.8310   -0.63510
  0.8330   -0.64550
  0.8350   -0.65510
  0.8370   -0.66380
  0.8390   -0.67190
  0.8410   -0.67930
  0.8430   -0.68620
  0.8450   -0.69260
  0.8470   -0.69810
  0.8490   -0.70290
  0.8510   -0.70700
  0.8530   -0.71050
  0.8550   -0.71330
  0.8570   -0.71550
  0.8590   -0.71710
  0.8610   -0.71800
  0.8630   -0.71810
  0.8650   -0.71750
  0.8670   -0.71630
  0.8690   -0.71440
  0.8710   -0.71210
  0.8730   -0.70920
  0.8750   -0.70590
  0.8770   -0.70220
  0.8790   -0.69790
  0.8810   -0.69310
  0.8830   -0.68790
  0.8850   -0.68210
  0.8870   -0.67580
  0.8890   -0.66910
  0.8910   -0.66210
  0.8930   -0.65470
  0.8950   -0.64690
  0.8970   -0.63860
  0.8990   -0.62990
  0.9010   -0.62070
  0.9030   -0.61140
  0.9050   -0.60190
  0.9070   -0.59210
  0.9090   -0.58180
  0.9110   -0.57150
  0.9130   -0.56090
  0.9150   -0.54990
  0.9170   -0.53880
  0.9190   -0.52760
  0.9210   -0.51620
  0.9230   -0.50470
  0.9250   -0.49300
  0.9270   -0.48100
  0.9290   -0.46890
  0.9310   -0.45670
  0.9330   -0.44450
  0.9350   -0.43250
  0.9370   -0.42020
  0.9390   -0.40780
  0.9410   -0.39530
  0.9430   -0.38280
  0.9450   -0.37040
  0.9470   -0.35810
  0.9490   -0.34600
  0.9510   -0.33390
  0.9530   -0.32170
  0.9550   -0.30940
  0.9570   -0.29730
  0.9590   -0.28540
  0.9610   -0.27360
  0.9630   -0.26180
  0.9650   -0.25030
  0.9670   -0.23880
  0.9690   -0.22750
  0.9710   -0.21650
  0.9730   -0.20570
  0.9750   -0.19490
  0.9770   -0.18430
  0.9790   -0.17400
  0.9810   -0.16400
  0.9830   -0.15410
  0.9850   -0.14430
  0.9870   -0.13480
  0.9890   -0.12560
  0.9910   -0.11660
  0.9930   -0.10780
  0.9950   -0.09930
  0.9970   -0.09100
  0.9990   -0.08310
  1.0010   -0.07560
  1.0030   -0.06830
  1.0050   -0.06130
  1.0070   -0.05440
  1.0090   -0.04790
  1.0110   -0.04170
  1.0130   -0.03570
  1.0150   -0.03000
  1.0170   -0.02450
  1.0190   -0.01940
  1.0210   -0.01460
  1.0230   -0.01000
  1.0250   -0.00560
  1.0270   -0.00150
  1.0290    0.00240
  1.0310    0.00600
  1.0330    0.00940
  1.0350    0.01260
  1.0370    0.01540
  1.0390    0.01800
  1.0410    0.02040
  1.0430    0.02260
  1.0450    0.02470
  1.0470    0.02670
  1.0490    0.02830
  1.0510    0.02970
  1.0530    0.03110
  1.0550    0.03230
  1.0570    0.03320
  1.0590    0.03410
  1.0610    0.03490
  1.0630    0.03570
  1.0650    0.03630
  1.0670    0.03690
  1.0690    0.03740
  1.0710    0.03770
  1.0730    0.03780
  1.0750    0.03800
  1.0770    0.03810
  1.0790    0.03810
  1.0810    0.03800
  1.0830    0.03790
  1.0850    0.03770
  1.0870    0.03740
  1.0890    0.03680
  1.0910    0.03630
  1.0930    0.03580
  1.0950    0.03520
  1.0970    0.03460
  1.0990    0.03370
  1.1010    0.03270
  1.1030    0.03180
  1.1050    0.03080
  1.1070    0.02960
  1.1090    0.02830
  1.1110    0.02690
  1.1130    0.02550
  1.1150    0.02400
  1.1170    0.02240
  1.1190    0.02080
  1.1210    0.01900
  1.1230    0.01710
  1.1250    0.01510
  1.1270    0.01280
  1.1290    0.01050
  1.1310    0.00810
  1.1330    0.00560
  1.1350    0.00310
  1.1370    0.00050
  1.1390   -0.00220
  1.1410   -0.00490
  1.1430   -0.00770
  1.1450   -0.01070
  1.1470   -0.01390
  1.1490   -0.01700
  1.1510   -0.02010
  1.1530   -0.02330
  1.1550   -0.02680
  1.1570   -0.03010
  1.1590   -0.03330
  1.1610   -0.03650
  1.1630   -0.03970
  1.1650   -0.04300
  1.1670   -0.04610
  1.1690   -0.04940
  1.1710   -0.05260
  1.1730   -0.05560
  1.1750   -0.05850
  1.1770   -0.06130
  1.1790   -0.06410
  1.1810   -0.06690
  1.1830   -0.06960
  1.1850   -0.07200
  1.1870   -0.07420
  1.1890   -0.07610
  1.1910   -0.07790
  1.1930   -0.07970
  1.1950   -0.08140
  1.1970   -0.08280
  1.1990   -0.08400
  1.2010   -0.08520
  1.2030   -0.08610
  1.2050   -0.08680
  1.2070   -0.08720
  1.2090   -0.08730
  1.2110   -0.08720
  1.2130   -0.08710
  1.2150   -0.08680
  1.2170   -0.08640
  1.2190   -0.08570
  1.2210   -0.08480
  1.2230   -0.08390
  1.2250   -0.08280
  1.2270   -0.08150
  1.2290   -0.08010
  1.2310   -0.07860
  1.2330   -0.07680
  1.2350   -0.07480
  1.2370   -0.07280
  1.2390   -0.07060
  1.2410   -0.06830
  1.2430   -0.06600
  1.2450   -0.06360
  1.2470   -0.06110
  1.2490   -0.05850
  1.2510   -0.05570
  1.2530   -0.05310
  1.2550   -0.05030
  1.2570   -0.04750
  1.2590   -0.04480
  1.2610   -0.04200
  1.2630   -0.03940
  1.2650   -0.03670
  1.2670   -0.03410
  1.2690   -0.03140
  1.2710   -0.02880
  1.2730   -0.02630
  1.2750   -0.02390
  1.2770   -0.02170
  1.2790   -0.01940
  1.2810   -0.01730
  1.2830   -0.01510
  1.2850   -0.01300
  1.2870   -0.01100
  1.2890   -0.00910
  1.2910   -0.00720
  1.2930   -0.00540
  1.2950   -0.00380
  1.2970   -0.00230
  1.2990   -0.00080
  1.3010    0.00080
  1.3030    0.00210
  1.3050    0.00320
  1.3070    0.00440
  1.3090    0.00560
  1.3110    0.00690
  1.3130    0.00810
  1.3150    0.00920
  1.3170    0.01010
  1.3190    0.01130
  1.3210    0.01260
  1.3230    0.01380
  1.3250    0.01510
  1.3270    0.01650
  1.3290    0.01810
  1.3310    0.01980
  1.3330    0.02160
  1.3350    0.02350
  1.3370    0.02550
  1.3390    0.02750
  1.3410    0.02960
  1.3430    0.03180
  1.3450    0.03420
  1.3470    0.03680
  1.3490    0.03950
  1.3510    0.04240
  1.3530    0.04560
  1.3550    0.04890
  1.3570    0.05230
  1.3590    0.05580
  1.3610    0.05960
  1.3630    0.06340
  1.3650    0.06730
  1.3670    0.07170
  1.3690    0.07610
  1.3710    0.08060
  1.3730    0.08540
  1.3750    0.09040
  1.3770    0.09530
  1.3790    0.10040
  1.3810    0.10530
  1.3830    0.11010
  1.3850    0.11490
  1.3870    0.11980
  1.3890    0.12460
  1.3910    0.12920
  1.3930    0.13370
  1.3950    0.13810
  1.3970    0.14190
  1.3990    0.14540
