# z (nm)   (kJ/mol)
  0.319000, 20.613900
  0.321000, 19.826000
  0.323000, 18.995200
  0.325000, 18.239300
  0.327000, 17.570900
  0.329000, 16.877900
  0.331000, 16.168700
  0.333000, 15.478000
  0.335000, 14.817900
  0.337000, 14.173500
  0.339000, 13.544500
  0.341000, 12.931800
  0.343000, 12.332100
  0.345000, 11.752900
  0.347000, 11.188900
  0.349000, 10.637600
  0.351000, 10.103800
  0.353000,  9.586700
  0.355000,  9.083200
  0.357000,  8.593800
  0.359000,  8.119900
  0.361000,  7.662400
  0.363000,  7.221000
  0.365000,  6.797100
  0.367000,  6.392900
  0.369000,  6.007900
  0.371000,  5.643100
  0.373000,  5.300900
  0.375000,  4.983300
  0.377000,  4.688100
  0.379000,  4.410600
  0.381000,  4.152300
  0.383000,  3.913400
  0.385000,  3.687700
  0.387000,  3.464500
  0.389000,  3.252400
  0.391000,  3.048700
  0.393000,  2.836300
  0.395000,  2.613800
  0.397000,  2.395300
  0.399000,  2.171300
  0.401000,  1.927600
  0.403000,  1.674200
  0.405000,  1.413700
  0.407000,  1.147100
  0.409000,  0.877000
  0.411000,  0.604400
  0.413000,  0.327000
  0.415000,  0.048400
  0.417000, -0.228000
  0.419000, -0.503300
  0.421000, -0.775600
  0.423000, -1.040400
  0.425000, -1.299300
  0.427000, -1.552800
  0.429000, -1.799400
  0.431000, -2.039600
  0.433000, -2.273500
  0.435000, -2.500000
  0.437000, -2.719100
  0.439000, -2.931000
  0.441000, -3.136400
  0.443000, -3.336300
  0.445000, -3.531000
  0.447000, -3.717200
  0.449000, -3.897700
  0.451000, -4.075100
  0.453000, -4.248000
  0.455000, -4.414900
  0.457000, -4.576000
  0.459000, -4.732800
  0.461000, -4.884400
  0.463000, -5.027900
  0.465000, -5.166500
  0.467000, -5.301700
  0.469000, -5.432700
  0.471000, -5.557700
  0.473000, -5.674500
  0.475000, -5.789400
  0.477000, -5.898400
  0.479000, -5.998200
  0.481000, -6.093700
  0.483000, -6.185100
  0.485000, -6.272100
  0.487000, -6.351700
  0.489000, -6.427100
  0.491000, -6.503900
  0.493000, -6.574400
  0.495000, -6.640700
  0.497000, -6.704200
  0.499000, -6.760600
  0.501000, -6.810800
  0.503000, -6.856500
  0.505000, -6.900000
  0.507000, -6.940600
  0.509000, -6.977500
  0.511000, -7.011400
  0.513000, -7.040300
  0.515000, -7.064100
  0.517000, -7.083700
  0.519000, -7.099900
  0.521000, -7.113700
  0.523000, -7.126600
  0.525000, -7.136000
  0.527000, -7.138400
  0.529000, -7.137300
  0.531000, -7.134300
  0.533000, -7.128400
  0.535000, -7.120000
  0.537000, -7.109000
  0.539000, -7.094500
  0.541000, -7.077300
  0.543000, -7.057400
  0.545000, -7.034200
  0.547000, -7.009400
  0.549000, -6.983400
  0.551000, -6.955300
  0.553000, -6.925100
  0.555000, -6.892600
  0.557000, -6.859100
  0.559000, -6.824300
  0.561000, -6.786800
  0.563000, -6.748000
  0.565000, -6.708500
  0.567000, -6.666700
  0.569000, -6.623100
  0.571000, -6.578700
  0.573000, -6.533200
  0.575000, -6.486500
  0.577000, -6.439600
  0.579000, -6.391300
  0.581000, -6.342200
  0.583000, -6.292500
  0.585000, -6.241000
  0.587000, -6.189000
  0.589000, -6.135700
  0.591000, -6.081600
  0.593000, -6.027400
  0.595000, -5.972200
  0.597000, -5.916900
  0.599000, -5.861400
  0.601000, -5.805200
  0.603000, -5.748000
  0.605000, -5.690000
  0.607000, -5.631800
  0.609000, -5.573700
  0.611000, -5.515100
  0.613000, -5.455400
  0.615000, -5.395200
  0.617000, -5.334300
  0.619000, -5.273500
  0.621000, -5.212600
  0.623000, -5.151100
  0.625000, -5.089100
  0.627000, -5.026800
  0.629000, -4.964000
  0.631000, -4.900800
  0.633000, -4.837300
  0.635000, -4.773300
  0.637000, -4.708900
  0.639000, -4.644600
  0.641000, -4.579900
  0.643000, -4.514700
  0.645000, -4.449500
  0.647000, -4.384000
  0.649000, -4.318500
  0.651000, -4.253000
  0.653000, -4.187500
  0.655000, -4.121800
  0.657000, -4.056200
  0.659000, -3.990600
  0.661000, -3.925000
  0.663000, -3.859700
  0.665000, -3.794800
  0.667000, -3.730400
  0.669000, -3.666600
  0.671000, -3.603200
  0.673000, -3.540000
  0.675000, -3.477400
  0.677000, -3.415400
  0.679000, -3.354200
  0.681000, -3.294000
  0.683000, -3.234500
  0.685000, -3.175900
  0.687000, -3.118100
  0.689000, -3.061500
  0.691000, -3.006000
  0.693000, -2.951700
  0.695000, -2.898700
  0.697000, -2.846900
  0.699000, -2.796700
  0.701000, -2.747800
  0.703000, -2.700600
  0.705000, -2.654700
  0.707000, -2.610200
  0.709000, -2.567200
  0.711000, -2.525500
  0.713000, -2.485400
  0.715000, -2.446800
  0.717000, -2.410000
  0.719000, -2.374600
  0.721000, -2.340900
  0.723000, -2.308900
  0.725000, -2.277900
  0.727000, -2.248500
  0.729000, -2.220800
  0.731000, -2.194600
  0.733000, -2.170000
  0.735000, -2.146800
  0.737000, -2.124600
  0.739000, -2.103600
  0.741000, -2.083800
  0.743000, -2.064700
  0.745000, -2.046800
  0.747000, -2.030200
  0.749000, -2.014500
  0.751000, -1.999600
  0.753000, -1.985600
  0.755000, -1.972100
  0.757000, -1.959500
  0.759000, -1.947700
  0.761000, -1.936000
  0.763000, -1.925100
  0.765000, -1.914600
  0.767000, -1.904000
  0.769000, -1.893700
  0.771000, -1.883600
  0.773000, -1.874200
  0.775000, -1.864500
  0.777000, -1.854600
  0.779000, -1.844800
  0.781000, -1.835000
  0.783000, -1.824800
  0.785000, -1.814400
  0.787000, -1.803800
  0.789000, -1.792800
  0.791000, -1.781800
  0.793000, -1.770600
  0.795000, -1.759100
  0.797000, -1.747100
  0.799000, -1.734700
  0.801000, -1.722000
  0.803000, -1.708600
  0.805000, -1.694700
  0.807000, -1.680300
  0.809000, -1.665600
  0.811000, -1.650500
  0.813000, -1.635100
  0.815000, -1.619500
  0.817000, -1.603400
  0.819000, -1.586800
  0.821000, -1.570000
  0.823000, -1.552900
  0.825000, -1.535400
  0.827000, -1.517600
  0.829000, -1.499600
  0.831000, -1.481300
  0.833000, -1.462900
  0.835000, -1.444300
  0.837000, -1.425900
  0.839000, -1.407400
  0.841000, -1.388900
  0.843000, -1.370500
  0.845000, -1.351900
  0.847000, -1.333400
  0.849000, -1.315300
  0.851000, -1.297300
  0.853000, -1.279300
  0.855000, -1.261000
  0.857000, -1.242700
  0.859000, -1.225000
  0.861000, -1.207700
  0.863000, -1.190500
  0.865000, -1.173500
  0.867000, -1.156800
  0.869000, -1.140800
  0.871000, -1.125100
  0.873000, -1.110000
  0.875000, -1.095300
  0.877000, -1.080800
  0.879000, -1.066600
  0.881000, -1.052700
  0.883000, -1.039000
  0.885000, -1.025500
  0.887000, -1.012500
  0.889000, -0.999700
  0.891000, -0.987000
  0.893000, -0.974500
  0.895000, -0.962400
  0.897000, -0.950700
  0.899000, -0.939500
  0.901000, -0.928400
  0.903000, -0.917400
  0.905000, -0.906600
  0.907000, -0.896100
  0.909000, -0.885600
  0.911000, -0.875400
  0.913000, -0.865500
  0.915000, -0.855700
  0.917000, -0.845800
  0.919000, -0.836100
  0.921000, -0.826200
  0.923000, -0.816400
  0.925000, -0.806800
  0.927000, -0.797200
  0.929000, -0.787800
  0.931000, -0.778500
  0.933000, -0.769000
  0.935000, -0.759500
  0.937000, -0.750100
  0.939000, -0.740600
  0.941000, -0.731000
  0.943000, -0.721400
  0.945000, -0.711800
  0.947000, -0.702100
  0.949000, -0.692900
  0.951000, -0.683500
  0.953000, -0.674200
  0.955000, -0.665100
  0.957000, -0.655900
  0.959000, -0.646600
  0.961000, -0.637300
  0.963000, -0.628100
  0.965000, -0.619100
  0.967000, -0.610100
  0.969000, -0.601100
  0.971000, -0.592000
  0.973000, -0.583100
  0.975000, -0.574400
  0.977000, -0.565600
  0.979000, -0.556900
  0.981000, -0.548300
  0.983000, -0.539800
  0.985000, -0.531700
  0.987000, -0.523600
  0.989000, -0.515700
  0.991000, -0.508100
  0.993000, -0.500300
  0.995000, -0.492400
  0.997000, -0.484600
  0.999000, -0.477000
  1.001000, -0.469800
  1.003000, -0.462500
  1.005000, -0.455300
  1.007000, -0.448200
  1.009000, -0.441000
  1.011000, -0.433900
  1.013000, -0.426900
  1.015000, -0.420200
  1.017000, -0.413500
  1.019000, -0.406800
  1.021000, -0.400100
  1.023000, -0.393400
  1.025000, -0.386700
  1.027000, -0.380200
  1.029000, -0.373700
  1.031000, -0.367100
  1.033000, -0.360500
  1.035000, -0.353900
  1.037000, -0.347300
  1.039000, -0.340700
  1.041000, -0.334200
  1.043000, -0.327700
  1.045000, -0.321100
  1.047000, -0.314300
  1.049000, -0.307500
  1.051000, -0.301000
  1.053000, -0.294500
  1.055000, -0.288000
  1.057000, -0.281500
  1.059000, -0.274900
  1.061000, -0.268400
  1.063000, -0.261900
  1.065000, -0.255400
  1.067000, -0.249000
  1.069000, -0.242800
  1.071000, -0.236500
  1.073000, -0.230300
  1.075000, -0.224300
  1.077000, -0.218200
  1.079000, -0.212300
  1.081000, -0.206500
  1.083000, -0.200800
  1.085000, -0.195300
  1.087000, -0.189800
  1.089000, -0.184400
  1.091000, -0.179200
  1.093000, -0.174200
  1.095000, -0.169400
  1.097000, -0.164700
  1.099000, -0.160200
  1.101000, -0.155900
  1.103000, -0.151700
  1.105000, -0.147700
  1.107000, -0.144000
  1.109000, -0.140600
  1.111000, -0.137200
  1.113000, -0.133900
  1.115000, -0.130800
  1.117000, -0.127800
  1.119000, -0.125100
  1.121000, -0.122700
  1.123000, -0.120100
  1.125000, -0.117600
  1.127000, -0.115500
  1.129000, -0.113500
  1.131000, -0.111600
  1.133000, -0.109800
  1.135000, -0.108000
  1.137000, -0.106200
  1.139000, -0.104700
  1.141000, -0.103200
  1.143000, -0.101800
  1.145000, -0.100500
  1.147000, -0.099200
  1.149000, -0.098000
  1.151000, -0.096800
  1.153000, -0.095600
  1.155000, -0.094400
  1.157000, -0.093300
  1.159000, -0.092300
  1.161000, -0.091300
  1.163000, -0.090300
  1.165000, -0.089300
  1.167000, -0.088300
  1.169000, -0.087200
  1.171000, -0.086100
  1.173000, -0.085000
  1.175000, -0.083900
  1.177000, -0.082700
  1.179000, -0.081500
  1.181000, -0.080300
  1.183000, -0.079200
  1.185000, -0.078000
  1.187000, -0.076700
  1.189000, -0.075400
  1.191000, -0.074200
  1.193000, -0.073000
  1.195000, -0.071700
  1.197000, -0.070400
  1.199000, -0.069100
  1.201000, -0.067900
  1.203000, -0.066700
  1.205000, -0.065500
  1.207000, -0.064200
  1.209000, -0.062900
  1.211000, -0.061600
  1.213000, -0.060400
  1.215000, -0.059100
  1.217000, -0.057800
  1.219000, -0.056500
  1.221000, -0.055300
  1.223000, -0.054100
  1.225000, -0.052800
  1.227000, -0.051600
  1.229000, -0.050200
  1.231000, -0.048900
  1.233000, -0.047700
  1.235000, -0.046500
  1.237000, -0.045200
  1.239000, -0.043800
  1.241000, -0.042500
  1.243000, -0.041200
  1.245000, -0.039900
  1.247000, -0.038600
  1.249000, -0.037300
  1.251000, -0.035900
  1.253000, -0.034600
  1.255000, -0.033200
  1.257000, -0.032000
  1.259000, -0.030800
  1.261000, -0.029300
  1.263000, -0.028000
  1.265000, -0.026600
  1.267000, -0.025300
  1.269000, -0.024100
  1.271000, -0.022800
  1.273000, -0.021400
  1.275000, -0.020000
  1.277000, -0.018600
  1.279000, -0.017300
  1.281000, -0.016000
  1.283000, -0.014700
  1.285000, -0.013400
  1.287000, -0.012100
  1.289000, -0.010800
  1.291000, -0.009500
  1.293000, -0.008200
  1.295000, -0.007000
  1.297000, -0.005900
  1.299000, -0.004800
  1.301000, -0.003600
  1.303000, -0.002400
  1.305000, -0.001100
  1.307000,  0.000100
  1.309000,  0.001100
  1.311000,  0.002400
  1.313000,  0.003700
  1.315000,  0.004900
  1.317000,  0.006300
  1.319000,  0.007600
  1.321000,  0.008800
  1.323000,  0.009800
  1.325000,  0.010800
  1.327000,  0.011900
  1.329000,  0.013100
  1.331000,  0.014500
  1.333000,  0.016000
  1.335000,  0.017500
  1.337000,  0.019000
  1.339000,  0.020600
  1.341000,  0.022200
  1.343000,  0.024000
  1.345000,  0.025900
  1.347000,  0.027700
  1.349000,  0.029700
  1.351000,  0.032000
  1.353000,  0.034100
  1.355000,  0.036300
  1.357000,  0.038600
  1.359000,  0.041000
  1.361000,  0.043600
  1.363000,  0.046400
  1.365000,  0.049100
  1.367000,  0.051900
  1.369000,  0.054800
  1.371000,  0.057900
  1.373000,  0.061000
  1.375000,  0.064200
  1.377000,  0.067300
  1.379000,  0.070400
  1.381000,  0.073700
  1.383000,  0.077000
  1.385000,  0.080200
  1.387000,  0.083100
  1.389000,  0.085800
  1.391000,  0.088300
  1.393000,  0.090900
  1.395000,  0.093200
  1.397000,  0.095100
  1.399000,  0.096400
