# z (nm)   (kJ/mol)
  0.347000,  3.732400
  0.353000,  2.448100
  0.355000,  1.866400
  0.357000,  1.258700
  0.359000,  0.663700
  0.361000,  0.083700
  0.363000, -0.497400
  0.365000, -1.064200
  0.367000, -1.635000
  0.369000, -2.208300
  0.371000, -2.772700
  0.373000, -3.321800
  0.375000, -3.860200
  0.377000, -4.393900
  0.379000, -4.920200
  0.381000, -5.436200
  0.383000, -5.940600
  0.385000, -6.426700
  0.387000, -6.896500
  0.389000, -7.356600
  0.391000, -7.807100
  0.393000, -8.242500
  0.395000, -8.660400
  0.397000, -9.062000
  0.399000, -9.447600
  0.401000, -9.816000
  0.403000,-10.166700
  0.405000,-10.499800
  0.407000,-10.815300
  0.409000,-11.113000
  0.411000,-11.392500
  0.413000,-11.653800
  0.415000,-11.897300
  0.417000,-12.123600
  0.419000,-12.335600
  0.421000,-12.532500
  0.423000,-12.709200
  0.425000,-12.869800
  0.427000,-13.017600
  0.429000,-13.149400
  0.431000,-13.266100
  0.433000,-13.369000
  0.435000,-13.457800
  0.437000,-13.533800
  0.439000,-13.598300
  0.441000,-13.652500
  0.443000,-13.693900
  0.445000,-13.721800
  0.447000,-13.738800
  0.449000,-13.741900
  0.451000,-13.734400
  0.453000,-13.718700
  0.455000,-13.692000
  0.457000,-13.655500
  0.459000,-13.610300
  0.461000,-13.557700
  0.463000,-13.495700
  0.465000,-13.424800
  0.467000,-13.347400
  0.469000,-13.263200
  0.471000,-13.170900
  0.473000,-13.071400
  0.475000,-12.967500
  0.477000,-12.858000
  0.479000,-12.745100
  0.481000,-12.630800
  0.483000,-12.511800
  0.485000,-12.389400
  0.487000,-12.265000
  0.489000,-12.137400
  0.491000,-12.006400
  0.493000,-11.874400
  0.495000,-11.741200
  0.497000,-11.607600
  0.499000,-11.475200
  0.501000,-11.341500
  0.503000,-11.207200
  0.505000,-11.073300
  0.507000,-10.940100
  0.509000,-10.808200
  0.511000,-10.677200
  0.513000,-10.547400
  0.515000,-10.418600
  0.517000,-10.291500
  0.519000,-10.166700
  0.521000,-10.043300
  0.523000, -9.921700
  0.525000, -9.802100
  0.527000, -9.684600
  0.529000, -9.569100
  0.531000, -9.455400
  0.533000, -9.343400
  0.535000, -9.233200
  0.537000, -9.125200
  0.539000, -9.019500
  0.541000, -8.915800
  0.543000, -8.813700
  0.545000, -8.713600
  0.547000, -8.615500
  0.549000, -8.518500
  0.551000, -8.423100
  0.553000, -8.329400
  0.555000, -8.237100
  0.557000, -8.146200
  0.559000, -8.056400
  0.561000, -7.968000
  0.563000, -7.880500
  0.565000, -7.793800
  0.567000, -7.708200
  0.569000, -7.623600
  0.571000, -7.539600
  0.573000, -7.456500
  0.575000, -7.373900
  0.577000, -7.291600
  0.579000, -7.209600
  0.581000, -7.127700
  0.583000, -7.045800
  0.585000, -6.963800
  0.587000, -6.881800
  0.589000, -6.799600
  0.591000, -6.717200
  0.593000, -6.634000
  0.595000, -6.550300
  0.597000, -6.466000
  0.599000, -6.381000
  0.601000, -6.295600
  0.603000, -6.209800
  0.605000, -6.123500
  0.607000, -6.036400
  0.609000, -5.948900
  0.611000, -5.861200
  0.613000, -5.772900
  0.615000, -5.683600
  0.617000, -5.593400
  0.619000, -5.503000
  0.621000, -5.412100
  0.623000, -5.320600
  0.625000, -5.229000
  0.627000, -5.137400
  0.629000, -5.045400
  0.631000, -4.952800
  0.633000, -4.860100
  0.635000, -4.767600
  0.637000, -4.675000
  0.639000, -4.582500
  0.641000, -4.490300
  0.643000, -4.398600
  0.645000, -4.307500
  0.647000, -4.217100
  0.649000, -4.127000
  0.651000, -4.037500
  0.653000, -3.949000
  0.655000, -3.861400
  0.657000, -3.774600
  0.659000, -3.688800
  0.661000, -3.604700
  0.663000, -3.522000
  0.665000, -3.440200
  0.667000, -3.359900
  0.669000, -3.281100
  0.671000, -3.203700
  0.673000, -3.127600
  0.675000, -3.053300
  0.677000, -2.980700
  0.679000, -2.910000
  0.681000, -2.841500
  0.683000, -2.775100
  0.685000, -2.710400
  0.687000, -2.647300
  0.689000, -2.586400
  0.691000, -2.527500
  0.693000, -2.471000
  0.695000, -2.416700
  0.697000, -2.364100
  0.699000, -2.313600
  0.701000, -2.265300
  0.703000, -2.218800
  0.705000, -2.174500
  0.707000, -2.132500
  0.709000, -2.092400
  0.711000, -2.054600
  0.713000, -2.018800
  0.715000, -1.984700
  0.717000, -1.952700
  0.719000, -1.922700
  0.721000, -1.894500
  0.723000, -1.868200
  0.725000, -1.843800
  0.727000, -1.820800
  0.729000, -1.799500
  0.731000, -1.779900
  0.733000, -1.761700
  0.735000, -1.745000
  0.737000, -1.729700
  0.739000, -1.715800
  0.741000, -1.703200
  0.743000, -1.691900
  0.745000, -1.681700
  0.747000, -1.672800
  0.749000, -1.664800
  0.751000, -1.657600
  0.753000, -1.651400
  0.755000, -1.646200
  0.757000, -1.641700
  0.759000, -1.637800
  0.761000, -1.634700
  0.763000, -1.632400
  0.765000, -1.630400
  0.767000, -1.628900
  0.769000, -1.627600
  0.771000, -1.626600
  0.773000, -1.625900
  0.775000, -1.625400
  0.777000, -1.625200
  0.779000, -1.625200
  0.781000, -1.625300
  0.783000, -1.625400
  0.785000, -1.625400
  0.787000, -1.625300
  0.789000, -1.625000
  0.791000, -1.624400
  0.793000, -1.623700
  0.795000, -1.623000
  0.797000, -1.622000
  0.799000, -1.620500
  0.801000, -1.618900
  0.803000, -1.616800
  0.805000, -1.614400
  0.807000, -1.611700
  0.809000, -1.608700
  0.811000, -1.605300
  0.813000, -1.601500
  0.815000, -1.597400
  0.817000, -1.592900
  0.819000, -1.587900
  0.821000, -1.582400
  0.823000, -1.576500
  0.825000, -1.570100
  0.827000, -1.563200
  0.829000, -1.556100
  0.831000, -1.548500
  0.833000, -1.540500
  0.835000, -1.532300
  0.837000, -1.523800
  0.839000, -1.514800
  0.841000, -1.505300
  0.843000, -1.495700
  0.845000, -1.485700
  0.847000, -1.475400
  0.849000, -1.464800
  0.851000, -1.453900
  0.853000, -1.442600
  0.855000, -1.431000
  0.857000, -1.419200
  0.859000, -1.407300
  0.861000, -1.395100
  0.863000, -1.382600
  0.865000, -1.370000
  0.867000, -1.357300
  0.869000, -1.344300
  0.871000, -1.331300
  0.873000, -1.318100
  0.875000, -1.304700
  0.877000, -1.291200
  0.879000, -1.277400
  0.881000, -1.263400
  0.883000, -1.249500
  0.885000, -1.235200
  0.887000, -1.220800
  0.889000, -1.206500
  0.891000, -1.192000
  0.893000, -1.177300
  0.895000, -1.162700
  0.897000, -1.148100
  0.899000, -1.133400
  0.901000, -1.118600
  0.903000, -1.103700
  0.905000, -1.088600
  0.907000, -1.073400
  0.909000, -1.058300
  0.911000, -1.043200
  0.913000, -1.028000
  0.915000, -1.012700
  0.917000, -0.997500
  0.919000, -0.982500
  0.921000, -0.967100
  0.923000, -0.951900
  0.925000, -0.936600
  0.927000, -0.921000
  0.929000, -0.905700
  0.931000, -0.890600
  0.933000, -0.875500
  0.935000, -0.860500
  0.937000, -0.845200
  0.939000, -0.829900
  0.941000, -0.815200
  0.943000, -0.800500
  0.945000, -0.785600
  0.947000, -0.770700
  0.949000, -0.755900
  0.951000, -0.741400
  0.953000, -0.727200
  0.955000, -0.713000
  0.957000, -0.698900
  0.959000, -0.684900
  0.961000, -0.671000
  0.963000, -0.657600
  0.965000, -0.644100
  0.967000, -0.630800
  0.969000, -0.618100
  0.971000, -0.605100
  0.973000, -0.592000
  0.975000, -0.579400
  0.977000, -0.567100
  0.979000, -0.555100
  0.981000, -0.543200
  0.983000, -0.531500
  0.985000, -0.520000
  0.987000, -0.508800
  0.989000, -0.497900
  0.991000, -0.487400
  0.993000, -0.477200
  0.995000, -0.467200
  0.997000, -0.457400
  0.999000, -0.448100
  1.001000, -0.438700
  1.003000, -0.429200
  1.005000, -0.420100
  1.007000, -0.411500
  1.009000, -0.403000
  1.011000, -0.394300
  1.013000, -0.385700
  1.015000, -0.377700
  1.017000, -0.369800
  1.019000, -0.362100
  1.021000, -0.354600
  1.023000, -0.347600
  1.025000, -0.340900
  1.027000, -0.334400
  1.029000, -0.328100
  1.031000, -0.321800
  1.033000, -0.315500
  1.035000, -0.309700
  1.037000, -0.304100
  1.039000, -0.298500
  1.041000, -0.293100
  1.043000, -0.288000
  1.045000, -0.283200
  1.047000, -0.278500
  1.049000, -0.274100
  1.051000, -0.269800
  1.053000, -0.265900
  1.055000, -0.262300
  1.057000, -0.258800
  1.059000, -0.255400
  1.061000, -0.252300
  1.063000, -0.249500
  1.065000, -0.246900
  1.067000, -0.244600
  1.069000, -0.242300
  1.071000, -0.240300
  1.073000, -0.238500
  1.075000, -0.236900
  1.077000, -0.235500
  1.079000, -0.234500
  1.081000, -0.233800
  1.083000, -0.233100
  1.085000, -0.232600
  1.087000, -0.232200
  1.089000, -0.232000
  1.091000, -0.231800
  1.093000, -0.231800
  1.095000, -0.232100
  1.097000, -0.232300
  1.099000, -0.232600
  1.101000, -0.233100
  1.103000, -0.233600
  1.105000, -0.234200
  1.107000, -0.234800
  1.109000, -0.235300
  1.111000, -0.235800
  1.113000, -0.236500
  1.115000, -0.237400
  1.117000, -0.238200
  1.119000, -0.238900
  1.121000, -0.239300
  1.123000, -0.239700
  1.125000, -0.240100
  1.127000, -0.240600
  1.129000, -0.240900
  1.131000, -0.240900
  1.133000, -0.240600
  1.135000, -0.240400
  1.137000, -0.240100
  1.139000, -0.239600
  1.141000, -0.239100
  1.143000, -0.238300
  1.145000, -0.237300
  1.147000, -0.236200
  1.149000, -0.234900
  1.151000, -0.233500
  1.153000, -0.231900
  1.155000, -0.230100
  1.157000, -0.228100
  1.159000, -0.226000
  1.161000, -0.224100
  1.163000, -0.222000
  1.165000, -0.219700
  1.167000, -0.217100
  1.169000, -0.214400
  1.171000, -0.211400
  1.173000, -0.208500
  1.175000, -0.205500
  1.177000, -0.202300
  1.179000, -0.199100
  1.181000, -0.195800
  1.183000, -0.192500
  1.185000, -0.189000
  1.187000, -0.185500
  1.189000, -0.182100
  1.191000, -0.178600
  1.193000, -0.175100
  1.195000, -0.171600
  1.197000, -0.167800
  1.199000, -0.164200
  1.201000, -0.160600
  1.203000, -0.156900
  1.205000, -0.153300
  1.207000, -0.149700
  1.209000, -0.146200
  1.211000, -0.142700
  1.213000, -0.139300
  1.215000, -0.135900
  1.217000, -0.132500
  1.219000, -0.129000
  1.221000, -0.125700
  1.223000, -0.122300
  1.225000, -0.119000
  1.227000, -0.115700
  1.229000, -0.112500
  1.231000, -0.109300
  1.233000, -0.106200
  1.235000, -0.103100
  1.237000, -0.100100
  1.239000, -0.097000
  1.241000, -0.094000
  1.243000, -0.091100
  1.245000, -0.088300
  1.247000, -0.085400
  1.249000, -0.082500
  1.251000, -0.079700
  1.253000, -0.076800
  1.255000, -0.073900
  1.257000, -0.071000
  1.259000, -0.068200
  1.261000, -0.065400
  1.263000, -0.062700
  1.265000, -0.059900
  1.267000, -0.057000
  1.269000, -0.054200
  1.271000, -0.051300
  1.273000, -0.048300
  1.275000, -0.045400
  1.277000, -0.042500
  1.279000, -0.039500
  1.281000, -0.036500
  1.283000, -0.033600
  1.285000, -0.030500
  1.287000, -0.027200
  1.289000, -0.024000
  1.291000, -0.020800
  1.293000, -0.017600
  1.295000, -0.014400
  1.297000, -0.011100
  1.299000, -0.007800
  1.301000, -0.004700
  1.303000, -0.001400
  1.305000,  0.002000
  1.307000,  0.005500
  1.309000,  0.009000
  1.311000,  0.012500
  1.313000,  0.016200
  1.315000,  0.019900
  1.317000,  0.023500
  1.319000,  0.027200
  1.321000,  0.030900
  1.323000,  0.034500
  1.325000,  0.038200
  1.327000,  0.042100
  1.329000,  0.046000
  1.331000,  0.049900
  1.333000,  0.053800
  1.335000,  0.057700
  1.337000,  0.061700
  1.339000,  0.065600
  1.341000,  0.069600
  1.343000,  0.073500
  1.345000,  0.077300
  1.347000,  0.081300
  1.349000,  0.085300
  1.351000,  0.089100
  1.353000,  0.092900
  1.355000,  0.096700
  1.357000,  0.100600
  1.359000,  0.104600
  1.361000,  0.108600
  1.363000,  0.112500
  1.365000,  0.116300
  1.367000,  0.120100
  1.369000,  0.123800
  1.371000,  0.127400
  1.373000,  0.131100
  1.375000,  0.134700
  1.377000,  0.138200
  1.379000,  0.141400
  1.381000,  0.144700
  1.383000,  0.148100
  1.385000,  0.151100
  1.387000,  0.153900
  1.389000,  0.156400
  1.391000,  0.158700
  1.393000,  0.160900
  1.395000,  0.162800
  1.397000,  0.164400
  1.399000,  0.165400
