# z (nm)   (kJ/mol)
  0.251000, 14.430000
  0.253000, 14.075200
  0.255000, 13.674400
  0.257000, 13.274100
  0.259000, 12.876600
  0.261000, 12.487100
  0.263000, 12.095300
  0.265000, 11.702400
  0.267000, 11.314300
  0.269000, 10.910600
  0.271000, 10.501200
  0.273000, 10.099600
  0.275000,  9.701700
  0.277000,  9.297000
  0.279000,  8.903600
  0.281000,  8.515400
  0.283000,  8.126900
  0.285000,  7.740100
  0.287000,  7.353300
  0.289000,  6.976700
  0.291000,  6.606300
  0.293000,  6.244600
  0.295000,  5.887700
  0.297000,  5.533500
  0.299000,  5.187100
  0.301000,  4.848500
  0.303000,  4.517300
  0.305000,  4.189900
  0.307000,  3.869700
  0.309000,  3.558200
  0.311000,  3.255700
  0.313000,  2.960100
  0.315000,  2.664300
  0.317000,  2.373200
  0.319000,  2.092800
  0.321000,  1.822200
  0.323000,  1.560100
  0.325000,  1.305400
  0.327000,  1.055100
  0.329000,  0.810600
  0.331000,  0.572800
  0.333000,  0.340800
  0.335000,  0.116100
  0.337000, -0.101600
  0.339000, -0.311200
  0.341000, -0.513900
  0.343000, -0.709700
  0.345000, -0.897800
  0.347000, -1.079600
  0.349000, -1.254300
  0.351000, -1.421300
  0.353000, -1.581700
  0.355000, -1.735600
  0.357000, -1.882000
  0.359000, -2.022000
  0.361000, -2.155800
  0.363000, -2.282500
  0.365000, -2.403300
  0.367000, -2.518000
  0.369000, -2.626600
  0.371000, -2.730000
  0.373000, -2.828100
  0.375000, -2.920100
  0.377000, -3.005000
  0.379000, -3.083800
  0.381000, -3.158000
  0.383000, -3.226700
  0.385000, -3.290000
  0.387000, -3.348400
  0.389000, -3.402800
  0.391000, -3.452100
  0.393000, -3.495400
  0.395000, -3.534800
  0.397000, -3.569500
  0.399000, -3.600300
  0.401000, -3.628000
  0.403000, -3.651700
  0.405000, -3.671300
  0.407000, -3.687100
  0.409000, -3.699300
  0.411000, -3.707600
  0.413000, -3.712700
  0.415000, -3.714700
  0.417000, -3.713800
  0.419000, -3.709500
  0.421000, -3.702300
  0.423000, -3.692600
  0.425000, -3.680000
  0.427000, -3.665200
  0.429000, -3.648300
  0.431000, -3.628600
  0.433000, -3.606500
  0.435000, -3.582300
  0.437000, -3.556300
  0.439000, -3.528400
  0.441000, -3.498500
  0.443000, -3.467000
  0.445000, -3.433700
  0.447000, -3.398800
  0.449000, -3.362700
  0.451000, -3.325100
  0.453000, -3.286200
  0.455000, -3.246000
  0.457000, -3.204500
  0.459000, -3.162000
  0.461000, -3.118400
  0.463000, -3.073500
  0.465000, -3.027700
  0.467000, -2.981100
  0.469000, -2.933600
  0.471000, -2.885600
  0.473000, -2.837100
  0.475000, -2.787700
  0.477000, -2.737300
  0.479000, -2.686400
  0.481000, -2.635000
  0.483000, -2.582900
  0.485000, -2.530300
  0.487000, -2.477200
  0.489000, -2.423700
  0.491000, -2.369800
  0.493000, -2.315700
  0.495000, -2.261200
  0.497000, -2.206400
  0.499000, -2.151400
  0.501000, -2.095900
  0.503000, -2.040000
  0.505000, -1.984000
  0.507000, -1.927500
  0.509000, -1.870800
  0.511000, -1.814100
  0.513000, -1.757100
  0.515000, -1.700000
  0.517000, -1.642900
  0.519000, -1.585500
  0.521000, -1.528200
  0.523000, -1.470900
  0.525000, -1.413400
  0.527000, -1.356200
  0.529000, -1.299100
  0.531000, -1.241800
  0.533000, -1.184900
  0.535000, -1.128000
  0.537000, -1.071300
  0.539000, -1.015000
  0.541000, -0.959200
  0.543000, -0.903700
  0.545000, -0.848600
  0.547000, -0.793900
  0.549000, -0.739700
  0.551000, -0.686000
  0.553000, -0.633200
  0.555000, -0.580900
  0.557000, -0.529200
  0.559000, -0.478600
  0.561000, -0.429200
  0.563000, -0.380500
  0.565000, -0.332500
  0.567000, -0.285700
  0.569000, -0.240000
  0.571000, -0.195600
  0.573000, -0.152400
  0.575000, -0.110400
  0.577000, -0.069400
  0.579000, -0.029900
  0.581000,  0.008100
  0.583000,  0.044700
  0.585000,  0.079600
  0.587000,  0.113100
  0.589000,  0.145200
  0.591000,  0.175800
  0.593000,  0.204800
  0.595000,  0.232500
  0.597000,  0.258500
  0.599000,  0.282800
  0.601000,  0.305600
  0.603000,  0.326900
  0.605000,  0.346500
  0.607000,  0.364600
  0.609000,  0.381000
  0.611000,  0.395900
  0.613000,  0.409200
  0.615000,  0.421000
  0.617000,  0.431300
  0.619000,  0.440100
  0.621000,  0.447300
  0.623000,  0.453200
  0.625000,  0.457700
  0.627000,  0.460800
  0.629000,  0.462400
  0.631000,  0.462700
  0.633000,  0.461800
  0.635000,  0.459800
  0.637000,  0.456300
  0.639000,  0.451500
  0.641000,  0.445700
  0.643000,  0.438800
  0.645000,  0.430900
  0.647000,  0.422100
  0.649000,  0.412500
  0.651000,  0.402000
  0.653000,  0.390700
  0.655000,  0.378800
  0.657000,  0.366200
  0.659000,  0.352800
  0.661000,  0.338700
  0.663000,  0.323900
  0.665000,  0.308600
  0.667000,  0.292700
  0.669000,  0.276500
  0.671000,  0.259900
  0.673000,  0.242900
  0.675000,  0.225500
  0.677000,  0.207700
  0.679000,  0.189900
  0.681000,  0.172000
  0.683000,  0.153800
  0.685000,  0.135500
  0.687000,  0.117200
  0.689000,  0.098700
  0.691000,  0.080100
  0.693000,  0.061700
  0.695000,  0.043100
  0.697000,  0.024600
  0.699000,  0.006400
  0.701000, -0.011700
  0.703000, -0.029500
  0.705000, -0.047300
  0.707000, -0.065000
  0.709000, -0.082200
  0.711000, -0.099000
  0.713000, -0.115600
  0.715000, -0.131800
  0.717000, -0.147600
  0.719000, -0.163100
  0.721000, -0.178100
  0.723000, -0.192700
  0.725000, -0.206900
  0.727000, -0.220500
  0.729000, -0.233700
  0.731000, -0.246200
  0.733000, -0.258200
  0.735000, -0.269900
  0.737000, -0.280800
  0.739000, -0.291100
  0.741000, -0.300700
  0.743000, -0.309700
  0.745000, -0.318100
  0.747000, -0.325900
  0.749000, -0.332900
  0.751000, -0.339400
  0.753000, -0.345300
  0.755000, -0.350300
  0.757000, -0.354500
  0.759000, -0.358200
  0.761000, -0.361300
  0.763000, -0.363700
  0.765000, -0.365300
  0.767000, -0.366200
  0.769000, -0.366300
  0.771000, -0.365600
  0.773000, -0.364400
  0.775000, -0.362500
  0.777000, -0.359900
  0.779000, -0.356700
  0.781000, -0.352800
  0.783000, -0.348200
  0.785000, -0.343000
  0.787000, -0.337200
  0.789000, -0.330800
  0.791000, -0.323900
  0.793000, -0.316500
  0.795000, -0.308700
  0.797000, -0.300300
  0.799000, -0.291500
  0.801000, -0.282200
  0.803000, -0.272300
  0.805000, -0.262100
  0.807000, -0.251700
  0.809000, -0.240900
  0.811000, -0.229800
  0.813000, -0.218500
  0.815000, -0.207100
  0.817000, -0.195500
  0.819000, -0.183800
  0.821000, -0.171900
  0.823000, -0.159900
  0.825000, -0.147800
  0.827000, -0.135800
  0.829000, -0.123700
  0.831000, -0.111600
  0.833000, -0.099700
  0.835000, -0.088000
  0.837000, -0.076400
  0.839000, -0.064900
  0.841000, -0.053600
  0.843000, -0.042400
  0.845000, -0.031400
  0.847000, -0.020700
  0.849000, -0.010300
  0.851000, -0.000100
  0.853000,  0.009900
  0.855000,  0.019600
  0.857000,  0.029000
  0.859000,  0.038100
  0.861000,  0.046900
  0.863000,  0.055400
  0.865000,  0.063600
  0.867000,  0.071500
  0.869000,  0.079000
  0.871000,  0.086100
  0.873000,  0.093000
  0.875000,  0.099400
  0.877000,  0.105500
  0.879000,  0.111300
  0.881000,  0.116900
  0.883000,  0.122100
  0.885000,  0.127100
  0.887000,  0.131800
  0.889000,  0.136300
  0.891000,  0.140500
  0.893000,  0.144500
  0.895000,  0.148200
  0.897000,  0.151600
  0.899000,  0.154800
  0.901000,  0.157700
  0.903000,  0.160300
  0.905000,  0.162800
  0.907000,  0.165100
  0.909000,  0.167200
  0.911000,  0.169100
  0.913000,  0.170700
  0.915000,  0.172200
  0.917000,  0.173500
  0.919000,  0.174600
  0.921000,  0.175500
  0.923000,  0.176200
  0.925000,  0.176700
  0.927000,  0.177000
  0.929000,  0.177100
  0.931000,  0.177000
  0.933000,  0.176800
  0.935000,  0.176500
  0.937000,  0.175900
  0.939000,  0.175200
  0.941000,  0.174300
  0.943000,  0.173100
  0.945000,  0.171700
  0.947000,  0.170100
  0.949000,  0.168400
  0.951000,  0.166500
  0.953000,  0.164300
  0.955000,  0.162000
  0.957000,  0.159700
  0.959000,  0.157000
  0.961000,  0.154100
  0.963000,  0.151000
  0.965000,  0.147700
  0.967000,  0.144300
  0.969000,  0.140800
  0.971000,  0.137200
  0.973000,  0.133300
  0.975000,  0.129400
  0.977000,  0.125200
  0.979000,  0.121000
  0.981000,  0.116700
  0.983000,  0.112200
  0.985000,  0.107700
  0.987000,  0.103000
  0.989000,  0.098400
  0.991000,  0.093800
  0.993000,  0.089000
  0.995000,  0.084300
  0.997000,  0.079600
  0.999000,  0.074800
  1.001000,  0.069900
  1.003000,  0.065200
  1.005000,  0.060500
  1.007000,  0.055800
  1.009000,  0.051100
  1.011000,  0.046400
  1.013000,  0.041900
  1.015000,  0.037400
  1.017000,  0.033100
  1.019000,  0.029000
  1.021000,  0.025000
  1.023000,  0.021100
  1.025000,  0.017300
  1.027000,  0.013700
  1.029000,  0.010200
  1.031000,  0.006900
  1.033000,  0.003700
  1.035000,  0.000700
  1.037000, -0.002300
  1.039000, -0.005100
  1.041000, -0.007700
  1.043000, -0.010200
  1.045000, -0.012600
  1.047000, -0.014800
  1.049000, -0.016800
  1.051000, -0.018700
  1.053000, -0.020300
  1.055000, -0.021900
  1.057000, -0.023400
  1.059000, -0.024600
  1.061000, -0.025800
  1.063000, -0.027000
  1.065000, -0.027900
  1.067000, -0.028800
  1.069000, -0.029500
  1.071000, -0.030200
  1.073000, -0.030800
  1.075000, -0.031300
  1.077000, -0.031700
  1.079000, -0.032100
  1.081000, -0.032500
  1.083000, -0.032700
  1.085000, -0.032900
  1.087000, -0.033100
  1.089000, -0.033200
  1.091000, -0.033200
  1.093000, -0.033200
  1.095000, -0.033100
  1.097000, -0.033000
  1.099000, -0.032800
  1.101000, -0.032600
  1.103000, -0.032400
  1.105000, -0.032000
  1.107000, -0.031700
  1.109000, -0.031400
  1.111000, -0.031000
  1.113000, -0.030600
  1.115000, -0.030100
  1.117000, -0.029600
  1.119000, -0.029100
  1.121000, -0.028500
  1.123000, -0.027900
  1.125000, -0.027200
  1.127000, -0.026500
  1.129000, -0.025800
  1.131000, -0.025100
  1.133000, -0.024200
  1.135000, -0.023300
  1.137000, -0.022400
  1.139000, -0.021500
  1.141000, -0.020500
  1.143000, -0.019400
  1.145000, -0.018400
  1.147000, -0.017500
  1.149000, -0.016600
  1.151000, -0.015500
  1.153000, -0.014400
  1.155000, -0.013300
  1.157000, -0.012200
  1.159000, -0.011200
  1.161000, -0.010200
  1.163000, -0.009200
  1.165000, -0.008200
  1.167000, -0.007200
  1.169000, -0.006200
  1.171000, -0.005200
  1.173000, -0.004300
  1.175000, -0.003400
  1.177000, -0.002400
  1.179000, -0.001600
  1.181000, -0.000700
  1.183000,  0.000200
  1.185000,  0.001000
  1.187000,  0.001700
  1.189000,  0.002500
  1.191000,  0.003100
  1.193000,  0.003600
  1.195000,  0.004100
  1.197000,  0.004700
  1.199000,  0.005200
  1.201000,  0.005700
  1.203000,  0.006100
  1.205000,  0.006400
  1.207000,  0.006700
  1.209000,  0.007100
  1.211000,  0.007300
  1.213000,  0.007400
  1.215000,  0.007500
  1.217000,  0.007500
  1.219000,  0.007600
  1.221000,  0.007600
  1.223000,  0.007600
  1.225000,  0.007500
  1.227000,  0.007400
  1.229000,  0.007300
  1.231000,  0.007200
  1.233000,  0.007000
  1.235000,  0.006800
  1.237000,  0.006600
  1.239000,  0.006400
  1.241000,  0.006200
  1.243000,  0.005900
  1.245000,  0.005600
  1.247000,  0.005300
  1.249000,  0.005100
  1.251000,  0.004900
  1.253000,  0.004700
  1.255000,  0.004400
  1.257000,  0.004100
  1.259000,  0.003900
  1.261000,  0.003600
  1.263000,  0.003300
  1.265000,  0.003000
  1.267000,  0.002600
  1.269000,  0.002200
  1.271000,  0.001900
  1.273000,  0.001600
  1.275000,  0.001200
  1.277000,  0.000900
  1.279000,  0.000500
  1.281000,  0.000100
  1.283000, -0.000300
  1.285000, -0.000800
  1.287000, -0.001200
  1.289000, -0.001800
  1.291000, -0.002300
  1.293000, -0.002900
  1.295000, -0.003400
  1.297000, -0.004000
  1.299000, -0.004600
  1.301000, -0.005100
  1.303000, -0.005600
  1.305000, -0.006300
  1.307000, -0.006900
  1.309000, -0.007500
  1.311000, -0.008400
  1.313000, -0.009200
  1.315000, -0.009800
  1.317000, -0.010300
  1.319000, -0.010900
  1.321000, -0.011500
  1.323000, -0.012000
  1.325000, -0.012600
  1.327000, -0.013100
  1.329000, -0.013600
  1.331000, -0.014100
  1.333000, -0.014400
  1.335000, -0.014700
  1.337000, -0.014800
  1.339000, -0.014800
  1.341000, -0.014800
  1.343000, -0.014600
  1.345000, -0.014300
  1.347000, -0.014000
  1.349000, -0.013500
  1.351000, -0.013000
  1.353000, -0.012500
  1.355000, -0.011900
  1.357000, -0.011000
  1.359000, -0.009900
  1.361000, -0.008800
  1.363000, -0.007500
  1.365000, -0.006200
  1.367000, -0.004700
  1.369000, -0.003100
  1.371000, -0.001400
  1.373000,  0.000300
  1.375000,  0.002100
  1.377000,  0.004200
  1.379000,  0.006500
  1.381000,  0.009000
  1.383000,  0.011200
  1.385000,  0.013400
  1.387000,  0.015700
  1.389000,  0.017900
  1.391000,  0.020100
  1.393000,  0.022100
  1.395000,  0.023600
  1.397000,  0.025000
  1.399000,  0.026000
