# z (nm)   (kJ/mol)
  0.279000, 14.416500
  0.281000, 13.985700
  0.283000, 13.605600
  0.285000, 13.223500
  0.287000, 12.833100
  0.289000, 12.430600
  0.291000, 11.970800
  0.293000, 11.509200
  0.295000, 11.053500
  0.297000, 10.599400
  0.299000, 10.143600
  0.301000,  9.684900
  0.303000,  9.223000
  0.305000,  8.762900
  0.307000,  8.310200
  0.309000,  7.860200
  0.311000,  7.410900
  0.313000,  6.969600
  0.315000,  6.531800
  0.317000,  6.101200
  0.319000,  5.682300
  0.321000,  5.267500
  0.323000,  4.853900
  0.325000,  4.447700
  0.327000,  4.052500
  0.329000,  3.666800
  0.331000,  3.291100
  0.333000,  2.920200
  0.335000,  2.559300
  0.337000,  2.210700
  0.339000,  1.867900
  0.341000,  1.535900
  0.343000,  1.211600
  0.345000,  0.890500
  0.347000,  0.581200
  0.349000,  0.280200
  0.351000, -0.014300
  0.353000, -0.299600
  0.355000, -0.574800
  0.357000, -0.839900
  0.359000, -1.099500
  0.361000, -1.351600
  0.363000, -1.594900
  0.365000, -1.829000
  0.367000, -2.053600
  0.369000, -2.269000
  0.371000, -2.476800
  0.373000, -2.676200
  0.375000, -2.865900
  0.377000, -3.046900
  0.379000, -3.220100
  0.381000, -3.385700
  0.383000, -3.543000
  0.385000, -3.690700
  0.387000, -3.829800
  0.389000, -3.961800
  0.391000, -4.085400
  0.393000, -4.201500
  0.395000, -4.311000
  0.397000, -4.413000
  0.399000, -4.507200
  0.401000, -4.594300
  0.403000, -4.675800
  0.405000, -4.749900
  0.407000, -4.816900
  0.409000, -4.878100
  0.411000, -4.933000
  0.413000, -4.982200
  0.415000, -5.025400
  0.417000, -5.062200
  0.419000, -5.093100
  0.421000, -5.119300
  0.423000, -5.141000
  0.425000, -5.156600
  0.427000, -5.167900
  0.429000, -5.175100
  0.431000, -5.178400
  0.433000, -5.177500
  0.435000, -5.172600
  0.437000, -5.164000
  0.439000, -5.150300
  0.441000, -5.133700
  0.443000, -5.114400
  0.445000, -5.091700
  0.447000, -5.066400
  0.449000, -5.038600
  0.451000, -5.008400
  0.453000, -4.975500
  0.455000, -4.940100
  0.457000, -4.902400
  0.459000, -4.862700
  0.461000, -4.821000
  0.463000, -4.777300
  0.465000, -4.731900
  0.467000, -4.684700
  0.469000, -4.636000
  0.471000, -4.586000
  0.473000, -4.534600
  0.475000, -4.482000
  0.477000, -4.427900
  0.479000, -4.372500
  0.481000, -4.316200
  0.483000, -4.258700
  0.485000, -4.200200
  0.487000, -4.140900
  0.489000, -4.080700
  0.491000, -4.019700
  0.493000, -3.957800
  0.495000, -3.895100
  0.497000, -3.831700
  0.499000, -3.767600
  0.501000, -3.702900
  0.503000, -3.637700
  0.505000, -3.572100
  0.507000, -3.506200
  0.509000, -3.439800
  0.511000, -3.372800
  0.513000, -3.305300
  0.515000, -3.237500
  0.517000, -3.169700
  0.519000, -3.101800
  0.521000, -3.033700
  0.523000, -2.965300
  0.525000, -2.896700
  0.527000, -2.828200
  0.529000, -2.759500
  0.531000, -2.690700
  0.533000, -2.622000
  0.535000, -2.553500
  0.537000, -2.485200
  0.539000, -2.416700
  0.541000, -2.348200
  0.543000, -2.280000
  0.545000, -2.212000
  0.547000, -2.144200
  0.549000, -2.076600
  0.551000, -2.009300
  0.553000, -1.942300
  0.555000, -1.875600
  0.557000, -1.809100
  0.559000, -1.743300
  0.561000, -1.677900
  0.563000, -1.613000
  0.565000, -1.548500
  0.567000, -1.484400
  0.569000, -1.420900
  0.571000, -1.358200
  0.573000, -1.296300
  0.575000, -1.235000
  0.577000, -1.175000
  0.579000, -1.115800
  0.581000, -1.057100
  0.583000, -0.999600
  0.585000, -0.943000
  0.587000, -0.887000
  0.589000, -0.832100
  0.591000, -0.778900
  0.593000, -0.726900
  0.595000, -0.676100
  0.597000, -0.627100
  0.599000, -0.579400
  0.601000, -0.532600
  0.603000, -0.487600
  0.605000, -0.443800
  0.607000, -0.401700
  0.609000, -0.361100
  0.611000, -0.321900
  0.613000, -0.284500
  0.615000, -0.248900
  0.617000, -0.215000
  0.619000, -0.182900
  0.621000, -0.152500
  0.623000, -0.124000
  0.625000, -0.097400
  0.627000, -0.072700
  0.629000, -0.049800
  0.631000, -0.028600
  0.633000, -0.009200
  0.635000,  0.008400
  0.637000,  0.024400
  0.639000,  0.038100
  0.641000,  0.050100
  0.643000,  0.060200
  0.645000,  0.068800
  0.647000,  0.075700
  0.649000,  0.080400
  0.651000,  0.083600
  0.653000,  0.085000
  0.655000,  0.085100
  0.657000,  0.083900
  0.659000,  0.081200
  0.661000,  0.077100
  0.663000,  0.071400
  0.665000,  0.064300
  0.667000,  0.056000
  0.669000,  0.046500
  0.671000,  0.035700
  0.673000,  0.023800
  0.675000,  0.010700
  0.677000, -0.003300
  0.679000, -0.018200
  0.681000, -0.033900
  0.683000, -0.050500
  0.685000, -0.067500
  0.687000, -0.085200
  0.689000, -0.103600
  0.691000, -0.122500
  0.693000, -0.141800
  0.695000, -0.161200
  0.697000, -0.181000
  0.699000, -0.201200
  0.701000, -0.221700
  0.703000, -0.242200
  0.705000, -0.262700
  0.707000, -0.283300
  0.709000, -0.304000
  0.711000, -0.324400
  0.713000, -0.344700
  0.715000, -0.364800
  0.717000, -0.384800
  0.719000, -0.404500
  0.721000, -0.423800
  0.723000, -0.442800
  0.725000, -0.461500
  0.727000, -0.479600
  0.729000, -0.497300
  0.731000, -0.514500
  0.733000, -0.531100
  0.735000, -0.547300
  0.737000, -0.563000
  0.739000, -0.578000
  0.741000, -0.592500
  0.743000, -0.606400
  0.745000, -0.619600
  0.747000, -0.632200
  0.749000, -0.644100
  0.751000, -0.655500
  0.753000, -0.666000
  0.755000, -0.675700
  0.757000, -0.684800
  0.759000, -0.693200
  0.761000, -0.700900
  0.763000, -0.707800
  0.765000, -0.714100
  0.767000, -0.719800
  0.769000, -0.724900
  0.771000, -0.729200
  0.773000, -0.732800
  0.775000, -0.735800
  0.777000, -0.738200
  0.779000, -0.739800
  0.781000, -0.740800
  0.783000, -0.741100
  0.785000, -0.740900
  0.787000, -0.740100
  0.789000, -0.738500
  0.791000, -0.736400
  0.793000, -0.734000
  0.795000, -0.731000
  0.797000, -0.727200
  0.799000, -0.723000
  0.801000, -0.718600
  0.803000, -0.713600
  0.805000, -0.707800
  0.807000, -0.701500
  0.809000, -0.694900
  0.811000, -0.687700
  0.813000, -0.680000
  0.815000, -0.672100
  0.817000, -0.663600
  0.819000, -0.654600
  0.821000, -0.645400
  0.823000, -0.635800
  0.825000, -0.625700
  0.827000, -0.615400
  0.829000, -0.604700
  0.831000, -0.593700
  0.833000, -0.582400
  0.835000, -0.570700
  0.837000, -0.559000
  0.839000, -0.547100
  0.841000, -0.534700
  0.843000, -0.522100
  0.845000, -0.509400
  0.847000, -0.496400
  0.849000, -0.483100
  0.851000, -0.469800
  0.853000, -0.456500
  0.855000, -0.443000
  0.857000, -0.429400
  0.859000, -0.415600
  0.861000, -0.401800
  0.863000, -0.387900
  0.865000, -0.373800
  0.867000, -0.359800
  0.869000, -0.345800
  0.871000, -0.331900
  0.873000, -0.317800
  0.875000, -0.303800
  0.877000, -0.289700
  0.879000, -0.275700
  0.881000, -0.261900
  0.883000, -0.247900
  0.885000, -0.234100
  0.887000, -0.220300
  0.889000, -0.206500
  0.891000, -0.193100
  0.893000, -0.179900
  0.895000, -0.166900
  0.897000, -0.153900
  0.899000, -0.141200
  0.901000, -0.128800
  0.903000, -0.116700
  0.905000, -0.104800
  0.907000, -0.093100
  0.909000, -0.081600
  0.911000, -0.070500
  0.913000, -0.059700
  0.915000, -0.049200
  0.917000, -0.039100
  0.919000, -0.029400
  0.921000, -0.019900
  0.923000, -0.010700
  0.925000, -0.001900
  0.927000,  0.006500
  0.929000,  0.014500
  0.931000,  0.022200
  0.933000,  0.029500
  0.935000,  0.036200
  0.937000,  0.042500
  0.939000,  0.048500
  0.941000,  0.054100
  0.943000,  0.059100
  0.945000,  0.063600
  0.947000,  0.067900
  0.949000,  0.071800
  0.951000,  0.075100
  0.953000,  0.077900
  0.955000,  0.080400
  0.957000,  0.082500
  0.959000,  0.084200
  0.961000,  0.085500
  0.963000,  0.086600
  0.965000,  0.087200
  0.967000,  0.087200
  0.969000,  0.087000
  0.971000,  0.086400
  0.973000,  0.085500
  0.975000,  0.084100
  0.977000,  0.082400
  0.979000,  0.080300
  0.981000,  0.077900
  0.983000,  0.075200
  0.985000,  0.072300
  0.987000,  0.069100
  0.989000,  0.065500
  0.991000,  0.061700
  0.993000,  0.057600
  0.995000,  0.053400
  0.997000,  0.049000
  0.999000,  0.044300
  1.001000,  0.039500
  1.003000,  0.034600
  1.005000,  0.029600
  1.007000,  0.024300
  1.009000,  0.018800
  1.011000,  0.013300
  1.013000,  0.007700
  1.015000,  0.001900
  1.017000, -0.003900
  1.019000, -0.009700
  1.021000, -0.015500
  1.023000, -0.021400
  1.025000, -0.027200
  1.027000, -0.032900
  1.029000, -0.038700
  1.031000, -0.044400
  1.033000, -0.050100
  1.035000, -0.055700
  1.037000, -0.061300
  1.039000, -0.066800
  1.041000, -0.072300
  1.043000, -0.077700
  1.045000, -0.082900
  1.047000, -0.087900
  1.049000, -0.092700
  1.051000, -0.097300
  1.053000, -0.101800
  1.055000, -0.106000
  1.057000, -0.110100
  1.059000, -0.114000
  1.061000, -0.117700
  1.063000, -0.121200
  1.065000, -0.124500
  1.067000, -0.127600
  1.069000, -0.130600
  1.071000, -0.133500
  1.073000, -0.136000
  1.075000, -0.138200
  1.077000, -0.140300
  1.079000, -0.142300
  1.081000, -0.144000
  1.083000, -0.145500
  1.085000, -0.146700
  1.087000, -0.147700
  1.089000, -0.148500
  1.091000, -0.149100
  1.093000, -0.149700
  1.095000, -0.150100
  1.097000, -0.150300
  1.099000, -0.150400
  1.101000, -0.150300
  1.103000, -0.149900
  1.105000, -0.149500
  1.107000, -0.149000
  1.109000, -0.148300
  1.111000, -0.147500
  1.113000, -0.146600
  1.115000, -0.145600
  1.117000, -0.144500
  1.119000, -0.143300
  1.121000, -0.141900
  1.123000, -0.140500
  1.125000, -0.139100
  1.127000, -0.137500
  1.129000, -0.135800
  1.131000, -0.134100
  1.133000, -0.132300
  1.135000, -0.130600
  1.137000, -0.128700
  1.139000, -0.126800
  1.141000, -0.125000
  1.143000, -0.123200
  1.145000, -0.121300
  1.147000, -0.119300
  1.149000, -0.117200
  1.151000, -0.115200
  1.153000, -0.113200
  1.155000, -0.111100
  1.157000, -0.109000
  1.159000, -0.106800
  1.161000, -0.104600
  1.163000, -0.102400
  1.165000, -0.100300
  1.167000, -0.098200
  1.169000, -0.096100
  1.171000, -0.093900
  1.173000, -0.091700
  1.175000, -0.089500
  1.177000, -0.087300
  1.179000, -0.085200
  1.181000, -0.083100
  1.183000, -0.080900
  1.185000, -0.078700
  1.187000, -0.076500
  1.189000, -0.074300
  1.191000, -0.072100
  1.193000, -0.069700
  1.195000, -0.067500
  1.197000, -0.065200
  1.199000, -0.062900
  1.201000, -0.060700
  1.203000, -0.058400
  1.205000, -0.056200
  1.207000, -0.053800
  1.209000, -0.051400
  1.211000, -0.049200
  1.213000, -0.047100
  1.215000, -0.044800
  1.217000, -0.042400
  1.219000, -0.040200
  1.221000, -0.038000
  1.223000, -0.035800
  1.225000, -0.033500
  1.227000, -0.031300
  1.229000, -0.029100
  1.231000, -0.027000
  1.233000, -0.024900
  1.235000, -0.022700
  1.237000, -0.020600
  1.239000, -0.018600
  1.241000, -0.016700
  1.243000, -0.014800
  1.245000, -0.012800
  1.247000, -0.010900
  1.249000, -0.009000
  1.251000, -0.007200
  1.253000, -0.005500
  1.255000, -0.003800
  1.257000, -0.002200
  1.259000, -0.000600
  1.261000,  0.000900
  1.263000,  0.002300
  1.265000,  0.003600
  1.267000,  0.004800
  1.269000,  0.006000
  1.271000,  0.007100
  1.273000,  0.008200
  1.275000,  0.009100
  1.277000,  0.010000
  1.279000,  0.010700
  1.281000,  0.011400
  1.283000,  0.012000
  1.285000,  0.012600
  1.287000,  0.013000
  1.289000,  0.013400
  1.291000,  0.013800
  1.293000,  0.014000
  1.295000,  0.014100
  1.297000,  0.014200
  1.299000,  0.014300
  1.301000,  0.014300
  1.303000,  0.014100
  1.305000,  0.013900
  1.307000,  0.013600
  1.309000,  0.013200
  1.311000,  0.012800
  1.313000,  0.012300
  1.315000,  0.012000
  1.317000,  0.011500
  1.319000,  0.011000
  1.321000,  0.010500
  1.323000,  0.009900
  1.325000,  0.009400
  1.327000,  0.009000
  1.329000,  0.008400
  1.331000,  0.007900
  1.333000,  0.007500
  1.335000,  0.007200
  1.337000,  0.006900
  1.339000,  0.006800
  1.341000,  0.006600
  1.343000,  0.006500
  1.345000,  0.006400
  1.347000,  0.006500
  1.349000,  0.006600
  1.351000,  0.006800
  1.353000,  0.007200
  1.355000,  0.007600
  1.357000,  0.008100
  1.359000,  0.008700
  1.361000,  0.009400
  1.363000,  0.010200
  1.365000,  0.011100
  1.367000,  0.012300
  1.369000,  0.013700
  1.371000,  0.015100
  1.373000,  0.016500
  1.375000,  0.018100
  1.377000,  0.019700
  1.379000,  0.021200
  1.381000,  0.023100
  1.383000,  0.024900
  1.385000,  0.026400
  1.387000,  0.027800
  1.389000,  0.029200
  1.391000,  0.030300
  1.393000,  0.031300
  1.395000,  0.032000
  1.397000,  0.032500
  1.399000,  0.032800
