# z (nm)   (kJ/mol)
  0.351000, 15.342500
  0.353000, 14.785200
  0.355000, 14.215400
  0.357000, 13.607500
  0.359000, 12.991000
  0.361000, 12.374700
  0.363000, 11.742900
  0.365000, 11.090600
  0.367000, 10.428100
  0.369000,  9.754000
  0.371000,  9.074800
  0.373000,  8.388800
  0.375000,  7.696900
  0.377000,  7.008400
  0.379000,  6.318700
  0.381000,  5.632700
  0.383000,  4.956700
  0.385000,  4.289800
  0.387000,  3.638300
  0.389000,  3.009000
  0.391000,  2.405800
  0.393000,  1.820500
  0.395000,  1.248000
  0.397000,  0.692500
  0.399000,  0.155600
  0.401000, -0.366100
  0.403000, -0.874300
  0.405000, -1.366100
  0.407000, -1.842700
  0.409000, -2.306600
  0.411000, -2.758800
  0.413000, -3.199000
  0.415000, -3.627400
  0.417000, -4.040900
  0.419000, -4.438000
  0.421000, -4.821500
  0.423000, -5.188300
  0.425000, -5.540100
  0.427000, -5.878200
  0.429000, -6.200600
  0.431000, -6.508400
  0.433000, -6.800500
  0.435000, -7.078300
  0.437000, -7.340200
  0.439000, -7.585900
  0.441000, -7.816100
  0.443000, -8.031300
  0.445000, -8.232800
  0.447000, -8.421600
  0.449000, -8.595300
  0.451000, -8.752300
  0.453000, -8.895900
  0.455000, -9.026900
  0.457000, -9.144900
  0.459000, -9.250000
  0.461000, -9.340900
  0.463000, -9.420900
  0.465000, -9.488600
  0.467000, -9.543500
  0.469000, -9.589400
  0.471000, -9.624300
  0.473000, -9.649700
  0.475000, -9.666800
  0.477000, -9.674000
  0.479000, -9.672600
  0.481000, -9.665000
  0.483000, -9.651000
  0.485000, -9.630600
  0.487000, -9.605100
  0.489000, -9.575500
  0.491000, -9.541900
  0.493000, -9.501500
  0.495000, -9.457700
  0.497000, -9.411800
  0.499000, -9.360700
  0.501000, -9.307900
  0.503000, -9.254400
  0.505000, -9.197200
  0.507000, -9.137800
  0.509000, -9.078600
  0.511000, -9.018200
  0.513000, -8.957400
  0.515000, -8.896900
  0.517000, -8.835400
  0.519000, -8.773900
  0.521000, -8.712100
  0.523000, -8.649800
  0.525000, -8.587500
  0.527000, -8.525600
  0.529000, -8.465000
  0.531000, -8.404700
  0.533000, -8.344700
  0.535000, -8.284800
  0.537000, -8.224700
  0.539000, -8.164500
  0.541000, -8.104600
  0.543000, -8.044700
  0.545000, -7.984600
  0.547000, -7.924300
  0.549000, -7.863700
  0.551000, -7.803200
  0.553000, -7.742900
  0.555000, -7.682100
  0.557000, -7.620800
  0.559000, -7.558700
  0.561000, -7.496000
  0.563000, -7.432700
  0.565000, -7.368600
  0.567000, -7.303800
  0.569000, -7.238100
  0.571000, -7.171700
  0.573000, -7.104300
  0.575000, -7.035800
  0.577000, -6.966500
  0.579000, -6.895900
  0.581000, -6.824300
  0.583000, -6.752000
  0.585000, -6.679000
  0.587000, -6.605300
  0.589000, -6.530600
  0.591000, -6.455200
  0.593000, -6.379000
  0.595000, -6.301800
  0.597000, -6.223800
  0.599000, -6.145300
  0.601000, -6.066400
  0.603000, -5.987100
  0.605000, -5.907500
  0.607000, -5.827500
  0.609000, -5.747300
  0.611000, -5.666800
  0.613000, -5.585900
  0.615000, -5.505100
  0.617000, -5.424400
  0.619000, -5.343400
  0.621000, -5.262600
  0.623000, -5.181600
  0.625000, -5.100600
  0.627000, -5.019800
  0.629000, -4.939300
  0.631000, -4.858900
  0.633000, -4.778700
  0.635000, -4.698800
  0.637000, -4.619100
  0.639000, -4.539600
  0.641000, -4.460500
  0.643000, -4.381800
  0.645000, -4.303600
  0.647000, -4.225600
  0.649000, -4.148000
  0.651000, -4.070700
  0.653000, -3.993800
  0.655000, -3.917600
  0.657000, -3.841900
  0.659000, -3.766400
  0.661000, -3.691100
  0.663000, -3.616200
  0.665000, -3.542000
  0.667000, -3.468400
  0.669000, -3.395200
  0.671000, -3.322600
  0.673000, -3.250300
  0.675000, -3.178700
  0.677000, -3.107700
  0.679000, -3.037300
  0.681000, -2.967400
  0.683000, -2.897700
  0.685000, -2.828800
  0.687000, -2.760500
  0.689000, -2.692900
  0.691000, -2.625900
  0.693000, -2.559500
  0.695000, -2.493500
  0.697000, -2.428300
  0.699000, -2.364300
  0.701000, -2.301100
  0.703000, -2.238700
  0.705000, -2.177100
  0.707000, -2.116500
  0.709000, -2.057000
  0.711000, -1.998200
  0.713000, -1.940800
  0.715000, -1.884800
  0.717000, -1.830000
  0.719000, -1.776500
  0.721000, -1.723700
  0.723000, -1.672300
  0.725000, -1.622100
  0.727000, -1.573300
  0.729000, -1.525800
  0.731000, -1.479400
  0.733000, -1.434600
  0.735000, -1.391300
  0.737000, -1.349700
  0.739000, -1.309800
  0.741000, -1.271300
  0.743000, -1.234000
  0.745000, -1.198500
  0.747000, -1.164300
  0.749000, -1.131300
  0.751000, -1.099800
  0.753000, -1.070100
  0.755000, -1.042000
  0.757000, -1.015000
  0.759000, -0.989400
  0.761000, -0.965200
  0.763000, -0.942700
  0.765000, -0.921600
  0.767000, -0.902000
  0.769000, -0.884000
  0.771000, -0.867400
  0.773000, -0.852200
  0.775000, -0.837800
  0.777000, -0.824500
  0.779000, -0.812700
  0.781000, -0.801900
  0.783000, -0.792200
  0.785000, -0.783600
  0.787000, -0.775900
  0.789000, -0.769000
  0.791000, -0.763400
  0.793000, -0.758900
  0.795000, -0.754800
  0.797000, -0.751600
  0.799000, -0.749500
  0.801000, -0.748000
  0.803000, -0.747000
  0.805000, -0.746600
  0.807000, -0.746600
  0.809000, -0.747000
  0.811000, -0.748200
  0.813000, -0.749700
  0.815000, -0.751700
  0.817000, -0.754100
  0.819000, -0.756700
  0.821000, -0.759600
  0.823000, -0.762800
  0.825000, -0.766000
  0.827000, -0.769500
  0.829000, -0.773200
  0.831000, -0.776900
  0.833000, -0.780700
  0.835000, -0.784700
  0.837000, -0.788800
  0.839000, -0.792800
  0.841000, -0.796700
  0.843000, -0.800600
  0.845000, -0.804400
  0.847000, -0.808200
  0.849000, -0.811800
  0.851000, -0.815300
  0.853000, -0.818600
  0.855000, -0.821700
  0.857000, -0.824700
  0.859000, -0.827400
  0.861000, -0.830100
  0.863000, -0.832600
  0.865000, -0.834700
  0.867000, -0.836500
  0.869000, -0.838400
  0.871000, -0.840000
  0.873000, -0.841400
  0.875000, -0.842800
  0.877000, -0.843900
  0.879000, -0.844400
  0.881000, -0.844500
  0.883000, -0.844400
  0.885000, -0.844100
  0.887000, -0.843600
  0.889000, -0.843000
  0.891000, -0.842200
  0.893000, -0.841000
  0.895000, -0.839300
  0.897000, -0.837300
  0.899000, -0.835400
  0.901000, -0.833200
  0.903000, -0.830600
  0.905000, -0.827800
  0.907000, -0.824500
  0.909000, -0.820900
  0.911000, -0.817000
  0.913000, -0.812700
  0.915000, -0.808300
  0.917000, -0.803800
  0.919000, -0.798900
  0.921000, -0.793600
  0.923000, -0.787700
  0.925000, -0.781500
  0.927000, -0.775300
  0.929000, -0.768900
  0.931000, -0.762300
  0.933000, -0.755400
  0.935000, -0.748400
  0.937000, -0.741000
  0.939000, -0.733200
  0.941000, -0.725300
  0.943000, -0.716900
  0.945000, -0.708300
  0.947000, -0.699600
  0.949000, -0.690600
  0.951000, -0.681300
  0.953000, -0.671900
  0.955000, -0.662200
  0.957000, -0.652500
  0.959000, -0.642500
  0.961000, -0.632400
  0.963000, -0.622200
  0.965000, -0.611800
  0.967000, -0.601200
  0.969000, -0.590600
  0.971000, -0.579800
  0.973000, -0.569000
  0.975000, -0.558100
  0.977000, -0.547200
  0.979000, -0.536200
  0.981000, -0.525200
  0.983000, -0.514200
  0.985000, -0.503100
  0.987000, -0.492000
  0.989000, -0.480700
  0.991000, -0.469600
  0.993000, -0.458500
  0.995000, -0.447500
  0.997000, -0.436500
  0.999000, -0.425700
  1.001000, -0.414900
  1.003000, -0.404200
  1.005000, -0.393600
  1.007000, -0.383000
  1.009000, -0.372700
  1.011000, -0.362600
  1.013000, -0.352400
  1.015000, -0.342400
  1.017000, -0.332600
  1.019000, -0.322900
  1.021000, -0.313500
  1.023000, -0.304300
  1.025000, -0.295200
  1.027000, -0.286300
  1.029000, -0.277500
  1.031000, -0.268900
  1.033000, -0.260500
  1.035000, -0.252400
  1.037000, -0.244500
  1.039000, -0.236900
  1.041000, -0.229400
  1.043000, -0.222200
  1.045000, -0.215100
  1.047000, -0.208100
  1.049000, -0.201400
  1.051000, -0.194900
  1.053000, -0.188700
  1.055000, -0.182700
  1.057000, -0.176800
  1.059000, -0.171200
  1.061000, -0.165800
  1.063000, -0.160700
  1.065000, -0.155600
  1.067000, -0.150700
  1.069000, -0.146100
  1.071000, -0.141700
  1.073000, -0.137300
  1.075000, -0.133100
  1.077000, -0.129100
  1.079000, -0.125300
  1.081000, -0.121600
  1.083000, -0.118300
  1.085000, -0.115000
  1.087000, -0.111900
  1.089000, -0.108900
  1.091000, -0.106000
  1.093000, -0.103300
  1.095000, -0.100800
  1.097000, -0.098400
  1.099000, -0.096200
  1.101000, -0.093900
  1.103000, -0.091900
  1.105000, -0.090000
  1.107000, -0.088100
  1.109000, -0.086400
  1.111000, -0.084800
  1.113000, -0.083200
  1.115000, -0.081700
  1.117000, -0.080500
  1.119000, -0.079400
  1.121000, -0.078300
  1.123000, -0.077300
  1.125000, -0.076400
  1.127000, -0.075500
  1.129000, -0.074800
  1.131000, -0.074100
  1.133000, -0.073700
  1.135000, -0.073300
  1.137000, -0.073100
  1.139000, -0.073000
  1.141000, -0.073000
  1.143000, -0.073000
  1.145000, -0.073200
  1.147000, -0.073700
  1.149000, -0.074200
  1.151000, -0.074600
  1.153000, -0.075100
  1.155000, -0.075900
  1.157000, -0.076800
  1.159000, -0.077900
  1.161000, -0.079100
  1.163000, -0.080600
  1.165000, -0.082400
  1.167000, -0.084300
  1.169000, -0.086100
  1.171000, -0.087900
  1.173000, -0.090000
  1.175000, -0.092300
  1.177000, -0.094500
  1.179000, -0.096800
  1.181000, -0.099300
  1.183000, -0.102000
  1.185000, -0.104700
  1.187000, -0.107400
  1.189000, -0.110100
  1.191000, -0.112900
  1.193000, -0.115900
  1.195000, -0.118600
  1.197000, -0.121300
  1.199000, -0.123900
  1.201000, -0.126600
  1.203000, -0.129400
  1.205000, -0.132000
  1.207000, -0.134600
  1.209000, -0.137200
  1.211000, -0.139700
  1.213000, -0.141900
  1.215000, -0.143900
  1.217000, -0.145700
  1.219000, -0.147500
  1.221000, -0.149100
  1.223000, -0.150300
  1.225000, -0.151300
  1.227000, -0.152100
  1.229000, -0.152700
  1.231000, -0.152800
  1.233000, -0.152800
  1.235000, -0.152500
  1.237000, -0.151800
  1.239000, -0.150600
  1.241000, -0.149100
  1.243000, -0.147200
  1.245000, -0.145200
  1.247000, -0.142700
  1.249000, -0.139900
  1.251000, -0.137000
  1.253000, -0.133800
  1.255000, -0.130000
  1.257000, -0.125800
  1.259000, -0.121400
  1.261000, -0.116800
  1.263000, -0.112000
  1.265000, -0.106900
  1.267000, -0.101500
  1.269000, -0.095800
  1.271000, -0.089900
  1.273000, -0.083800
  1.275000, -0.077700
  1.277000, -0.071400
  1.279000, -0.065000
  1.281000, -0.058500
  1.283000, -0.051800
  1.285000, -0.045000
  1.287000, -0.038000
  1.289000, -0.031000
  1.291000, -0.024300
  1.293000, -0.017400
  1.295000, -0.010400
  1.297000, -0.003500
  1.299000,  0.003100
  1.301000,  0.009700
  1.303000,  0.016200
  1.305000,  0.022500
  1.307000,  0.028600
  1.309000,  0.034700
  1.311000,  0.040600
  1.313000,  0.046200
  1.315000,  0.051700
  1.317000,  0.057000
  1.319000,  0.062200
  1.321000,  0.067200
  1.323000,  0.072100
  1.325000,  0.076800
  1.327000,  0.081300
  1.329000,  0.085500
  1.331000,  0.089500
  1.333000,  0.093500
  1.335000,  0.097500
  1.337000,  0.101200
  1.339000,  0.104700
  1.341000,  0.107900
  1.343000,  0.111100
  1.345000,  0.114200
  1.347000,  0.117200
  1.349000,  0.120200
  1.351000,  0.123000
  1.353000,  0.125700
  1.355000,  0.128500
  1.357000,  0.131000
  1.359000,  0.133500
  1.361000,  0.136000
  1.363000,  0.138400
  1.365000,  0.140800
  1.367000,  0.143400
  1.369000,  0.146100
  1.371000,  0.148700
  1.373000,  0.151100
  1.375000,  0.153400
  1.377000,  0.155800
  1.379000,  0.158300
  1.381000,  0.160700
  1.383000,  0.162900
  1.385000,  0.165500
  1.387000,  0.167700
  1.389000,  0.169400
  1.391000,  0.170700
  1.393000,  0.171800
  1.395000,  0.173100
  1.397000,  0.174400
  1.399000,  0.175400
