# z (nm)   (kJ/mol)
  0.327000, 15.198700
  0.329000, 14.830700
  0.331000, 14.467500
  0.333000, 14.108600
  0.335000, 13.698100
  0.337000, 13.292800
  0.339000, 12.903800
  0.341000, 12.519300
  0.343000, 12.127100
  0.345000, 11.737100
  0.347000, 11.344500
  0.349000, 10.936400
  0.351000, 10.518700
  0.353000, 10.100200
  0.355000,  9.683200
  0.357000,  9.271900
  0.359000,  8.856700
  0.361000,  8.440700
  0.363000,  8.030300
  0.365000,  7.620100
  0.367000,  7.207400
  0.369000,  6.800700
  0.371000,  6.402400
  0.373000,  6.002900
  0.375000,  5.609300
  0.377000,  5.224100
  0.379000,  4.842700
  0.381000,  4.465100
  0.383000,  4.093400
  0.385000,  3.730400
  0.387000,  3.371900
  0.389000,  3.018300
  0.391000,  2.673300
  0.393000,  2.335200
  0.395000,  2.007300
  0.397000,  1.684400
  0.399000,  1.367700
  0.401000,  1.061700
  0.403000,  0.762300
  0.405000,  0.468600
  0.407000,  0.184100
  0.409000, -0.092300
  0.411000, -0.362000
  0.413000, -0.621100
  0.415000, -0.871300
  0.417000, -1.113100
  0.419000, -1.346900
  0.421000, -1.573300
  0.423000, -1.792200
  0.425000, -2.002600
  0.427000, -2.203800
  0.429000, -2.397700
  0.431000, -2.582800
  0.433000, -2.758300
  0.435000, -2.926100
  0.437000, -3.085600
  0.439000, -3.236300
  0.441000, -3.378300
  0.443000, -3.511900
  0.445000, -3.637300
  0.447000, -3.754300
  0.449000, -3.863700
  0.451000, -3.964900
  0.453000, -4.057400
  0.455000, -4.142300
  0.457000, -4.220100
  0.459000, -4.290700
  0.461000, -4.354000
  0.463000, -4.408900
  0.465000, -4.456400
  0.467000, -4.499000
  0.469000, -4.535100
  0.471000, -4.564400
  0.473000, -4.586700
  0.475000, -4.602300
  0.477000, -4.611800
  0.479000, -4.615000
  0.481000, -4.613200
  0.483000, -4.606400
  0.485000, -4.594000
  0.487000, -4.576300
  0.489000, -4.554000
  0.491000, -4.527100
  0.493000, -4.495800
  0.495000, -4.460600
  0.497000, -4.421000
  0.499000, -4.377100
  0.501000, -4.329400
  0.503000, -4.277900
  0.505000, -4.223300
  0.507000, -4.165600
  0.509000, -4.104300
  0.511000, -4.040500
  0.513000, -3.974000
  0.515000, -3.904900
  0.517000, -3.833200
  0.519000, -3.759500
  0.521000, -3.684100
  0.523000, -3.606100
  0.525000, -3.526200
  0.527000, -3.445100
  0.529000, -3.362300
  0.531000, -3.277800
  0.533000, -3.191700
  0.535000, -3.104400
  0.537000, -3.016500
  0.539000, -2.927600
  0.541000, -2.837600
  0.543000, -2.747100
  0.545000, -2.655500
  0.547000, -2.562900
  0.549000, -2.470100
  0.551000, -2.377100
  0.553000, -2.283800
  0.555000, -2.190200
  0.557000, -2.096500
  0.559000, -2.002400
  0.561000, -1.908400
  0.563000, -1.814500
  0.565000, -1.720800
  0.567000, -1.627400
  0.569000, -1.534400
  0.571000, -1.442100
  0.573000, -1.350600
  0.575000, -1.259600
  0.577000, -1.169200
  0.579000, -1.079700
  0.581000, -0.991300
  0.583000, -0.903800
  0.585000, -0.817200
  0.587000, -0.731900
  0.589000, -0.647800
  0.591000, -0.565000
  0.593000, -0.483700
  0.595000, -0.404100
  0.597000, -0.326000
  0.599000, -0.249600
  0.601000, -0.174900
  0.603000, -0.101900
  0.605000, -0.030500
  0.607000,  0.038600
  0.609000,  0.105500
  0.611000,  0.170100
  0.613000,  0.232300
  0.615000,  0.292600
  0.617000,  0.350700
  0.619000,  0.406600
  0.621000,  0.460100
  0.623000,  0.510800
  0.625000,  0.558500
  0.627000,  0.603700
  0.629000,  0.646400
  0.631000,  0.686300
  0.633000,  0.723800
  0.635000,  0.758900
  0.637000,  0.791000
  0.639000,  0.820300
  0.641000,  0.847000
  0.643000,  0.870700
  0.645000,  0.891800
  0.647000,  0.910300
  0.649000,  0.925900
  0.651000,  0.938900
  0.653000,  0.949100
  0.655000,  0.956600
  0.657000,  0.961500
  0.659000,  0.963800
  0.661000,  0.963700
  0.663000,  0.961300
  0.665000,  0.956600
  0.667000,  0.949400
  0.669000,  0.939800
  0.671000,  0.928100
  0.673000,  0.914300
  0.675000,  0.898300
  0.677000,  0.880300
  0.679000,  0.860400
  0.681000,  0.839000
  0.683000,  0.815700
  0.685000,  0.790800
  0.687000,  0.764600
  0.689000,  0.737000
  0.691000,  0.707700
  0.693000,  0.677100
  0.695000,  0.645600
  0.697000,  0.613000
  0.699000,  0.579300
  0.701000,  0.544700
  0.703000,  0.509400
  0.705000,  0.473600
  0.707000,  0.437300
  0.709000,  0.400400
  0.711000,  0.363000
  0.713000,  0.325700
  0.715000,  0.288200
  0.717000,  0.250300
  0.719000,  0.212400
  0.721000,  0.174300
  0.723000,  0.136400
  0.725000,  0.098700
  0.727000,  0.061300
  0.729000,  0.024200
  0.731000, -0.012700
  0.733000, -0.049000
  0.735000, -0.084600
  0.737000, -0.119600
  0.739000, -0.154100
  0.741000, -0.188100
  0.743000, -0.221100
  0.745000, -0.253400
  0.747000, -0.284900
  0.749000, -0.315700
  0.751000, -0.345600
  0.753000, -0.374400
  0.755000, -0.402300
  0.757000, -0.429200
  0.759000, -0.455100
  0.761000, -0.480000
  0.763000, -0.503700
  0.765000, -0.526400
  0.767000, -0.548000
  0.769000, -0.568400
  0.771000, -0.587900
  0.773000, -0.606300
  0.775000, -0.623400
  0.777000, -0.639300
  0.779000, -0.654100
  0.781000, -0.667800
  0.783000, -0.680200
  0.785000, -0.691600
  0.787000, -0.702000
  0.789000, -0.711100
  0.791000, -0.718900
  0.793000, -0.725700
  0.795000, -0.731400
  0.797000, -0.736100
  0.799000, -0.739700
  0.801000, -0.742200
  0.803000, -0.743600
  0.805000, -0.744100
  0.807000, -0.743700
  0.809000, -0.742200
  0.811000, -0.739700
  0.813000, -0.736300
  0.815000, -0.731900
  0.817000, -0.726800
  0.819000, -0.720800
  0.821000, -0.714000
  0.823000, -0.706300
  0.825000, -0.697800
  0.827000, -0.688600
  0.829000, -0.678700
  0.831000, -0.668000
  0.833000, -0.656700
  0.835000, -0.644800
  0.837000, -0.632400
  0.839000, -0.619500
  0.841000, -0.606100
  0.843000, -0.592200
  0.845000, -0.577700
  0.847000, -0.562800
  0.849000, -0.547500
  0.851000, -0.531900
  0.853000, -0.516100
  0.855000, -0.499800
  0.857000, -0.483300
  0.859000, -0.466500
  0.861000, -0.449600
  0.863000, -0.432500
  0.865000, -0.415300
  0.867000, -0.398000
  0.869000, -0.380700
  0.871000, -0.363400
  0.873000, -0.346000
  0.875000, -0.328600
  0.877000, -0.311300
  0.879000, -0.294000
  0.881000, -0.276800
  0.883000, -0.259800
  0.885000, -0.242900
  0.887000, -0.226100
  0.889000, -0.209500
  0.891000, -0.193100
  0.893000, -0.177000
  0.895000, -0.161100
  0.897000, -0.145600
  0.899000, -0.130200
  0.901000, -0.115200
  0.903000, -0.100600
  0.905000, -0.086300
  0.907000, -0.072300
  0.909000, -0.058700
  0.911000, -0.045400
  0.913000, -0.032600
  0.915000, -0.020200
  0.917000, -0.008200
  0.919000,  0.003300
  0.921000,  0.014400
  0.923000,  0.025200
  0.925000,  0.035500
  0.927000,  0.045300
  0.929000,  0.054700
  0.931000,  0.063600
  0.933000,  0.072200
  0.935000,  0.080400
  0.937000,  0.088100
  0.939000,  0.095200
  0.941000,  0.101800
  0.943000,  0.108200
  0.945000,  0.114100
  0.947000,  0.119500
  0.949000,  0.124500
  0.951000,  0.128900
  0.953000,  0.132800
  0.955000,  0.136500
  0.957000,  0.139700
  0.959000,  0.142300
  0.961000,  0.144600
  0.963000,  0.146600
  0.965000,  0.148200
  0.967000,  0.149500
  0.969000,  0.150500
  0.971000,  0.151000
  0.973000,  0.151200
  0.975000,  0.151100
  0.977000,  0.150700
  0.979000,  0.149900
  0.981000,  0.148900
  0.983000,  0.147500
  0.985000,  0.145800
  0.987000,  0.143900
  0.989000,  0.141800
  0.991000,  0.139400
  0.993000,  0.136700
  0.995000,  0.133900
  0.997000,  0.130800
  0.999000,  0.127500
  1.001000,  0.123900
  1.003000,  0.120200
  1.005000,  0.116300
  1.007000,  0.112300
  1.009000,  0.108200
  1.011000,  0.103900
  1.013000,  0.099500
  1.015000,  0.095000
  1.017000,  0.090200
  1.019000,  0.085400
  1.021000,  0.080600
  1.023000,  0.075600
  1.025000,  0.070500
  1.027000,  0.065300
  1.029000,  0.060200
  1.031000,  0.055000
  1.033000,  0.049700
  1.035000,  0.044200
  1.037000,  0.038800
  1.039000,  0.033400
  1.041000,  0.027800
  1.043000,  0.022400
  1.045000,  0.016900
  1.047000,  0.011300
  1.049000,  0.005800
  1.051000,  0.000200
  1.053000, -0.005200
  1.055000, -0.010700
  1.057000, -0.016100
  1.059000, -0.021500
  1.061000, -0.026800
  1.063000, -0.032000
  1.065000, -0.037200
  1.067000, -0.042400
  1.069000, -0.047500
  1.071000, -0.052500
  1.073000, -0.057300
  1.075000, -0.062000
  1.077000, -0.066600
  1.079000, -0.071000
  1.081000, -0.075300
  1.083000, -0.079500
  1.085000, -0.083700
  1.087000, -0.087600
  1.089000, -0.091400
  1.091000, -0.095000
  1.093000, -0.098400
  1.095000, -0.101700
  1.097000, -0.104900
  1.099000, -0.107800
  1.101000, -0.110600
  1.103000, -0.113100
  1.105000, -0.115400
  1.107000, -0.117400
  1.109000, -0.119200
  1.111000, -0.120800
  1.113000, -0.122300
  1.115000, -0.123600
  1.117000, -0.124800
  1.119000, -0.125800
  1.121000, -0.126500
  1.123000, -0.126900
  1.125000, -0.127000
  1.127000, -0.126800
  1.129000, -0.126600
  1.131000, -0.126200
  1.133000, -0.125600
  1.135000, -0.124800
  1.137000, -0.123700
  1.139000, -0.122600
  1.141000, -0.121300
  1.143000, -0.119800
  1.145000, -0.118000
  1.147000, -0.116100
  1.149000, -0.114100
  1.151000, -0.112000
  1.153000, -0.109600
  1.155000, -0.107200
  1.157000, -0.104600
  1.159000, -0.101900
  1.161000, -0.098900
  1.163000, -0.095800
  1.165000, -0.092700
  1.167000, -0.089600
  1.169000, -0.086300
  1.171000, -0.082900
  1.173000, -0.079400
  1.175000, -0.075900
  1.177000, -0.072400
  1.179000, -0.068900
  1.181000, -0.065400
  1.183000, -0.061700
  1.185000, -0.058100
  1.187000, -0.054600
  1.189000, -0.051100
  1.191000, -0.047600
  1.193000, -0.044000
  1.195000, -0.040600
  1.197000, -0.037200
  1.199000, -0.033900
  1.201000, -0.030600
  1.203000, -0.027300
  1.205000, -0.024200
  1.207000, -0.021100
  1.209000, -0.018000
  1.211000, -0.015000
  1.213000, -0.012100
  1.215000, -0.009300
  1.217000, -0.006700
  1.219000, -0.004100
  1.221000, -0.001500
  1.223000,  0.000900
  1.225000,  0.003200
  1.227000,  0.005400
  1.229000,  0.007400
  1.231000,  0.009300
  1.233000,  0.011200
  1.235000,  0.012900
  1.237000,  0.014600
  1.239000,  0.016000
  1.241000,  0.017300
  1.243000,  0.018500
  1.245000,  0.019600
  1.247000,  0.020700
  1.249000,  0.021600
  1.251000,  0.022500
  1.253000,  0.023300
  1.255000,  0.024000
  1.257000,  0.024700
  1.259000,  0.025200
  1.261000,  0.025700
  1.263000,  0.026200
  1.265000,  0.026600
  1.267000,  0.027000
  1.269000,  0.027300
  1.271000,  0.027500
  1.273000,  0.027700
  1.275000,  0.027700
  1.277000,  0.027700
  1.279000,  0.027600
  1.281000,  0.027400
  1.283000,  0.027100
  1.285000,  0.026800
  1.287000,  0.026500
  1.289000,  0.026100
  1.291000,  0.025500
  1.293000,  0.024700
  1.295000,  0.023900
  1.297000,  0.023000
  1.299000,  0.022200
  1.301000,  0.021200
  1.303000,  0.020100
  1.305000,  0.019000
  1.307000,  0.017700
  1.309000,  0.016400
  1.311000,  0.014900
  1.313000,  0.013400
  1.315000,  0.011900
  1.317000,  0.010200
  1.319000,  0.008500
  1.321000,  0.006700
  1.323000,  0.004900
  1.325000,  0.003100
  1.327000,  0.001200
  1.329000, -0.000800
  1.331000, -0.002800
  1.333000, -0.004900
  1.335000, -0.006800
  1.337000, -0.008800
  1.339000, -0.010800
  1.341000, -0.012700
  1.343000, -0.014600
  1.345000, -0.016400
  1.347000, -0.018100
  1.349000, -0.019800
  1.351000, -0.021300
  1.353000, -0.022800
  1.355000, -0.024200
  1.357000, -0.025500
  1.359000, -0.026600
  1.361000, -0.027600
  1.363000, -0.028400
  1.365000, -0.029200
  1.367000, -0.029900
  1.369000, -0.030500
  1.371000, -0.030900
  1.373000, -0.031100
  1.375000, -0.031300
  1.377000, -0.031200
  1.379000, -0.030800
  1.381000, -0.030400
  1.383000, -0.030000
  1.385000, -0.029400
  1.387000, -0.028600
  1.389000, -0.027800
  1.391000, -0.027400
  1.393000, -0.027100
  1.395000, -0.026900
  1.397000, -0.026900
  1.399000, -0.027100
