# z (nm)   (kJ/mol)
  0.233000, 14.832300
  0.235000, 14.399900
  0.239000, 13.553200
  0.241000, 13.157100
  0.243000, 12.714200
  0.245000, 12.253300
  0.247000, 11.770400
  0.249000, 11.275300
  0.251000, 10.796000
  0.253000, 10.309000
  0.255000,  9.798300
  0.257000,  9.282600
  0.259000,  8.770800
  0.261000,  8.261200
  0.263000,  7.745500
  0.265000,  7.219700
  0.267000,  6.696200
  0.269000,  6.182300
  0.271000,  5.671800
  0.273000,  5.163200
  0.275000,  4.655600
  0.277000,  4.147600
  0.279000,  3.637900
  0.281000,  3.138300
  0.283000,  2.647300
  0.285000,  2.157200
  0.287000,  1.677800
  0.289000,  1.211000
  0.291000,  0.751800
  0.293000,  0.301600
  0.295000, -0.135400
  0.297000, -0.563900
  0.299000, -0.983500
  0.301000, -1.392600
  0.303000, -1.790300
  0.305000, -2.171000
  0.307000, -2.535600
  0.309000, -2.887900
  0.311000, -3.223700
  0.313000, -3.546000
  0.315000, -3.856000
  0.317000, -4.147500
  0.319000, -4.423700
  0.321000, -4.686500
  0.323000, -4.935400
  0.325000, -5.169100
  0.327000, -5.383700
  0.329000, -5.579500
  0.331000, -5.759500
  0.333000, -5.922100
  0.335000, -6.067900
  0.337000, -6.198400
  0.339000, -6.312800
  0.341000, -6.411000
  0.343000, -6.493300
  0.345000, -6.559600
  0.347000, -6.609500
  0.349000, -6.643200
  0.351000, -6.661200
  0.353000, -6.664200
  0.355000, -6.652100
  0.357000, -6.625500
  0.359000, -6.584400
  0.361000, -6.529300
  0.363000, -6.462100
  0.365000, -6.383100
  0.367000, -6.291200
  0.369000, -6.187700
  0.371000, -6.073800
  0.373000, -5.949200
  0.375000, -5.814800
  0.377000, -5.669900
  0.379000, -5.515400
  0.381000, -5.354000
  0.383000, -5.186600
  0.385000, -5.013100
  0.387000, -4.833900
  0.389000, -4.649600
  0.391000, -4.460500
  0.393000, -4.265300
  0.395000, -4.066100
  0.397000, -3.864400
  0.399000, -3.660600
  0.401000, -3.455700
  0.403000, -3.249300
  0.405000, -3.042200
  0.407000, -2.835500
  0.409000, -2.629100
  0.411000, -2.422200
  0.413000, -2.216100
  0.415000, -2.011700
  0.417000, -1.808800
  0.419000, -1.607700
  0.421000, -1.409000
  0.423000, -1.212500
  0.425000, -1.018500
  0.427000, -0.828000
  0.429000, -0.640700
  0.431000, -0.457100
  0.433000, -0.277100
  0.435000, -0.099800
  0.437000,  0.073900
  0.439000,  0.243800
  0.441000,  0.410000
  0.443000,  0.572800
  0.445000,  0.731700
  0.447000,  0.886500
  0.449000,  1.037200
  0.451000,  1.183900
  0.453000,  1.326400
  0.455000,  1.465300
  0.457000,  1.600700
  0.459000,  1.732400
  0.461000,  1.859900
  0.463000,  1.983300
  0.465000,  2.103300
  0.467000,  2.219800
  0.469000,  2.332700
  0.471000,  2.441800
  0.473000,  2.547000
  0.475000,  2.648500
  0.477000,  2.746300
  0.479000,  2.840500
  0.481000,  2.931100
  0.483000,  3.018100
  0.485000,  3.101900
  0.487000,  3.182400
  0.489000,  3.259100
  0.491000,  3.332300
  0.493000,  3.402300
  0.495000,  3.468900
  0.497000,  3.531900
  0.499000,  3.591200
  0.501000,  3.646600
  0.503000,  3.698200
  0.505000,  3.746500
  0.507000,  3.791400
  0.509000,  3.832400
  0.511000,  3.869600
  0.513000,  3.902800
  0.515000,  3.932000
  0.517000,  3.957200
  0.519000,  3.978600
  0.521000,  3.995700
  0.523000,  4.008900
  0.525000,  4.018300
  0.527000,  4.023400
  0.529000,  4.024200
  0.531000,  4.020600
  0.533000,  4.013000
  0.535000,  4.001400
  0.537000,  3.985200
  0.539000,  3.964800
  0.541000,  3.940100
  0.543000,  3.911000
  0.545000,  3.877400
  0.547000,  3.839300
  0.549000,  3.797000
  0.551000,  3.750800
  0.553000,  3.700500
  0.555000,  3.646100
  0.557000,  3.587500
  0.559000,  3.525000
  0.561000,  3.459000
  0.563000,  3.389100
  0.565000,  3.314900
  0.567000,  3.236800
  0.569000,  3.155100
  0.571000,  3.070000
  0.573000,  2.981300
  0.575000,  2.889400
  0.577000,  2.795700
  0.579000,  2.700100
  0.581000,  2.602000
  0.583000,  2.501200
  0.585000,  2.398200
  0.587000,  2.294200
  0.589000,  2.188200
  0.591000,  2.080300
  0.593000,  1.971500
  0.595000,  1.861400
  0.597000,  1.750600
  0.599000,  1.640300
  0.601000,  1.529900
  0.603000,  1.419000
  0.605000,  1.308700
  0.607000,  1.198100
  0.609000,  1.087700
  0.611000,  0.978200
  0.613000,  0.869900
  0.615000,  0.763800
  0.617000,  0.659800
  0.619000,  0.557200
  0.621000,  0.456700
  0.623000,  0.359100
  0.625000,  0.263300
  0.627000,  0.169000
  0.629000,  0.077800
  0.631000, -0.010300
  0.633000, -0.095200
  0.635000, -0.176800
  0.637000, -0.255100
  0.639000, -0.329700
  0.641000, -0.400800
  0.643000, -0.468500
  0.645000, -0.532600
  0.647000, -0.592800
  0.649000, -0.649400
  0.651000, -0.702200
  0.653000, -0.751300
  0.655000, -0.796600
  0.657000, -0.837900
  0.659000, -0.875200
  0.661000, -0.908500
  0.663000, -0.938000
  0.665000, -0.963700
  0.667000, -0.985600
  0.669000, -1.003900
  0.671000, -1.018500
  0.673000, -1.029900
  0.675000, -1.037800
  0.677000, -1.042200
  0.679000, -1.043500
  0.681000, -1.041600
  0.683000, -1.036500
  0.685000, -1.028600
  0.687000, -1.018000
  0.689000, -1.004700
  0.691000, -0.988900
  0.693000, -0.970400
  0.695000, -0.949600
  0.697000, -0.926400
  0.699000, -0.901400
  0.701000, -0.874700
  0.703000, -0.845700
  0.705000, -0.815000
  0.707000, -0.783100
  0.709000, -0.749700
  0.711000, -0.714900
  0.713000, -0.679000
  0.715000, -0.642400
  0.717000, -0.604700
  0.719000, -0.565800
  0.721000, -0.526500
  0.723000, -0.486600
  0.725000, -0.446100
  0.727000, -0.405200
  0.729000, -0.364500
  0.731000, -0.323400
  0.733000, -0.281800
  0.735000, -0.240300
  0.737000, -0.198800
  0.739000, -0.157700
  0.741000, -0.117000
  0.743000, -0.076300
  0.745000, -0.035500
  0.747000,  0.004900
  0.749000,  0.044800
  0.751000,  0.084300
  0.753000,  0.123100
  0.755000,  0.161200
  0.757000,  0.198800
  0.759000,  0.236000
  0.761000,  0.272800
  0.763000,  0.308800
  0.765000,  0.343800
  0.767000,  0.378100
  0.769000,  0.411600
  0.771000,  0.444400
  0.773000,  0.476000
  0.775000,  0.506800
  0.777000,  0.536800
  0.779000,  0.565900
  0.781000,  0.593900
  0.783000,  0.620900
  0.785000,  0.646800
  0.787000,  0.671700
  0.789000,  0.695500
  0.791000,  0.718400
  0.793000,  0.740000
  0.795000,  0.760400
  0.797000,  0.779800
  0.799000,  0.797900
  0.801000,  0.814700
  0.803000,  0.830500
  0.805000,  0.845100
  0.807000,  0.858300
  0.809000,  0.870200
  0.811000,  0.880900
  0.813000,  0.890300
  0.815000,  0.898500
  0.817000,  0.905300
  0.819000,  0.910800
  0.821000,  0.914900
  0.823000,  0.917500
  0.825000,  0.918900
  0.827000,  0.919100
  0.829000,  0.918000
  0.831000,  0.915600
  0.833000,  0.911800
  0.835000,  0.907000
  0.837000,  0.900800
  0.839000,  0.893200
  0.841000,  0.884300
  0.843000,  0.874400
  0.845000,  0.863300
  0.847000,  0.851000
  0.849000,  0.837600
  0.851000,  0.823100
  0.853000,  0.807600
  0.855000,  0.791200
  0.857000,  0.773800
  0.859000,  0.755400
  0.861000,  0.736200
  0.863000,  0.715900
  0.865000,  0.694900
  0.867000,  0.673300
  0.869000,  0.651100
  0.871000,  0.628200
  0.873000,  0.604400
  0.875000,  0.580300
  0.877000,  0.555700
  0.879000,  0.530500
  0.881000,  0.505000
  0.883000,  0.479200
  0.885000,  0.453300
  0.887000,  0.427200
  0.889000,  0.400700
  0.891000,  0.374300
  0.893000,  0.348000
  0.895000,  0.321700
  0.897000,  0.295300
  0.899000,  0.268900
  0.901000,  0.242700
  0.903000,  0.216800
  0.905000,  0.190800
  0.907000,  0.165200
  0.909000,  0.140000
  0.911000,  0.115100
  0.913000,  0.090600
  0.915000,  0.066400
  0.917000,  0.043000
  0.919000,  0.020100
  0.921000, -0.002400
  0.923000, -0.024200
  0.925000, -0.045400
  0.927000, -0.065900
  0.929000, -0.085800
  0.931000, -0.105000
  0.933000, -0.123400
  0.935000, -0.141300
  0.937000, -0.158400
  0.939000, -0.174900
  0.941000, -0.190700
  0.943000, -0.205800
  0.945000, -0.219900
  0.947000, -0.233200
  0.949000, -0.245900
  0.951000, -0.257800
  0.953000, -0.268900
  0.955000, -0.279200
  0.957000, -0.288700
  0.959000, -0.297600
  0.961000, -0.305600
  0.963000, -0.312900
  0.965000, -0.319400
  0.967000, -0.325200
  0.969000, -0.330300
  0.971000, -0.334700
  0.973000, -0.338400
  0.975000, -0.341400
  0.977000, -0.343700
  0.979000, -0.345200
  0.981000, -0.346100
  0.983000, -0.346300
  0.985000, -0.345900
  0.987000, -0.344900
  0.989000, -0.343400
  0.991000, -0.341200
  0.993000, -0.338400
  0.995000, -0.335100
  0.997000, -0.331200
  0.999000, -0.326700
  1.001000, -0.321700
  1.003000, -0.316300
  1.005000, -0.310400
  1.007000, -0.304000
  1.009000, -0.297000
  1.011000, -0.289500
  1.013000, -0.281700
  1.015000, -0.273400
  1.017000, -0.264700
  1.019000, -0.255700
  1.021000, -0.246300
  1.023000, -0.236500
  1.025000, -0.226600
  1.027000, -0.216200
  1.029000, -0.205500
  1.031000, -0.194600
  1.033000, -0.183400
  1.035000, -0.171900
  1.037000, -0.160200
  1.039000, -0.148400
  1.041000, -0.136600
  1.043000, -0.124400
  1.045000, -0.112100
  1.047000, -0.099800
  1.049000, -0.087400
  1.051000, -0.074900
  1.053000, -0.062300
  1.055000, -0.049800
  1.057000, -0.037300
  1.059000, -0.024800
  1.061000, -0.012400
  1.063000, -0.000100
  1.065000,  0.012200
  1.067000,  0.024300
  1.069000,  0.036300
  1.071000,  0.048000
  1.073000,  0.059500
  1.075000,  0.070800
  1.077000,  0.082000
  1.079000,  0.092900
  1.081000,  0.103400
  1.083000,  0.113700
  1.085000,  0.123700
  1.087000,  0.133300
  1.089000,  0.142600
  1.091000,  0.151600
  1.093000,  0.160300
  1.095000,  0.168400
  1.097000,  0.176300
  1.099000,  0.183700
  1.101000,  0.190800
  1.103000,  0.197400
  1.105000,  0.203700
  1.107000,  0.209500
  1.109000,  0.214900
  1.111000,  0.219900
  1.113000,  0.224400
  1.115000,  0.228600
  1.117000,  0.232400
  1.119000,  0.235800
  1.121000,  0.238800
  1.123000,  0.241300
  1.125000,  0.243400
  1.127000,  0.245200
  1.129000,  0.246500
  1.131000,  0.247500
  1.133000,  0.248000
  1.135000,  0.248300
  1.137000,  0.248100
  1.139000,  0.247700
  1.141000,  0.247000
  1.143000,  0.245900
  1.145000,  0.244500
  1.147000,  0.242800
  1.149000,  0.240900
  1.151000,  0.238700
  1.153000,  0.236200
  1.155000,  0.233400
  1.157000,  0.230300
  1.159000,  0.227000
  1.161000,  0.223500
  1.163000,  0.219800
  1.165000,  0.215900
  1.167000,  0.211700
  1.169000,  0.207400
  1.171000,  0.202900
  1.173000,  0.198100
  1.175000,  0.193200
  1.177000,  0.188300
  1.179000,  0.183300
  1.181000,  0.178100
  1.183000,  0.172800
  1.185000,  0.167500
  1.187000,  0.162000
  1.189000,  0.156500
  1.191000,  0.150800
  1.193000,  0.145100
  1.195000,  0.139300
  1.197000,  0.133400
  1.199000,  0.127500
  1.201000,  0.121500
  1.203000,  0.115500
  1.205000,  0.109700
  1.207000,  0.103800
  1.209000,  0.097800
  1.211000,  0.091900
  1.213000,  0.085900
  1.215000,  0.079900
  1.217000,  0.074200
  1.219000,  0.068400
  1.221000,  0.062700
  1.223000,  0.057100
  1.225000,  0.051600
  1.227000,  0.046100
  1.229000,  0.040700
  1.231000,  0.035300
  1.233000,  0.030100
  1.235000,  0.025100
  1.237000,  0.020200
  1.239000,  0.015600
  1.241000,  0.011000
  1.243000,  0.006400
  1.245000,  0.002000
  1.247000, -0.002200
  1.249000, -0.006100
  1.251000, -0.009900
  1.253000, -0.013500
  1.255000, -0.017000
  1.257000, -0.020300
  1.259000, -0.023400
  1.261000, -0.026300
  1.263000, -0.029000
  1.265000, -0.031600
  1.267000, -0.034100
  1.269000, -0.036500
  1.271000, -0.038700
  1.273000, -0.040800
  1.275000, -0.042500
  1.277000, -0.044200
  1.279000, -0.045700
  1.281000, -0.047000
  1.283000, -0.048200
  1.285000, -0.049200
  1.287000, -0.050000
  1.289000, -0.050700
  1.291000, -0.051400
  1.293000, -0.051800
  1.295000, -0.052200
  1.297000, -0.052500
  1.299000, -0.052500
  1.301000, -0.052500
  1.303000, -0.052500
  1.305000, -0.052400
  1.307000, -0.052100
  1.309000, -0.051800
  1.311000, -0.051200
  1.313000, -0.050600
  1.315000, -0.050000
  1.317000, -0.049200
  1.319000, -0.048300
  1.321000, -0.047300
  1.323000, -0.046100
  1.325000, -0.044900
  1.327000, -0.043600
  1.329000, -0.042100
  1.331000, -0.040500
  1.333000, -0.038800
  1.335000, -0.037000
  1.337000, -0.035100
  1.339000, -0.033100
  1.341000, -0.030900
  1.343000, -0.028600
  1.345000, -0.026200
  1.347000, -0.023600
  1.349000, -0.020900
  1.351000, -0.018100
  1.353000, -0.015100
  1.355000, -0.012000
  1.357000, -0.008700
  1.359000, -0.005300
  1.361000, -0.001800
  1.363000,  0.001700
  1.365000,  0.005300
  1.367000,  0.009100
  1.369000,  0.012900
  1.371000,  0.016800
  1.373000,  0.020800
  1.375000,  0.025000
  1.377000,  0.029200
  1.379000,  0.033300
  1.381000,  0.037500
  1.383000,  0.041600
  1.385000,  0.045700
  1.387000,  0.049600
  1.389000,  0.053300
  1.391000,  0.056900
  1.393000,  0.060400
  1.395000,  0.063500
  1.397000,  0.066500
  1.399000,  0.069000
