# z (nm)   (kJ/mol)
  0.3170   12.60890
  0.3210   11.87850
  0.3230   11.39080
  0.3250   10.91360
  0.3270   10.42800
  0.3290    9.92740
  0.3310    9.41300
  0.3330    8.90950
  0.3350    8.40020
  0.3370    7.87410
  0.3390    7.34640
  0.3410    6.81320
  0.3430    6.28220
  0.3450    5.74130
  0.3470    5.20300
  0.3490    4.66900
  0.3510    4.12900
  0.3530    3.60300
  0.3550    3.08620
  0.3570    2.57800
  0.3590    2.07290
  0.3610    1.56450
  0.3630    1.05970
  0.3650    0.56890
  0.3670    0.09040
  0.3690   -0.38120
  0.3710   -0.84510
  0.3730   -1.29370
  0.3750   -1.72820
  0.3770   -2.15480
  0.3790   -2.56640
  0.3810   -2.96180
  0.3830   -3.34380
  0.3850   -3.71580
  0.3870   -4.07660
  0.3890   -4.41990
  0.3910   -4.74660
  0.3930   -5.05740
  0.3950   -5.35140
  0.3970   -5.62930
  0.3990   -5.89130
  0.4010   -6.13640
  0.4030   -6.36370
  0.4050   -6.57590
  0.4070   -6.77230
  0.4090   -6.95220
  0.4110   -7.11460
  0.4130   -7.26040
  0.4150   -7.39020
  0.4170   -7.50320
  0.4190   -7.59960
  0.4210   -7.67890
  0.4230   -7.74150
  0.4250   -7.78810
  0.4270   -7.81960
  0.4290   -7.83660
  0.4310   -7.83850
  0.4330   -7.82620
  0.4350   -7.80030
  0.4370   -7.76070
  0.4390   -7.70840
  0.4410   -7.64390
  0.4430   -7.56690
  0.4450   -7.47940
  0.4470   -7.38230
  0.4490   -7.27550
  0.4510   -7.15890
  0.4530   -7.03280
  0.4550   -6.89830
  0.4570   -6.75660
  0.4590   -6.60850
  0.4610   -6.45460
  0.4630   -6.29500
  0.4650   -6.13050
  0.4670   -5.96240
  0.4690   -5.79080
  0.4710   -5.61550
  0.4730   -5.43700
  0.4750   -5.25700
  0.4770   -5.07720
  0.4790   -4.89670
  0.4810   -4.71460
  0.4830   -4.53210
  0.4850   -4.35000
  0.4870   -4.16860
  0.4890   -3.98860
  0.4910   -3.81000
  0.4930   -3.63210
  0.4950   -3.45600
  0.4970   -3.28180
  0.4990   -3.10940
  0.5010   -2.93960
  0.5030   -2.77250
  0.5050   -2.60770
  0.5070   -2.44510
  0.5090   -2.28530
  0.5110   -2.12830
  0.5130   -1.97400
  0.5150   -1.82220
  0.5170   -1.67330
  0.5190   -1.52760
  0.5210   -1.38470
  0.5230   -1.24450
  0.5250   -1.10680
  0.5270   -0.97190
  0.5290   -0.83990
  0.5310   -0.71100
  0.5330   -0.58480
  0.5350   -0.46190
  0.5370   -0.34210
  0.5390   -0.22520
  0.5410   -0.11090
  0.5430    0.00080
  0.5450    0.10920
  0.5470    0.21410
  0.5490    0.31560
  0.5510    0.41390
  0.5530    0.50890
  0.5550    0.60040
  0.5570    0.68810
  0.5590    0.77220
  0.5610    0.85260
  0.5630    0.92900
  0.5650    1.00120
  0.5670    1.06940
  0.5690    1.13340
  0.5710    1.19270
  0.5730    1.24760
  0.5750    1.29780
  0.5770    1.34310
  0.5790    1.38320
  0.5810    1.41820
  0.5830    1.44840
  0.5850    1.47320
  0.5870    1.49220
  0.5890    1.50560
  0.5910    1.51320
  0.5930    1.51490
  0.5950    1.51100
  0.5970    1.50150
  0.5990    1.48610
  0.6010    1.46460
  0.6030    1.43700
  0.6050    1.40370
  0.6070    1.36440
  0.6090    1.31880
  0.6110    1.26750
  0.6130    1.21070
  0.6150    1.14790
  0.6170    1.07940
  0.6190    1.00610
  0.6210    0.92760
  0.6230    0.84370
  0.6250    0.75440
  0.6270    0.66010
  0.6290    0.56170
  0.6310    0.45920
  0.6330    0.35270
  0.6350    0.24280
  0.6370    0.12920
  0.6390    0.01220
  0.6410   -0.10800
  0.6430   -0.23090
  0.6450   -0.35500
  0.6470   -0.48090
  0.6490   -0.60740
  0.6510   -0.73540
  0.6530   -0.86430
  0.6550   -0.99280
  0.6570   -1.12240
  0.6590   -1.25260
  0.6610   -1.38260
  0.6630   -1.51170
  0.6650   -1.63970
  0.6670   -1.76600
  0.6690   -1.89000
  0.6710   -2.01180
  0.6730   -2.13170
  0.6750   -2.24910
  0.6770   -2.36310
  0.6790   -2.47400
  0.6810   -2.58100
  0.6830   -2.68430
  0.6850   -2.78440
  0.6870   -2.87990
  0.6890   -2.97090
  0.6910   -3.05780
  0.6930   -3.13940
  0.6950   -3.21630
  0.6970   -3.28880
  0.6990   -3.35610
  0.7010   -3.41800
  0.7030   -3.47470
  0.7050   -3.52600
  0.7070   -3.57210
  0.7090   -3.61270
  0.7110   -3.64810
  0.7130   -3.67820
  0.7150   -3.70280
  0.7170   -3.72240
  0.7190   -3.73670
  0.7210   -3.74570
  0.7230   -3.74950
  0.7250   -3.74840
  0.7270   -3.74230
  0.7290   -3.73140
  0.7310   -3.71580
  0.7330   -3.69560
  0.7350   -3.67120
  0.7370   -3.64270
  0.7390   -3.60950
  0.7410   -3.57250
  0.7430   -3.53210
  0.7450   -3.48770
  0.7470   -3.43970
  0.7490   -3.38880
  0.7510   -3.33480
  0.7530   -3.27780
  0.7550   -3.21810
  0.7570   -3.15580
  0.7590   -3.09090
  0.7610   -3.02380
  0.7630   -2.95460
  0.7650   -2.88360
  0.7670   -2.81110
  0.7690   -2.73720
  0.7710   -2.66250
  0.7730   -2.58630
  0.7750   -2.50880
  0.7770   -2.43040
  0.7790   -2.35110
  0.7810   -2.27110
  0.7830   -2.19080
  0.7850   -2.11020
  0.7870   -2.02960
  0.7890   -1.94880
  0.7910   -1.86830
  0.7930   -1.78790
  0.7950   -1.70810
  0.7970   -1.62890
  0.7990   -1.54980
  0.8010   -1.47120
  0.8030   -1.39340
  0.8050   -1.31660
  0.8070   -1.24060
  0.8090   -1.16540
  0.8110   -1.09120
  0.8130   -1.01790
  0.8150   -0.94580
  0.8170   -0.87500
  0.8190   -0.80550
  0.8210   -0.73730
  0.8230   -0.67050
  0.8250   -0.60480
  0.8270   -0.54070
  0.8290   -0.47820
  0.8310   -0.41740
  0.8330   -0.35820
  0.8350   -0.30050
  0.8370   -0.24420
  0.8390   -0.18970
  0.8410   -0.13680
  0.8430   -0.08560
  0.8450   -0.03610
  0.8470    0.01150
  0.8490    0.05710
  0.8510    0.10120
  0.8530    0.14370
  0.8550    0.18420
  0.8570    0.22300
  0.8590    0.26000
  0.8610    0.29500
  0.8630    0.32840
  0.8650    0.35980
  0.8670    0.38930
  0.8690    0.41700
  0.8710    0.44310
  0.8730    0.46720
  0.8750    0.48940
  0.8770    0.50980
  0.8790    0.52840
  0.8810    0.54520
  0.8830    0.56020
  0.8850    0.57340
  0.8870    0.58490
  0.8890    0.59470
  0.8910    0.60270
  0.8930    0.60910
  0.8950    0.61380
  0.8970    0.61660
  0.8990    0.61790
  0.9010    0.61750
  0.9030    0.61550
  0.9050    0.61190
  0.9070    0.60680
  0.9090    0.60030
  0.9110    0.59230
  0.9130    0.58280
  0.9150    0.57210
  0.9170    0.56010
  0.9190    0.54650
  0.9210    0.53200
  0.9230    0.51630
  0.9250    0.49930
  0.9270    0.48120
  0.9290    0.46200
  0.9310    0.44190
  0.9330    0.42090
  0.9350    0.39900
  0.9370    0.37620
  0.9390    0.35280
  0.9410    0.32890
  0.9430    0.30410
  0.9450    0.27870
  0.9470    0.25300
  0.9490    0.22720
  0.9510    0.20110
  0.9530    0.17440
  0.9550    0.14720
  0.9570    0.11990
  0.9590    0.09290
  0.9610    0.06560
  0.9630    0.03820
  0.9650    0.01100
  0.9670   -0.01600
  0.9690   -0.04270
  0.9710   -0.06920
  0.9730   -0.09530
  0.9750   -0.12120
  0.9770   -0.14670
  0.9790   -0.17160
  0.9810   -0.19600
  0.9830   -0.21980
  0.9850   -0.24310
  0.9870   -0.26590
  0.9890   -0.28780
  0.9910   -0.30890
  0.9930   -0.32940
  0.9950   -0.34920
  0.9970   -0.36820
  0.9990   -0.38610
  1.0010   -0.40310
  1.0030   -0.41910
  1.0050   -0.43430
  1.0070   -0.44880
  1.0090   -0.46230
  1.0110   -0.47470
  1.0130   -0.48620
  1.0150   -0.49680
  1.0170   -0.50640
  1.0190   -0.51500
  1.0210   -0.52270
  1.0230   -0.52960
  1.0250   -0.53550
  1.0270   -0.54040
  1.0290   -0.54450
  1.0310   -0.54780
  1.0330   -0.55020
  1.0350   -0.55170
  1.0370   -0.55250
  1.0390   -0.55240
  1.0410   -0.55160
  1.0430   -0.55000
  1.0450   -0.54770
  1.0470   -0.54460
  1.0490   -0.54090
  1.0510   -0.53660
  1.0530   -0.53150
  1.0550   -0.52580
  1.0570   -0.51960
  1.0590   -0.51280
  1.0610   -0.50550
  1.0630   -0.49790
  1.0650   -0.48980
  1.0670   -0.48130
  1.0690   -0.47230
  1.0710   -0.46280
  1.0730   -0.45310
  1.0750   -0.44320
  1.0770   -0.43290
  1.0790   -0.42230
  1.0810   -0.41140
  1.0830   -0.40020
  1.0850   -0.38900
  1.0870   -0.37740
  1.0890   -0.36570
  1.0910   -0.35390
  1.0930   -0.34180
  1.0950   -0.32960
  1.0970   -0.31730
  1.0990   -0.30490
  1.1010   -0.29250
  1.1030   -0.28000
  1.1050   -0.26750
  1.1070   -0.25490
  1.1090   -0.24230
  1.1110   -0.22980
  1.1130   -0.21730
  1.1150   -0.20480
  1.1170   -0.19230
  1.1190   -0.17980
  1.1210   -0.16740
  1.1230   -0.15500
  1.1250   -0.14260
  1.1270   -0.13040
  1.1290   -0.11820
  1.1310   -0.10620
  1.1330   -0.09440
  1.1350   -0.08270
  1.1370   -0.07110
  1.1390   -0.05970
  1.1410   -0.04840
  1.1430   -0.03720
  1.1450   -0.02630
  1.1470   -0.01570
  1.1490   -0.00520
  1.1510    0.00490
  1.1530    0.01490
  1.1550    0.02470
  1.1570    0.03420
  1.1590    0.04340
  1.1610    0.05230
  1.1630    0.06090
  1.1650    0.06920
  1.1670    0.07720
  1.1690    0.08490
  1.1710    0.09230
  1.1730    0.09930
  1.1750    0.10590
  1.1770    0.11210
  1.1790    0.11800
  1.1810    0.12360
  1.1830    0.12880
  1.1850    0.13350
  1.1870    0.13790
  1.1890    0.14200
  1.1910    0.14560
  1.1930    0.14890
  1.1950    0.15190
  1.1970    0.15440
  1.1990    0.15650
  1.2010    0.15830
  1.2030    0.15950
  1.2050    0.16040
  1.2070    0.16100
  1.2090    0.16110
  1.2110    0.16080
  1.2130    0.16030
  1.2150    0.15940
  1.2170    0.15810
  1.2190    0.15640
  1.2210    0.15440
  1.2230    0.15200
  1.2250    0.14920
  1.2270    0.14610
  1.2290    0.14280
  1.2310    0.13930
  1.2330    0.13550
  1.2350    0.13130
  1.2370    0.12690
  1.2390    0.12220
  1.2410    0.11730
  1.2430    0.11230
  1.2450    0.10700
  1.2470    0.10150
  1.2490    0.09580
  1.2510    0.09000
  1.2530    0.08410
  1.2550    0.07810
  1.2570    0.07180
  1.2590    0.06560
  1.2610    0.05950
  1.2630    0.05310
  1.2650    0.04660
  1.2670    0.04020
  1.2690    0.03380
  1.2710    0.02730
  1.2730    0.02080
  1.2750    0.01430
  1.2770    0.00790
  1.2790    0.00160
  1.2810   -0.00460
  1.2830   -0.01080
  1.2850   -0.01690
  1.2870   -0.02270
  1.2890   -0.02840
  1.2910   -0.03400
  1.2930   -0.03950
  1.2950   -0.04470
  1.2970   -0.04980
  1.2990   -0.05470
  1.3010   -0.05940
  1.3030   -0.06400
  1.3050   -0.06840
  1.3070   -0.07260
  1.3090   -0.07650
  1.3110   -0.08010
  1.3130   -0.08360
  1.3150   -0.08670
  1.3170   -0.08960
  1.3190   -0.09220
  1.3210   -0.09460
  1.3230   -0.09660
  1.3250   -0.09850
  1.3270   -0.10020
  1.3290   -0.10140
  1.3310   -0.10240
  1.3330   -0.10310
  1.3350   -0.10360
  1.3370   -0.10390
  1.3390   -0.10390
  1.3410   -0.10350
  1.3430   -0.10300
  1.3450   -0.10220
  1.3470   -0.10120
  1.3490   -0.10000
  1.3510   -0.09850
  1.3530   -0.09690
  1.3550   -0.09520
  1.3570   -0.09330
  1.3590   -0.09100
  1.3610   -0.08870
  1.3630   -0.08620
  1.3650   -0.08360
  1.3670   -0.08090
  1.3690   -0.07800
  1.3710   -0.07530
  1.3730   -0.07250
  1.3750   -0.06960
  1.3770   -0.06670
  1.3790   -0.06360
  1.3810   -0.06050
  1.3830   -0.05740
  1.3850   -0.05430
  1.3870   -0.05120
  1.3890   -0.04860
  1.3910   -0.04620
  1.3930   -0.04420
  1.3950   -0.04240
  1.3970   -0.04080
  1.3990   -0.03960
