# z (nm)   (kJ/mol)
  0.317000, 12.608900
  0.321000, 11.878500
  0.323000, 11.390800
  0.325000, 10.913600
  0.327000, 10.428000
  0.329000,  9.927400
  0.331000,  9.413000
  0.333000,  8.909500
  0.335000,  8.400200
  0.337000,  7.874100
  0.339000,  7.346400
  0.341000,  6.813200
  0.343000,  6.282200
  0.345000,  5.741300
  0.347000,  5.203000
  0.349000,  4.669000
  0.351000,  4.129000
  0.353000,  3.603000
  0.355000,  3.086200
  0.357000,  2.578000
  0.359000,  2.072900
  0.361000,  1.564500
  0.363000,  1.059700
  0.365000,  0.568900
  0.367000,  0.090400
  0.369000, -0.381200
  0.371000, -0.845100
  0.373000, -1.293700
  0.375000, -1.728200
  0.377000, -2.154800
  0.379000, -2.566400
  0.381000, -2.961800
  0.383000, -3.343800
  0.385000, -3.715800
  0.387000, -4.076600
  0.389000, -4.419900
  0.391000, -4.746600
  0.393000, -5.057400
  0.395000, -5.351400
  0.397000, -5.629300
  0.399000, -5.891300
  0.401000, -6.136400
  0.403000, -6.363700
  0.405000, -6.575900
  0.407000, -6.772300
  0.409000, -6.952200
  0.411000, -7.114600
  0.413000, -7.260400
  0.415000, -7.390200
  0.417000, -7.503200
  0.419000, -7.599600
  0.421000, -7.678900
  0.423000, -7.741500
  0.425000, -7.788100
  0.427000, -7.819600
  0.429000, -7.836600
  0.431000, -7.838500
  0.433000, -7.826200
  0.435000, -7.800300
  0.437000, -7.760700
  0.439000, -7.708400
  0.441000, -7.643900
  0.443000, -7.566900
  0.445000, -7.479400
  0.447000, -7.382300
  0.449000, -7.275500
  0.451000, -7.158900
  0.453000, -7.032800
  0.455000, -6.898300
  0.457000, -6.756600
  0.459000, -6.608500
  0.461000, -6.454600
  0.463000, -6.295000
  0.465000, -6.130500
  0.467000, -5.962400
  0.469000, -5.790800
  0.471000, -5.615500
  0.473000, -5.437000
  0.475000, -5.257000
  0.477000, -5.077200
  0.479000, -4.896700
  0.481000, -4.714600
  0.483000, -4.532100
  0.485000, -4.350000
  0.487000, -4.168600
  0.489000, -3.988600
  0.491000, -3.810000
  0.493000, -3.632100
  0.495000, -3.456000
  0.497000, -3.281800
  0.499000, -3.109400
  0.501000, -2.939600
  0.503000, -2.772500
  0.505000, -2.607700
  0.507000, -2.445100
  0.509000, -2.285300
  0.511000, -2.128300
  0.513000, -1.974000
  0.515000, -1.822200
  0.517000, -1.673300
  0.519000, -1.527600
  0.521000, -1.384700
  0.523000, -1.244500
  0.525000, -1.106800
  0.527000, -0.971900
  0.529000, -0.839900
  0.531000, -0.711000
  0.533000, -0.584800
  0.535000, -0.461900
  0.537000, -0.342100
  0.539000, -0.225200
  0.541000, -0.110900
  0.543000,  0.000800
  0.545000,  0.109200
  0.547000,  0.214100
  0.549000,  0.315600
  0.551000,  0.413900
  0.553000,  0.508900
  0.555000,  0.600400
  0.557000,  0.688100
  0.559000,  0.772200
  0.561000,  0.852600
  0.563000,  0.929000
  0.565000,  1.001200
  0.567000,  1.069400
  0.569000,  1.133400
  0.571000,  1.192700
  0.573000,  1.247600
  0.575000,  1.297800
  0.577000,  1.343100
  0.579000,  1.383200
  0.581000,  1.418200
  0.583000,  1.448400
  0.585000,  1.473200
  0.587000,  1.492200
  0.589000,  1.505600
  0.591000,  1.513200
  0.593000,  1.514900
  0.595000,  1.511000
  0.597000,  1.501500
  0.599000,  1.486100
  0.601000,  1.464600
  0.603000,  1.437000
  0.605000,  1.403700
  0.607000,  1.364400
  0.609000,  1.318800
  0.611000,  1.267500
  0.613000,  1.210700
  0.615000,  1.147900
  0.617000,  1.079400
  0.619000,  1.006100
  0.621000,  0.927600
  0.623000,  0.843700
  0.625000,  0.754400
  0.627000,  0.660100
  0.629000,  0.561700
  0.631000,  0.459200
  0.633000,  0.352700
  0.635000,  0.242800
  0.637000,  0.129200
  0.639000,  0.012200
  0.641000, -0.108000
  0.643000, -0.230900
  0.645000, -0.355000
  0.647000, -0.480900
  0.649000, -0.607400
  0.651000, -0.735400
  0.653000, -0.864300
  0.655000, -0.992800
  0.657000, -1.122400
  0.659000, -1.252600
  0.661000, -1.382600
  0.663000, -1.511700
  0.665000, -1.639700
  0.667000, -1.766000
  0.669000, -1.890000
  0.671000, -2.011800
  0.673000, -2.131700
  0.675000, -2.249100
  0.677000, -2.363100
  0.679000, -2.474000
  0.681000, -2.581000
  0.683000, -2.684300
  0.685000, -2.784400
  0.687000, -2.879900
  0.689000, -2.970900
  0.691000, -3.057800
  0.693000, -3.139400
  0.695000, -3.216300
  0.697000, -3.288800
  0.699000, -3.356100
  0.701000, -3.418000
  0.703000, -3.474700
  0.705000, -3.526000
  0.707000, -3.572100
  0.709000, -3.612700
  0.711000, -3.648100
  0.713000, -3.678200
  0.715000, -3.702800
  0.717000, -3.722400
  0.719000, -3.736700
  0.721000, -3.745700
  0.723000, -3.749500
  0.725000, -3.748400
  0.727000, -3.742300
  0.729000, -3.731400
  0.731000, -3.715800
  0.733000, -3.695600
  0.735000, -3.671200
  0.737000, -3.642700
  0.739000, -3.609500
  0.741000, -3.572500
  0.743000, -3.532100
  0.745000, -3.487700
  0.747000, -3.439700
  0.749000, -3.388800
  0.751000, -3.334800
  0.753000, -3.277800
  0.755000, -3.218100
  0.757000, -3.155800
  0.759000, -3.090900
  0.761000, -3.023800
  0.763000, -2.954600
  0.765000, -2.883600
  0.767000, -2.811100
  0.769000, -2.737200
  0.771000, -2.662500
  0.773000, -2.586300
  0.775000, -2.508800
  0.777000, -2.430400
  0.779000, -2.351100
  0.781000, -2.271100
  0.783000, -2.190800
  0.785000, -2.110200
  0.787000, -2.029600
  0.789000, -1.948800
  0.791000, -1.868300
  0.793000, -1.787900
  0.795000, -1.708100
  0.797000, -1.628900
  0.799000, -1.549800
  0.801000, -1.471200
  0.803000, -1.393400
  0.805000, -1.316600
  0.807000, -1.240600
  0.809000, -1.165400
  0.811000, -1.091200
  0.813000, -1.017900
  0.815000, -0.945800
  0.817000, -0.875000
  0.819000, -0.805500
  0.821000, -0.737300
  0.823000, -0.670500
  0.825000, -0.604800
  0.827000, -0.540700
  0.829000, -0.478200
  0.831000, -0.417400
  0.833000, -0.358200
  0.835000, -0.300500
  0.837000, -0.244200
  0.839000, -0.189700
  0.841000, -0.136800
  0.843000, -0.085600
  0.845000, -0.036100
  0.847000,  0.011500
  0.849000,  0.057100
  0.851000,  0.101200
  0.853000,  0.143700
  0.855000,  0.184200
  0.857000,  0.223000
  0.859000,  0.260000
  0.861000,  0.295000
  0.863000,  0.328400
  0.865000,  0.359800
  0.867000,  0.389300
  0.869000,  0.417000
  0.871000,  0.443100
  0.873000,  0.467200
  0.875000,  0.489400
  0.877000,  0.509800
  0.879000,  0.528400
  0.881000,  0.545200
  0.883000,  0.560200
  0.885000,  0.573400
  0.887000,  0.584900
  0.889000,  0.594700
  0.891000,  0.602700
  0.893000,  0.609100
  0.895000,  0.613800
  0.897000,  0.616600
  0.899000,  0.617900
  0.901000,  0.617500
  0.903000,  0.615500
  0.905000,  0.611900
  0.907000,  0.606800
  0.909000,  0.600300
  0.911000,  0.592300
  0.913000,  0.582800
  0.915000,  0.572100
  0.917000,  0.560100
  0.919000,  0.546500
  0.921000,  0.532000
  0.923000,  0.516300
  0.925000,  0.499300
  0.927000,  0.481200
  0.929000,  0.462000
  0.931000,  0.441900
  0.933000,  0.420900
  0.935000,  0.399000
  0.937000,  0.376200
  0.939000,  0.352800
  0.941000,  0.328900
  0.943000,  0.304100
  0.945000,  0.278700
  0.947000,  0.253000
  0.949000,  0.227200
  0.951000,  0.201100
  0.953000,  0.174400
  0.955000,  0.147200
  0.957000,  0.119900
  0.959000,  0.092900
  0.961000,  0.065600
  0.963000,  0.038200
  0.965000,  0.011000
  0.967000, -0.016000
  0.969000, -0.042700
  0.971000, -0.069200
  0.973000, -0.095300
  0.975000, -0.121200
  0.977000, -0.146700
  0.979000, -0.171600
  0.981000, -0.196000
  0.983000, -0.219800
  0.985000, -0.243100
  0.987000, -0.265900
  0.989000, -0.287800
  0.991000, -0.308900
  0.993000, -0.329400
  0.995000, -0.349200
  0.997000, -0.368200
  0.999000, -0.386100
  1.001000, -0.403100
  1.003000, -0.419100
  1.005000, -0.434300
  1.007000, -0.448800
  1.009000, -0.462300
  1.011000, -0.474700
  1.013000, -0.486200
  1.015000, -0.496800
  1.017000, -0.506400
  1.019000, -0.515000
  1.021000, -0.522700
  1.023000, -0.529600
  1.025000, -0.535500
  1.027000, -0.540400
  1.029000, -0.544500
  1.031000, -0.547800
  1.033000, -0.550200
  1.035000, -0.551700
  1.037000, -0.552500
  1.039000, -0.552400
  1.041000, -0.551600
  1.043000, -0.550000
  1.045000, -0.547700
  1.047000, -0.544600
  1.049000, -0.540900
  1.051000, -0.536600
  1.053000, -0.531500
  1.055000, -0.525800
  1.057000, -0.519600
  1.059000, -0.512800
  1.061000, -0.505500
  1.063000, -0.497900
  1.065000, -0.489800
  1.067000, -0.481300
  1.069000, -0.472300
  1.071000, -0.462800
  1.073000, -0.453100
  1.075000, -0.443200
  1.077000, -0.432900
  1.079000, -0.422300
  1.081000, -0.411400
  1.083000, -0.400200
  1.085000, -0.389000
  1.087000, -0.377400
  1.089000, -0.365700
  1.091000, -0.353900
  1.093000, -0.341800
  1.095000, -0.329600
  1.097000, -0.317300
  1.099000, -0.304900
  1.101000, -0.292500
  1.103000, -0.280000
  1.105000, -0.267500
  1.107000, -0.254900
  1.109000, -0.242300
  1.111000, -0.229800
  1.113000, -0.217300
  1.115000, -0.204800
  1.117000, -0.192300
  1.119000, -0.179800
  1.121000, -0.167400
  1.123000, -0.155000
  1.125000, -0.142600
  1.127000, -0.130400
  1.129000, -0.118200
  1.131000, -0.106200
  1.133000, -0.094400
  1.135000, -0.082700
  1.137000, -0.071100
  1.139000, -0.059700
  1.141000, -0.048400
  1.143000, -0.037200
  1.145000, -0.026300
  1.147000, -0.015700
  1.149000, -0.005200
  1.151000,  0.004900
  1.153000,  0.014900
  1.155000,  0.024700
  1.157000,  0.034200
  1.159000,  0.043400
  1.161000,  0.052300
  1.163000,  0.060900
  1.165000,  0.069200
  1.167000,  0.077200
  1.169000,  0.084900
  1.171000,  0.092300
  1.173000,  0.099300
  1.175000,  0.105900
  1.177000,  0.112100
  1.179000,  0.118000
  1.181000,  0.123600
  1.183000,  0.128800
  1.185000,  0.133500
  1.187000,  0.137900
  1.189000,  0.142000
  1.191000,  0.145600
  1.193000,  0.148900
  1.195000,  0.151900
  1.197000,  0.154400
  1.199000,  0.156500
  1.201000,  0.158300
  1.203000,  0.159500
  1.205000,  0.160400
  1.207000,  0.161000
  1.209000,  0.161100
  1.211000,  0.160800
  1.213000,  0.160300
  1.215000,  0.159400
  1.217000,  0.158100
  1.219000,  0.156400
  1.221000,  0.154400
  1.223000,  0.152000
  1.225000,  0.149200
  1.227000,  0.146100
  1.229000,  0.142800
  1.231000,  0.139300
  1.233000,  0.135500
  1.235000,  0.131300
  1.237000,  0.126900
  1.239000,  0.122200
  1.241000,  0.117300
  1.243000,  0.112300
  1.245000,  0.107000
  1.247000,  0.101500
  1.249000,  0.095800
  1.251000,  0.090000
  1.253000,  0.084100
  1.255000,  0.078100
  1.257000,  0.071800
  1.259000,  0.065600
  1.261000,  0.059500
  1.263000,  0.053100
  1.265000,  0.046600
  1.267000,  0.040200
  1.269000,  0.033800
  1.271000,  0.027300
  1.273000,  0.020800
  1.275000,  0.014300
  1.277000,  0.007900
  1.279000,  0.001600
  1.281000, -0.004600
  1.283000, -0.010800
  1.285000, -0.016900
  1.287000, -0.022700
  1.289000, -0.028400
  1.291000, -0.034000
  1.293000, -0.039500
  1.295000, -0.044700
  1.297000, -0.049800
  1.299000, -0.054700
  1.301000, -0.059400
  1.303000, -0.064000
  1.305000, -0.068400
  1.307000, -0.072600
  1.309000, -0.076500
  1.311000, -0.080100
  1.313000, -0.083600
  1.315000, -0.086700
  1.317000, -0.089600
  1.319000, -0.092200
  1.321000, -0.094600
  1.323000, -0.096600
  1.325000, -0.098500
  1.327000, -0.100200
  1.329000, -0.101400
  1.331000, -0.102400
  1.333000, -0.103100
  1.335000, -0.103600
  1.337000, -0.103900
  1.339000, -0.103900
  1.341000, -0.103500
  1.343000, -0.103000
  1.345000, -0.102200
  1.347000, -0.101200
  1.349000, -0.100000
  1.351000, -0.098500
  1.353000, -0.096900
  1.355000, -0.095200
  1.357000, -0.093300
  1.359000, -0.091000
  1.361000, -0.088700
  1.363000, -0.086200
  1.365000, -0.083600
  1.367000, -0.080900
  1.369000, -0.078000
  1.371000, -0.075300
  1.373000, -0.072500
  1.375000, -0.069600
  1.377000, -0.066700
  1.379000, -0.063600
  1.381000, -0.060500
  1.383000, -0.057400
  1.385000, -0.054300
  1.387000, -0.051200
  1.389000, -0.048600
  1.391000, -0.046200
  1.393000, -0.044200
  1.395000, -0.042400
  1.397000, -0.040800
  1.399000, -0.039600
