# z (nm)   (kJ/mol)
  0.243000, 12.712000
  0.245000, 12.279400
  0.249000, 11.326900
  0.251000, 10.803800
  0.253000, 10.323400
  0.255000,  9.878800
  0.257000,  9.402000
  0.259000,  8.892900
  0.261000,  8.372200
  0.263000,  7.848400
  0.265000,  7.306900
  0.267000,  6.762500
  0.269000,  6.226900
  0.271000,  5.681000
  0.273000,  5.134400
  0.275000,  4.583000
  0.277000,  4.030200
  0.279000,  3.481100
  0.281000,  2.933700
  0.283000,  2.389200
  0.285000,  1.847800
  0.287000,  1.312100
  0.289000,  0.783000
  0.291000,  0.268500
  0.293000, -0.233100
  0.295000, -0.732000
  0.297000, -1.228700
  0.299000, -1.714700
  0.301000, -2.183200
  0.303000, -2.639900
  0.305000, -3.085800
  0.307000, -3.523000
  0.309000, -3.947700
  0.311000, -4.353400
  0.313000, -4.747200
  0.315000, -5.128500
  0.317000, -5.491500
  0.319000, -5.837800
  0.321000, -6.168000
  0.323000, -6.483000
  0.325000, -6.782300
  0.327000, -7.065500
  0.329000, -7.332300
  0.331000, -7.583900
  0.333000, -7.819600
  0.335000, -8.038100
  0.337000, -8.241000
  0.339000, -8.427200
  0.341000, -8.596500
  0.343000, -8.749600
  0.345000, -8.886400
  0.347000, -9.007100
  0.349000, -9.112100
  0.351000, -9.201200
  0.353000, -9.275000
  0.355000, -9.333800
  0.357000, -9.378100
  0.359000, -9.408500
  0.361000, -9.425100
  0.363000, -9.428500
  0.365000, -9.418500
  0.367000, -9.395400
  0.369000, -9.360800
  0.371000, -9.316300
  0.373000, -9.259800
  0.375000, -9.193000
  0.377000, -9.117200
  0.379000, -9.031100
  0.381000, -8.937100
  0.383000, -8.837600
  0.385000, -8.733000
  0.387000, -8.621900
  0.389000, -8.504800
  0.391000, -8.383400
  0.393000, -8.257900
  0.395000, -8.128600
  0.397000, -7.996200
  0.399000, -7.861400
  0.401000, -7.724500
  0.403000, -7.586600
  0.405000, -7.447900
  0.407000, -7.307900
  0.409000, -7.167400
  0.411000, -7.026600
  0.413000, -6.885900
  0.415000, -6.745800
  0.417000, -6.605800
  0.419000, -6.465900
  0.421000, -6.326800
  0.423000, -6.188400
  0.425000, -6.050500
  0.427000, -5.913000
  0.429000, -5.776100
  0.431000, -5.639900
  0.433000, -5.504400
  0.435000, -5.368700
  0.437000, -5.233500
  0.439000, -5.099400
  0.441000, -4.965000
  0.443000, -4.830700
  0.445000, -4.696600
  0.447000, -4.562000
  0.449000, -4.426600
  0.451000, -4.290700
  0.453000, -4.154100
  0.455000, -4.016500
  0.457000, -3.877600
  0.459000, -3.737600
  0.461000, -3.596900
  0.463000, -3.454900
  0.465000, -3.311700
  0.467000, -3.167300
  0.469000, -3.021700
  0.471000, -2.874800
  0.473000, -2.726900
  0.475000, -2.578000
  0.477000, -2.427700
  0.479000, -2.276200
  0.481000, -2.123600
  0.483000, -1.969900
  0.485000, -1.815400
  0.487000, -1.660100
  0.489000, -1.504700
  0.491000, -1.349000
  0.493000, -1.193800
  0.495000, -1.039100
  0.497000, -0.884400
  0.499000, -0.730200
  0.501000, -0.576200
  0.503000, -0.423900
  0.505000, -0.272900
  0.507000, -0.123100
  0.509000,  0.024100
  0.511000,  0.169000
  0.513000,  0.312400
  0.515000,  0.453600
  0.517000,  0.591300
  0.519000,  0.725200
  0.521000,  0.855000
  0.523000,  0.982000
  0.525000,  1.105000
  0.527000,  1.222800
  0.529000,  1.337700
  0.531000,  1.448500
  0.533000,  1.552700
  0.535000,  1.651500
  0.537000,  1.745900
  0.539000,  1.835100
  0.541000,  1.918300
  0.543000,  1.995200
  0.545000,  2.065500
  0.547000,  2.130100
  0.549000,  2.188600
  0.551000,  2.240900
  0.553000,  2.286500
  0.555000,  2.325300
  0.557000,  2.357500
  0.559000,  2.383300
  0.561000,  2.402600
  0.563000,  2.415400
  0.565000,  2.421700
  0.567000,  2.421600
  0.569000,  2.415300
  0.571000,  2.402800
  0.573000,  2.384500
  0.575000,  2.360300
  0.577000,  2.329800
  0.579000,  2.293900
  0.581000,  2.252700
  0.583000,  2.206200
  0.585000,  2.154900
  0.587000,  2.099300
  0.589000,  2.039300
  0.591000,  1.974200
  0.593000,  1.905600
  0.595000,  1.834100
  0.597000,  1.759200
  0.599000,  1.681600
  0.601000,  1.601700
  0.603000,  1.519000
  0.605000,  1.433800
  0.607000,  1.346600
  0.609000,  1.258400
  0.611000,  1.168600
  0.613000,  1.078100
  0.615000,  0.987000
  0.617000,  0.894600
  0.619000,  0.802900
  0.621000,  0.711500
  0.623000,  0.620400
  0.625000,  0.529600
  0.627000,  0.438700
  0.629000,  0.348600
  0.631000,  0.260600
  0.633000,  0.174200
  0.635000,  0.088600
  0.637000,  0.004700
  0.639000, -0.076900
  0.641000, -0.156300
  0.643000, -0.233700
  0.645000, -0.308800
  0.647000, -0.381600
  0.649000, -0.451500
  0.651000, -0.518400
  0.653000, -0.582300
  0.655000, -0.643400
  0.657000, -0.702000
  0.659000, -0.757800
  0.661000, -0.810400
  0.663000, -0.860200
  0.665000, -0.907000
  0.667000, -0.950500
  0.669000, -0.991200
  0.671000, -1.028800
  0.673000, -1.063100
  0.675000, -1.094400
  0.677000, -1.123000
  0.679000, -1.148700
  0.681000, -1.171500
  0.683000, -1.191700
  0.685000, -1.209100
  0.687000, -1.223800
  0.689000, -1.236200
  0.691000, -1.246200
  0.693000, -1.253600
  0.695000, -1.258800
  0.697000, -1.261700
  0.699000, -1.262700
  0.701000, -1.261400
  0.703000, -1.258100
  0.705000, -1.253000
  0.707000, -1.245900
  0.709000, -1.237300
  0.711000, -1.227100
  0.713000, -1.215400
  0.715000, -1.202300
  0.717000, -1.187900
  0.719000, -1.171900
  0.721000, -1.154600
  0.723000, -1.136200
  0.725000, -1.116800
  0.727000, -1.096300
  0.729000, -1.075100
  0.731000, -1.052800
  0.733000, -1.029700
  0.735000, -1.005900
  0.737000, -0.981300
  0.739000, -0.956000
  0.741000, -0.930200
  0.743000, -0.903800
  0.745000, -0.876900
  0.747000, -0.849700
  0.749000, -0.821800
  0.751000, -0.793400
  0.753000, -0.764600
  0.755000, -0.735400
  0.757000, -0.705900
  0.759000, -0.676200
  0.761000, -0.646100
  0.763000, -0.615900
  0.765000, -0.585600
  0.767000, -0.555000
  0.769000, -0.524400
  0.771000, -0.493600
  0.773000, -0.462400
  0.775000, -0.431300
  0.777000, -0.400200
  0.779000, -0.369000
  0.781000, -0.337900
  0.783000, -0.307000
  0.785000, -0.276200
  0.787000, -0.245400
  0.789000, -0.214700
  0.791000, -0.184300
  0.793000, -0.154200
  0.795000, -0.124300
  0.797000, -0.094500
  0.799000, -0.065100
  0.801000, -0.036100
  0.803000, -0.007400
  0.805000,  0.020600
  0.807000,  0.048200
  0.809000,  0.075000
  0.811000,  0.101400
  0.813000,  0.127200
  0.815000,  0.152600
  0.817000,  0.177200
  0.819000,  0.201100
  0.821000,  0.224200
  0.823000,  0.246500
  0.825000,  0.268000
  0.827000,  0.288700
  0.829000,  0.308400
  0.831000,  0.327000
  0.833000,  0.344600
  0.835000,  0.361200
  0.837000,  0.376900
  0.839000,  0.391700
  0.841000,  0.405500
  0.843000,  0.418000
  0.845000,  0.429400
  0.847000,  0.439800
  0.849000,  0.449000
  0.851000,  0.457100
  0.853000,  0.464100
  0.855000,  0.470000
  0.857000,  0.474600
  0.859000,  0.478400
  0.861000,  0.481100
  0.863000,  0.482500
  0.865000,  0.483000
  0.867000,  0.482600
  0.869000,  0.481100
  0.871000,  0.478400
  0.873000,  0.474600
  0.875000,  0.469800
  0.877000,  0.464200
  0.879000,  0.457700
  0.881000,  0.450300
  0.883000,  0.442000
  0.885000,  0.433000
  0.887000,  0.423300
  0.889000,  0.412900
  0.891000,  0.401800
  0.893000,  0.389700
  0.895000,  0.377200
  0.897000,  0.364200
  0.899000,  0.350500
  0.901000,  0.336400
  0.903000,  0.321700
  0.905000,  0.306600
  0.907000,  0.291300
  0.909000,  0.275500
  0.911000,  0.259000
  0.913000,  0.242300
  0.915000,  0.225500
  0.917000,  0.208400
  0.919000,  0.191400
  0.921000,  0.174400
  0.923000,  0.157000
  0.925000,  0.139400
  0.927000,  0.121900
  0.929000,  0.104200
  0.931000,  0.086800
  0.933000,  0.069400
  0.935000,  0.052000
  0.937000,  0.034900
  0.939000,  0.017800
  0.941000,  0.000900
  0.943000, -0.016000
  0.945000, -0.032500
  0.947000, -0.048900
  0.949000, -0.064900
  0.951000, -0.080700
  0.953000, -0.096100
  0.955000, -0.111100
  0.957000, -0.125900
  0.959000, -0.140100
  0.961000, -0.154000
  0.963000, -0.167600
  0.965000, -0.180700
  0.967000, -0.193500
  0.969000, -0.205800
  0.971000, -0.217600
  0.973000, -0.229100
  0.975000, -0.240000
  0.977000, -0.250400
  0.979000, -0.260300
  0.981000, -0.269700
  0.983000, -0.278500
  0.985000, -0.286700
  0.987000, -0.294400
  0.989000, -0.301500
  0.991000, -0.308100
  0.993000, -0.314300
  0.995000, -0.319900
  0.997000, -0.324900
  0.999000, -0.329300
  1.001000, -0.333200
  1.003000, -0.336500
  1.005000, -0.339300
  1.007000, -0.341600
  1.009000, -0.343300
  1.011000, -0.344400
  1.013000, -0.345000
  1.015000, -0.345200
  1.017000, -0.344800
  1.019000, -0.343900
  1.021000, -0.342400
  1.023000, -0.340400
  1.025000, -0.338100
  1.027000, -0.335200
  1.029000, -0.331800
  1.031000, -0.328200
  1.033000, -0.324100
  1.035000, -0.319500
  1.037000, -0.314600
  1.039000, -0.309300
  1.041000, -0.303800
  1.043000, -0.298000
  1.045000, -0.291800
  1.047000, -0.285400
  1.049000, -0.278700
  1.051000, -0.271800
  1.053000, -0.264700
  1.055000, -0.257400
  1.057000, -0.249900
  1.059000, -0.242300
  1.061000, -0.234500
  1.063000, -0.226700
  1.065000, -0.218800
  1.067000, -0.210700
  1.069000, -0.202400
  1.071000, -0.194200
  1.073000, -0.185900
  1.075000, -0.177600
  1.077000, -0.169200
  1.079000, -0.160900
  1.081000, -0.152700
  1.083000, -0.144500
  1.085000, -0.136400
  1.087000, -0.128300
  1.089000, -0.120100
  1.091000, -0.112100
  1.093000, -0.104300
  1.095000, -0.096600
  1.097000, -0.088900
  1.099000, -0.081300
  1.101000, -0.073800
  1.103000, -0.066500
  1.105000, -0.059300
  1.107000, -0.052300
  1.109000, -0.045400
  1.111000, -0.038700
  1.113000, -0.032100
  1.115000, -0.025600
  1.117000, -0.019200
  1.119000, -0.013000
  1.121000, -0.007000
  1.123000, -0.001100
  1.125000,  0.004600
  1.127000,  0.010000
  1.129000,  0.015300
  1.131000,  0.020600
  1.133000,  0.025700
  1.135000,  0.030700
  1.137000,  0.035700
  1.139000,  0.040400
  1.141000,  0.045000
  1.143000,  0.049400
  1.145000,  0.053600
  1.147000,  0.057600
  1.149000,  0.061400
  1.151000,  0.064900
  1.153000,  0.068300
  1.155000,  0.071500
  1.157000,  0.074500
  1.159000,  0.077400
  1.161000,  0.080000
  1.163000,  0.082600
  1.165000,  0.084800
  1.167000,  0.086800
  1.169000,  0.088600
  1.171000,  0.090100
  1.173000,  0.091400
  1.175000,  0.092500
  1.177000,  0.093500
  1.179000,  0.094300
  1.181000,  0.094900
  1.183000,  0.095200
  1.185000,  0.095200
  1.187000,  0.095100
  1.189000,  0.094800
  1.191000,  0.094400
  1.193000,  0.093700
  1.195000,  0.092800
  1.197000,  0.091700
  1.199000,  0.090400
  1.201000,  0.088800
  1.203000,  0.087100
  1.205000,  0.085300
  1.207000,  0.083400
  1.209000,  0.081400
  1.211000,  0.079200
  1.213000,  0.076600
  1.215000,  0.074000
  1.217000,  0.071300
  1.219000,  0.068400
  1.221000,  0.065300
  1.223000,  0.062200
  1.225000,  0.059100
  1.227000,  0.055700
  1.229000,  0.052300
  1.231000,  0.048900
  1.233000,  0.045600
  1.235000,  0.042200
  1.237000,  0.038800
  1.239000,  0.035200
  1.241000,  0.031600
  1.243000,  0.027900
  1.245000,  0.024300
  1.247000,  0.020700
  1.249000,  0.017100
  1.251000,  0.013600
  1.253000,  0.010100
  1.255000,  0.006600
  1.257000,  0.003100
  1.259000, -0.000300
  1.261000, -0.003600
  1.263000, -0.006800
  1.265000, -0.009900
  1.267000, -0.013000
  1.269000, -0.015900
  1.271000, -0.018800
  1.273000, -0.021700
  1.275000, -0.024400
  1.277000, -0.026900
  1.279000, -0.029300
  1.281000, -0.031600
  1.283000, -0.033700
  1.285000, -0.035700
  1.287000, -0.037700
  1.289000, -0.039500
  1.291000, -0.041200
  1.293000, -0.042700
  1.295000, -0.044200
  1.297000, -0.045400
  1.299000, -0.046500
  1.301000, -0.047500
  1.303000, -0.048300
  1.305000, -0.049100
  1.307000, -0.049700
  1.309000, -0.050200
  1.311000, -0.050600
  1.313000, -0.050700
  1.315000, -0.050700
  1.317000, -0.050500
  1.319000, -0.050200
  1.321000, -0.049900
  1.323000, -0.049400
  1.325000, -0.048800
  1.327000, -0.048100
  1.329000, -0.047200
  1.331000, -0.046100
  1.333000, -0.044800
  1.335000, -0.043400
  1.337000, -0.042000
  1.339000, -0.040400
  1.341000, -0.038600
  1.343000, -0.036800
  1.345000, -0.034900
  1.347000, -0.032800
  1.349000, -0.030600
  1.351000, -0.028100
  1.353000, -0.025600
  1.355000, -0.023000
  1.357000, -0.020200
  1.359000, -0.017300
  1.361000, -0.014200
  1.363000, -0.011200
  1.365000, -0.008300
  1.367000, -0.005100
  1.369000, -0.001800
  1.371000,  0.001500
  1.373000,  0.004800
  1.375000,  0.008100
  1.377000,  0.011500
  1.379000,  0.015100
  1.381000,  0.019000
  1.383000,  0.022700
  1.385000,  0.026200
  1.387000,  0.029800
  1.389000,  0.033100
  1.391000,  0.036100
  1.393000,  0.039000
  1.395000,  0.041500
  1.397000,  0.043400
  1.399000,  0.045400
