# z (nm)   (kJ/mol)
  0.301000, 10.839800
  0.303000, 10.404900
  0.305000,  9.947700
  0.307000,  9.469600
  0.309000,  8.979200
  0.311000,  8.473000
  0.313000,  7.944900
  0.315000,  7.398000
  0.317000,  6.834000
  0.319000,  6.251400
  0.321000,  5.653500
  0.323000,  5.038800
  0.325000,  4.407300
  0.327000,  3.758400
  0.329000,  3.093400
  0.331000,  2.415000
  0.333000,  1.723200
  0.335000,  1.019100
  0.337000,  0.306600
  0.339000, -0.412700
  0.341000, -1.140900
  0.343000, -1.881100
  0.345000, -2.623000
  0.347000, -3.364700
  0.349000, -4.109300
  0.351000, -4.853200
  0.353000, -5.592100
  0.355000, -6.319100
  0.357000, -7.040800
  0.359000, -7.763800
  0.361000, -8.481300
  0.363000, -9.187700
  0.365000, -9.880900
  0.367000,-10.566200
  0.369000,-11.238200
  0.371000,-11.894300
  0.373000,-12.543800
  0.375000,-13.181300
  0.377000,-13.806000
  0.379000,-14.415000
  0.381000,-15.008100
  0.383000,-15.587700
  0.385000,-16.150700
  0.387000,-16.697100
  0.389000,-17.225700
  0.391000,-17.734700
  0.393000,-18.224800
  0.395000,-18.695600
  0.397000,-19.147100
  0.399000,-19.580500
  0.401000,-19.994200
  0.403000,-20.386900
  0.405000,-20.760900
  0.407000,-21.114700
  0.409000,-21.446500
  0.411000,-21.758400
  0.413000,-22.049200
  0.415000,-22.317900
  0.417000,-22.566200
  0.419000,-22.795500
  0.421000,-23.004700
  0.423000,-23.193400
  0.425000,-23.362700
  0.427000,-23.513300
  0.429000,-23.645700
  0.431000,-23.760000
  0.433000,-23.855100
  0.435000,-23.932300
  0.437000,-23.995300
  0.439000,-24.042600
  0.441000,-24.073200
  0.443000,-24.091700
  0.445000,-24.096200
  0.447000,-24.085100
  0.449000,-24.063600
  0.451000,-24.030900
  0.453000,-23.985000
  0.455000,-23.927700
  0.457000,-23.858700
  0.459000,-23.779100
  0.461000,-23.689800
  0.463000,-23.590900
  0.465000,-23.483500
  0.467000,-23.366700
  0.469000,-23.242600
  0.471000,-23.111400
  0.473000,-22.973000
  0.475000,-22.826200
  0.477000,-22.672300
  0.479000,-22.512300
  0.481000,-22.346800
  0.483000,-22.175700
  0.485000,-21.998500
  0.487000,-21.817100
  0.489000,-21.630400
  0.491000,-21.438200
  0.493000,-21.241700
  0.495000,-21.039800
  0.497000,-20.832200
  0.499000,-20.619900
  0.501000,-20.403000
  0.503000,-20.181600
  0.505000,-19.955900
  0.507000,-19.725600
  0.509000,-19.491000
  0.511000,-19.252500
  0.513000,-19.010500
  0.515000,-18.764900
  0.517000,-18.515400
  0.519000,-18.262900
  0.521000,-18.007300
  0.523000,-17.748500
  0.525000,-17.486900
  0.527000,-17.222800
  0.529000,-16.956100
  0.531000,-16.687200
  0.533000,-16.416600
  0.535000,-16.144500
  0.537000,-15.871300
  0.539000,-15.597000
  0.541000,-15.321700
  0.543000,-15.045800
  0.545000,-14.770000
  0.547000,-14.494100
  0.549000,-14.218500
  0.551000,-13.943700
  0.553000,-13.669600
  0.555000,-13.396200
  0.557000,-13.123300
  0.559000,-12.852200
  0.561000,-12.583600
  0.563000,-12.317100
  0.565000,-12.052700
  0.567000,-11.790300
  0.569000,-11.530100
  0.571000,-11.273600
  0.573000,-11.019900
  0.575000,-10.768900
  0.577000,-10.520900
  0.579000,-10.276500
  0.581000,-10.035400
  0.583000, -9.797900
  0.585000, -9.564900
  0.587000, -9.335200
  0.589000, -9.108800
  0.591000, -8.886200
  0.593000, -8.667700
  0.595000, -8.453300
  0.597000, -8.242700
  0.599000, -8.036300
  0.601000, -7.834400
  0.603000, -7.635800
  0.605000, -7.440800
  0.607000, -7.250200
  0.609000, -7.063900
  0.611000, -6.882000
  0.613000, -6.704000
  0.615000, -6.529900
  0.617000, -6.359900
  0.619000, -6.193600
  0.621000, -6.031300
  0.623000, -5.872700
  0.625000, -5.718200
  0.627000, -5.568100
  0.629000, -5.422600
  0.631000, -5.281300
  0.633000, -5.143900
  0.635000, -5.011200
  0.637000, -4.882400
  0.639000, -4.757000
  0.641000, -4.635800
  0.643000, -4.519000
  0.645000, -4.406800
  0.647000, -4.299200
  0.649000, -4.196000
  0.651000, -4.096800
  0.653000, -4.001900
  0.655000, -3.911100
  0.657000, -3.824600
  0.659000, -3.742600
  0.661000, -3.664700
  0.663000, -3.591200
  0.665000, -3.522200
  0.667000, -3.457400
  0.669000, -3.396900
  0.671000, -3.340700
  0.673000, -3.288500
  0.675000, -3.240200
  0.677000, -3.196200
  0.679000, -3.155900
  0.681000, -3.119400
  0.683000, -3.086300
  0.685000, -3.056500
  0.687000, -3.030200
  0.689000, -3.007500
  0.691000, -2.988500
  0.693000, -2.972800
  0.695000, -2.959900
  0.697000, -2.949500
  0.699000, -2.942100
  0.701000, -2.937500
  0.703000, -2.935300
  0.705000, -2.935100
  0.707000, -2.936600
  0.709000, -2.940100
  0.711000, -2.945500
  0.713000, -2.952100
  0.715000, -2.960500
  0.717000, -2.970500
  0.719000, -2.981500
  0.721000, -2.993300
  0.723000, -3.005400
  0.725000, -3.018300
  0.727000, -3.032000
  0.729000, -3.046000
  0.731000, -3.060000
  0.733000, -3.073900
  0.735000, -3.087600
  0.737000, -3.101200
  0.739000, -3.114600
  0.741000, -3.127500
  0.743000, -3.140000
  0.745000, -3.151900
  0.747000, -3.163000
  0.749000, -3.173000
  0.751000, -3.181800
  0.753000, -3.189800
  0.755000, -3.197300
  0.757000, -3.203400
  0.759000, -3.208200
  0.761000, -3.211900
  0.763000, -3.214400
  0.765000, -3.215600
  0.767000, -3.215600
  0.769000, -3.214300
  0.771000, -3.211200
  0.773000, -3.206700
  0.775000, -3.200900
  0.777000, -3.193600
  0.779000, -3.185100
  0.781000, -3.175000
  0.783000, -3.163600
  0.785000, -3.150800
  0.787000, -3.136600
  0.789000, -3.120900
  0.791000, -3.103700
  0.793000, -3.085400
  0.795000, -3.065400
  0.797000, -3.044200
  0.799000, -3.021900
  0.801000, -2.998000
  0.803000, -2.972700
  0.805000, -2.946200
  0.807000, -2.918700
  0.809000, -2.890400
  0.811000, -2.860800
  0.813000, -2.829700
  0.815000, -2.797500
  0.817000, -2.764500
  0.819000, -2.730400
  0.821000, -2.695100
  0.823000, -2.658800
  0.825000, -2.622000
  0.827000, -2.584300
  0.829000, -2.545900
  0.831000, -2.506600
  0.833000, -2.466800
  0.835000, -2.426800
  0.837000, -2.386100
  0.839000, -2.344500
  0.841000, -2.302500
  0.843000, -2.260200
  0.845000, -2.217600
  0.847000, -2.174800
  0.849000, -2.131800
  0.851000, -2.088200
  0.853000, -2.044600
  0.855000, -2.001200
  0.857000, -1.957600
  0.859000, -1.914200
  0.861000, -1.870800
  0.863000, -1.827400
  0.865000, -1.784300
  0.867000, -1.741500
  0.869000, -1.699000
  0.871000, -1.656900
  0.873000, -1.615000
  0.875000, -1.573300
  0.877000, -1.532300
  0.879000, -1.491900
  0.881000, -1.452200
  0.883000, -1.413000
  0.885000, -1.374500
  0.887000, -1.336700
  0.889000, -1.299700
  0.891000, -1.263400
  0.893000, -1.227900
  0.895000, -1.193200
  0.897000, -1.159300
  0.899000, -1.126300
  0.901000, -1.094100
  0.903000, -1.063000
  0.905000, -1.032900
  0.907000, -1.003700
  0.909000, -0.975400
  0.911000, -0.948200
  0.913000, -0.921700
  0.915000, -0.896100
  0.917000, -0.871600
  0.919000, -0.848200
  0.921000, -0.825600
  0.923000, -0.803900
  0.925000, -0.783300
  0.927000, -0.763700
  0.929000, -0.745200
  0.931000, -0.727500
  0.933000, -0.710600
  0.935000, -0.694600
  0.937000, -0.679500
  0.939000, -0.665200
  0.941000, -0.651700
  0.943000, -0.639100
  0.945000, -0.627300
  0.947000, -0.616300
  0.949000, -0.606300
  0.951000, -0.596900
  0.953000, -0.588200
  0.955000, -0.580100
  0.957000, -0.572700
  0.959000, -0.566100
  0.961000, -0.560100
  0.963000, -0.554800
  0.965000, -0.549800
  0.967000, -0.545600
  0.969000, -0.541800
  0.971000, -0.538300
  0.973000, -0.535400
  0.975000, -0.533100
  0.977000, -0.531400
  0.979000, -0.529900
  0.981000, -0.528700
  0.983000, -0.527900
  0.985000, -0.527200
  0.987000, -0.526900
  0.989000, -0.526900
  0.991000, -0.527200
  0.993000, -0.528000
  0.995000, -0.529000
  0.997000, -0.530100
  0.999000, -0.531400
  1.001000, -0.532800
  1.003000, -0.534300
  1.005000, -0.536100
  1.007000, -0.538000
  1.009000, -0.540100
  1.011000, -0.542200
  1.013000, -0.544300
  1.015000, -0.546600
  1.017000, -0.549100
  1.019000, -0.551400
  1.021000, -0.553600
  1.023000, -0.555800
  1.025000, -0.557700
  1.027000, -0.559600
  1.029000, -0.561400
  1.031000, -0.563100
  1.033000, -0.564800
  1.035000, -0.566400
  1.037000, -0.568000
  1.039000, -0.569300
  1.041000, -0.570300
  1.043000, -0.571300
  1.045000, -0.572100
  1.047000, -0.572800
  1.049000, -0.573200
  1.051000, -0.573500
  1.053000, -0.573400
  1.055000, -0.573100
  1.057000, -0.572700
  1.059000, -0.572000
  1.061000, -0.571100
  1.063000, -0.570100
  1.065000, -0.568800
  1.067000, -0.567400
  1.069000, -0.565800
  1.071000, -0.563800
  1.073000, -0.561600
  1.075000, -0.559300
  1.077000, -0.556800
  1.079000, -0.554200
  1.081000, -0.551300
  1.083000, -0.548400
  1.085000, -0.545300
  1.087000, -0.542300
  1.089000, -0.539100
  1.091000, -0.535500
  1.093000, -0.531900
  1.095000, -0.528300
  1.097000, -0.524300
  1.099000, -0.520100
  1.101000, -0.515800
  1.103000, -0.511600
  1.105000, -0.507500
  1.107000, -0.503300
  1.109000, -0.499100
  1.111000, -0.494900
  1.113000, -0.490500
  1.115000, -0.485900
  1.117000, -0.481300
  1.119000, -0.476500
  1.121000, -0.471700
  1.123000, -0.466900
  1.125000, -0.462300
  1.127000, -0.457700
  1.129000, -0.452900
  1.131000, -0.447900
  1.133000, -0.442500
  1.135000, -0.436900
  1.137000, -0.431300
  1.139000, -0.425800
  1.141000, -0.420200
  1.143000, -0.414600
  1.145000, -0.409100
  1.147000, -0.403200
  1.149000, -0.397200
  1.151000, -0.391400
  1.153000, -0.385300
  1.155000, -0.379100
  1.157000, -0.372700
  1.159000, -0.366100
  1.161000, -0.359400
  1.163000, -0.352900
  1.165000, -0.346100
  1.167000, -0.339100
  1.169000, -0.331600
  1.171000, -0.324100
  1.173000, -0.316800
  1.175000, -0.309100
  1.177000, -0.301100
  1.179000, -0.293400
  1.181000, -0.285800
  1.183000, -0.277900
  1.185000, -0.269700
  1.187000, -0.261500
  1.189000, -0.253100
  1.191000, -0.245000
  1.193000, -0.236800
  1.195000, -0.228300
  1.197000, -0.219900
  1.199000, -0.211300
  1.201000, -0.202500
  1.203000, -0.194000
  1.205000, -0.185400
  1.207000, -0.176800
  1.209000, -0.168400
  1.211000, -0.160300
  1.213000, -0.152100
  1.215000, -0.144100
  1.217000, -0.136300
  1.219000, -0.128500
  1.221000, -0.120800
  1.223000, -0.113200
  1.225000, -0.105900
  1.227000, -0.098600
  1.229000, -0.091600
  1.231000, -0.084800
  1.233000, -0.078100
  1.235000, -0.071600
  1.237000, -0.065200
  1.239000, -0.059100
  1.241000, -0.053200
  1.243000, -0.047400
  1.245000, -0.041700
  1.247000, -0.036300
  1.249000, -0.031200
  1.251000, -0.026300
  1.253000, -0.021600
  1.255000, -0.017100
  1.257000, -0.012900
  1.259000, -0.008700
  1.261000, -0.004700
  1.263000, -0.001000
  1.265000,  0.002600
  1.267000,  0.005900
  1.269000,  0.009000
  1.271000,  0.012100
  1.273000,  0.014900
  1.275000,  0.017700
  1.277000,  0.020300
  1.279000,  0.022700
  1.281000,  0.024900
  1.283000,  0.027000
  1.285000,  0.029000
  1.287000,  0.030800
  1.289000,  0.032400
  1.291000,  0.034000
  1.293000,  0.035500
  1.295000,  0.036900
  1.297000,  0.038100
  1.299000,  0.039200
  1.301000,  0.040100
  1.303000,  0.040800
  1.305000,  0.041500
  1.307000,  0.042000
  1.309000,  0.042600
  1.311000,  0.043000
  1.313000,  0.043400
  1.315000,  0.043500
  1.317000,  0.043700
  1.319000,  0.044000
  1.321000,  0.044300
  1.323000,  0.044500
  1.325000,  0.044600
  1.327000,  0.044600
  1.329000,  0.044600
  1.331000,  0.044900
  1.333000,  0.045200
  1.335000,  0.045300
  1.337000,  0.045500
  1.339000,  0.045800
  1.341000,  0.046300
  1.343000,  0.046500
  1.345000,  0.046700
  1.347000,  0.047100
  1.349000,  0.047500
  1.351000,  0.048000
  1.353000,  0.048600
  1.355000,  0.049200
  1.357000,  0.049900
  1.359000,  0.050800
  1.361000,  0.051600
  1.363000,  0.052500
  1.365000,  0.053400
  1.367000,  0.054200
  1.369000,  0.055000
  1.371000,  0.055900
  1.373000,  0.056900
  1.375000,  0.057900
  1.377000,  0.058900
  1.379000,  0.059800
  1.381000,  0.060600
  1.383000,  0.061400
  1.385000,  0.062100
  1.387000,  0.062900
  1.389000,  0.063700
  1.391000,  0.064200
  1.393000,  0.064400
  1.395000,  0.064300
  1.397000,  0.063700
  1.399000,  0.062800
