# z (nm)   (kJ/mol)
  0.251000,  8.164600
  0.253000,  7.516100
  0.255000,  6.844000
  0.257000,  6.169600
  0.259000,  5.511300
  0.261000,  4.844500
  0.263000,  4.136500
  0.265000,  3.421400
  0.267000,  2.725100
  0.269000,  2.028600
  0.271000,  1.314300
  0.273000,  0.595700
  0.275000, -0.116500
  0.277000, -0.832000
  0.279000, -1.546300
  0.281000, -2.259500
  0.283000, -2.970100
  0.285000, -3.670100
  0.287000, -4.363800
  0.289000, -5.054500
  0.291000, -5.736500
  0.293000, -6.405600
  0.295000, -7.068500
  0.297000, -7.721500
  0.299000, -8.357500
  0.301000, -8.977500
  0.303000, -9.582000
  0.305000,-10.173000
  0.307000,-10.753300
  0.309000,-11.316800
  0.311000,-11.859200
  0.313000,-12.383900
  0.315000,-12.890700
  0.317000,-13.381200
  0.319000,-13.851700
  0.321000,-14.303300
  0.323000,-14.735400
  0.325000,-15.144000
  0.327000,-15.531300
  0.329000,-15.897300
  0.331000,-16.241200
  0.333000,-16.563400
  0.335000,-16.862100
  0.337000,-17.137000
  0.339000,-17.389600
  0.341000,-17.618100
  0.343000,-17.822100
  0.345000,-18.003000
  0.347000,-18.161500
  0.349000,-18.296700
  0.351000,-18.408200
  0.353000,-18.494900
  0.355000,-18.559300
  0.357000,-18.601600
  0.359000,-18.621500
  0.361000,-18.620100
  0.363000,-18.598700
  0.365000,-18.556600
  0.367000,-18.493100
  0.369000,-18.411000
  0.371000,-18.313000
  0.373000,-18.197900
  0.375000,-18.063000
  0.377000,-17.912800
  0.379000,-17.749100
  0.381000,-17.569700
  0.383000,-17.376800
  0.385000,-17.173900
  0.387000,-16.960200
  0.389000,-16.738100
  0.391000,-16.507400
  0.393000,-16.270800
  0.395000,-16.028300
  0.397000,-15.778500
  0.399000,-15.524500
  0.401000,-15.266300
  0.403000,-15.005600
  0.405000,-14.744400
  0.407000,-14.482500
  0.409000,-14.219400
  0.411000,-13.957400
  0.413000,-13.697800
  0.415000,-13.440300
  0.417000,-13.184900
  0.419000,-12.932400
  0.421000,-12.683900
  0.423000,-12.439600
  0.425000,-12.199800
  0.427000,-11.964800
  0.429000,-11.734700
  0.431000,-11.510000
  0.433000,-11.290600
  0.435000,-11.076400
  0.437000,-10.867800
  0.439000,-10.665100
  0.441000,-10.468600
  0.443000,-10.277300
  0.445000,-10.092000
  0.447000, -9.912200
  0.449000, -9.737200
  0.451000, -9.567500
  0.453000, -9.403000
  0.455000, -9.244000
  0.457000, -9.090400
  0.459000, -8.940400
  0.461000, -8.794700
  0.463000, -8.653600
  0.465000, -8.515400
  0.467000, -8.380200
  0.469000, -8.248700
  0.471000, -8.120600
  0.473000, -7.994600
  0.475000, -7.870800
  0.477000, -7.749200
  0.479000, -7.629400
  0.481000, -7.510700
  0.483000, -7.393400
  0.485000, -7.277800
  0.487000, -7.162500
  0.489000, -7.047600
  0.491000, -6.933500
  0.493000, -6.819500
  0.495000, -6.705100
  0.497000, -6.590600
  0.499000, -6.475300
  0.501000, -6.359300
  0.503000, -6.242200
  0.505000, -6.124100
  0.507000, -6.005100
  0.509000, -5.884700
  0.511000, -5.762900
  0.513000, -5.639600
  0.515000, -5.515000
  0.517000, -5.388900
  0.519000, -5.261400
  0.521000, -5.132400
  0.523000, -5.001500
  0.525000, -4.868800
  0.527000, -4.735000
  0.529000, -4.599900
  0.531000, -4.464100
  0.533000, -4.327100
  0.535000, -4.188400
  0.537000, -4.048900
  0.539000, -3.908900
  0.541000, -3.767600
  0.543000, -3.625300
  0.545000, -3.483800
  0.547000, -3.342100
  0.549000, -3.199800
  0.551000, -3.057800
  0.553000, -2.916100
  0.555000, -2.774400
  0.557000, -2.633700
  0.559000, -2.493500
  0.561000, -2.355200
  0.563000, -2.218400
  0.565000, -2.082900
  0.567000, -1.950600
  0.569000, -1.820900
  0.571000, -1.694000
  0.573000, -1.570200
  0.575000, -1.448300
  0.577000, -1.328900
  0.579000, -1.213800
  0.581000, -1.102800
  0.583000, -0.995600
  0.585000, -0.893100
  0.587000, -0.794600
  0.589000, -0.700500
  0.591000, -0.611600
  0.593000, -0.527200
  0.595000, -0.447900
  0.597000, -0.374100
  0.599000, -0.305600
  0.601000, -0.242100
  0.603000, -0.183400
  0.605000, -0.130000
  0.607000, -0.082100
  0.609000, -0.039400
  0.611000, -0.001900
  0.613000,  0.030200
  0.615000,  0.056600
  0.617000,  0.077700
  0.619000,  0.093700
  0.621000,  0.104400
  0.623000,  0.110000
  0.625000,  0.110900
  0.627000,  0.107500
  0.629000,  0.100000
  0.631000,  0.088400
  0.633000,  0.072400
  0.635000,  0.053000
  0.637000,  0.029900
  0.639000,  0.003200
  0.641000, -0.026800
  0.643000, -0.059700
  0.645000, -0.095200
  0.647000, -0.133100
  0.649000, -0.173100
  0.651000, -0.215000
  0.653000, -0.258900
  0.655000, -0.304200
  0.657000, -0.350800
  0.659000, -0.398400
  0.661000, -0.446300
  0.663000, -0.494400
  0.665000, -0.542900
  0.667000, -0.590700
  0.669000, -0.638300
  0.671000, -0.686400
  0.673000, -0.734000
  0.675000, -0.781000
  0.677000, -0.827100
  0.679000, -0.871700
  0.681000, -0.915000
  0.683000, -0.957000
  0.685000, -0.997600
  0.687000, -1.036800
  0.689000, -1.074500
  0.691000, -1.110400
  0.693000, -1.144300
  0.695000, -1.176200
  0.697000, -1.206100
  0.699000, -1.234100
  0.701000, -1.260000
  0.703000, -1.283600
  0.705000, -1.305000
  0.707000, -1.324400
  0.709000, -1.341700
  0.711000, -1.356900
  0.713000, -1.370000
  0.715000, -1.380900
  0.717000, -1.389700
  0.719000, -1.396600
  0.721000, -1.401600
  0.723000, -1.404900
  0.725000, -1.406200
  0.727000, -1.405500
  0.729000, -1.403400
  0.731000, -1.399400
  0.733000, -1.394000
  0.735000, -1.387500
  0.737000, -1.379500
  0.739000, -1.370100
  0.741000, -1.359400
  0.743000, -1.347300
  0.745000, -1.334200
  0.747000, -1.320300
  0.749000, -1.305400
  0.751000, -1.289600
  0.753000, -1.273100
  0.755000, -1.255900
  0.757000, -1.238100
  0.759000, -1.219900
  0.761000, -1.201300
  0.763000, -1.182200
  0.765000, -1.162700
  0.767000, -1.142600
  0.769000, -1.122300
  0.771000, -1.102100
  0.773000, -1.081700
  0.775000, -1.061000
  0.777000, -1.040300
  0.779000, -1.019400
  0.781000, -0.998400
  0.783000, -0.977400
  0.785000, -0.956300
  0.787000, -0.935300
  0.789000, -0.914200
  0.791000, -0.893100
  0.793000, -0.872000
  0.795000, -0.851000
  0.797000, -0.830100
  0.799000, -0.809100
  0.801000, -0.788400
  0.803000, -0.767800
  0.805000, -0.747200
  0.807000, -0.726700
  0.809000, -0.706300
  0.811000, -0.686000
  0.813000, -0.665600
  0.815000, -0.645400
  0.817000, -0.625200
  0.819000, -0.605100
  0.821000, -0.584800
  0.823000, -0.564600
  0.825000, -0.544500
  0.827000, -0.524400
  0.829000, -0.504400
  0.831000, -0.484500
  0.833000, -0.464600
  0.835000, -0.444800
  0.837000, -0.425100
  0.839000, -0.405300
  0.841000, -0.385700
  0.843000, -0.366300
  0.845000, -0.346800
  0.847000, -0.327500
  0.849000, -0.308300
  0.851000, -0.289500
  0.853000, -0.270900
  0.855000, -0.252500
  0.857000, -0.234200
  0.859000, -0.216200
  0.861000, -0.198500
  0.863000, -0.181100
  0.865000, -0.163800
  0.867000, -0.146800
  0.869000, -0.130300
  0.871000, -0.114200
  0.873000, -0.098600
  0.875000, -0.083600
  0.877000, -0.068900
  0.879000, -0.054600
  0.881000, -0.040900
  0.883000, -0.027600
  0.885000, -0.014700
  0.887000, -0.002500
  0.889000,  0.009100
  0.891000,  0.020300
  0.893000,  0.030800
  0.895000,  0.040900
  0.897000,  0.050400
  0.899000,  0.059200
  0.901000,  0.067400
  0.903000,  0.075100
  0.905000,  0.082000
  0.907000,  0.088100
  0.909000,  0.093600
  0.911000,  0.098600
  0.913000,  0.103000
  0.915000,  0.106800
  0.917000,  0.110000
  0.919000,  0.112600
  0.921000,  0.114600
  0.923000,  0.116000
  0.925000,  0.116900
  0.927000,  0.117200
  0.929000,  0.116900
  0.931000,  0.116000
  0.933000,  0.114600
  0.935000,  0.112700
  0.937000,  0.110400
  0.939000,  0.107500
  0.941000,  0.104200
  0.943000,  0.100500
  0.945000,  0.096400
  0.947000,  0.091900
  0.949000,  0.087100
  0.951000,  0.082000
  0.953000,  0.076500
  0.955000,  0.070800
  0.957000,  0.064700
  0.959000,  0.058300
  0.961000,  0.051900
  0.963000,  0.045100
  0.965000,  0.038100
  0.967000,  0.031100
  0.969000,  0.023800
  0.971000,  0.016500
  0.973000,  0.009000
  0.975000,  0.001400
  0.977000, -0.006200
  0.979000, -0.013900
  0.981000, -0.021600
  0.983000, -0.029300
  0.985000, -0.036900
  0.987000, -0.044600
  0.989000, -0.052200
  0.991000, -0.059700
  0.993000, -0.067200
  0.995000, -0.074600
  0.997000, -0.081900
  0.999000, -0.089200
  1.001000, -0.096300
  1.003000, -0.103300
  1.005000, -0.110200
  1.007000, -0.116900
  1.009000, -0.123500
  1.011000, -0.130000
  1.013000, -0.136100
  1.015000, -0.142000
  1.017000, -0.147800
  1.019000, -0.153500
  1.021000, -0.159100
  1.023000, -0.164500
  1.025000, -0.169500
  1.027000, -0.174500
  1.029000, -0.179300
  1.031000, -0.183800
  1.033000, -0.188300
  1.035000, -0.192300
  1.037000, -0.196200
  1.039000, -0.199800
  1.041000, -0.203200
  1.043000, -0.206400
  1.045000, -0.209400
  1.047000, -0.212100
  1.049000, -0.214500
  1.051000, -0.216800
  1.053000, -0.218700
  1.055000, -0.220500
  1.057000, -0.222100
  1.059000, -0.223300
  1.061000, -0.224200
  1.063000, -0.224900
  1.065000, -0.225400
  1.067000, -0.225900
  1.069000, -0.226200
  1.071000, -0.226000
  1.073000, -0.225600
  1.075000, -0.225100
  1.077000, -0.224400
  1.079000, -0.223500
  1.081000, -0.222500
  1.083000, -0.221100
  1.085000, -0.219500
  1.087000, -0.217800
  1.089000, -0.216000
  1.091000, -0.214000
  1.093000, -0.211900
  1.095000, -0.209600
  1.097000, -0.207100
  1.099000, -0.204500
  1.101000, -0.201800
  1.103000, -0.199000
  1.105000, -0.196000
  1.107000, -0.192900
  1.109000, -0.189700
  1.111000, -0.186400
  1.113000, -0.182800
  1.115000, -0.179300
  1.117000, -0.175900
  1.119000, -0.172400
  1.121000, -0.168900
  1.123000, -0.165300
  1.125000, -0.161600
  1.127000, -0.157900
  1.129000, -0.154200
  1.131000, -0.150500
  1.133000, -0.146800
  1.135000, -0.143200
  1.137000, -0.139500
  1.139000, -0.135800
  1.141000, -0.132100
  1.143000, -0.128400
  1.145000, -0.124700
  1.147000, -0.120900
  1.149000, -0.117200
  1.151000, -0.113600
  1.153000, -0.110100
  1.155000, -0.106700
  1.157000, -0.103200
  1.159000, -0.099700
  1.161000, -0.096400
  1.163000, -0.093100
  1.165000, -0.089800
  1.167000, -0.086500
  1.169000, -0.083300
  1.171000, -0.080100
  1.173000, -0.077000
  1.175000, -0.074000
  1.177000, -0.071000
  1.179000, -0.068000
  1.181000, -0.065100
  1.183000, -0.062300
  1.185000, -0.059400
  1.187000, -0.056600
  1.189000, -0.053900
  1.191000, -0.051200
  1.193000, -0.048600
  1.195000, -0.046000
  1.197000, -0.043500
  1.199000, -0.041200
  1.201000, -0.038900
  1.203000, -0.036600
  1.205000, -0.034400
  1.207000, -0.032200
  1.209000, -0.030100
  1.211000, -0.028100
  1.213000, -0.026100
  1.215000, -0.024300
  1.217000, -0.022500
  1.219000, -0.020800
  1.221000, -0.019200
  1.223000, -0.017700
  1.225000, -0.016300
  1.227000, -0.015000
  1.229000, -0.013700
  1.231000, -0.012500
  1.233000, -0.011400
  1.235000, -0.010400
  1.237000, -0.009400
  1.239000, -0.008400
  1.241000, -0.007500
  1.243000, -0.006700
  1.245000, -0.006100
  1.247000, -0.005400
  1.249000, -0.004900
  1.251000, -0.004500
  1.253000, -0.004100
  1.255000, -0.003900
  1.257000, -0.003600
  1.259000, -0.003400
  1.261000, -0.003300
  1.263000, -0.003200
  1.265000, -0.003300
  1.267000, -0.003500
  1.269000, -0.003600
  1.271000, -0.003800
  1.273000, -0.004000
  1.275000, -0.004200
  1.277000, -0.004500
  1.279000, -0.004800
  1.281000, -0.005200
  1.283000, -0.005700
  1.285000, -0.006200
  1.287000, -0.006600
  1.289000, -0.007100
  1.291000, -0.007600
  1.293000, -0.008100
  1.295000, -0.008600
  1.297000, -0.009100
  1.299000, -0.009600
  1.301000, -0.010200
  1.303000, -0.010800
  1.305000, -0.011300
  1.307000, -0.011800
  1.309000, -0.012300
  1.311000, -0.012800
  1.313000, -0.013100
  1.315000, -0.013300
  1.317000, -0.013400
  1.319000, -0.013500
  1.321000, -0.013600
  1.323000, -0.013600
  1.325000, -0.013500
  1.327000, -0.013300
  1.329000, -0.013000
  1.331000, -0.012400
  1.333000, -0.011600
  1.335000, -0.010900
  1.337000, -0.010000
  1.339000, -0.008900
  1.341000, -0.007600
  1.343000, -0.006000
  1.345000, -0.004300
  1.347000, -0.002500
  1.349000, -0.000600
  1.351000,  0.001400
  1.353000,  0.003500
  1.355000,  0.005800
  1.357000,  0.008400
  1.359000,  0.011100
  1.361000,  0.014000
  1.363000,  0.017200
  1.365000,  0.020400
  1.367000,  0.023500
  1.369000,  0.026700
  1.371000,  0.030100
  1.373000,  0.033400
  1.375000,  0.036800
  1.377000,  0.039900
  1.379000,  0.043300
  1.381000,  0.047100
  1.383000,  0.050200
  1.385000,  0.053000
  1.387000,  0.056100
  1.389000,  0.059000
  1.391000,  0.061600
  1.393000,  0.063900
  1.395000,  0.066100
  1.397000,  0.067900
  1.399000,  0.069300
