# z (nm)   (kJ/mol)
  0.243000,  5.849800
  0.245000,  5.259000
  0.247000,  4.646900
  0.249000,  3.977100
  0.251000,  3.296700
  0.253000,  2.631600
  0.255000,  1.946700
  0.257000,  1.214900
  0.259000,  0.482400
  0.261000, -0.264100
  0.263000, -1.027900
  0.265000, -1.780400
  0.267000, -2.541100
  0.269000, -3.296600
  0.271000, -4.050400
  0.273000, -4.807000
  0.275000, -5.557900
  0.277000, -6.313100
  0.279000, -7.062900
  0.281000, -7.808300
  0.283000, -8.553200
  0.285000, -9.290300
  0.287000,-10.014200
  0.289000,-10.725200
  0.291000,-11.425400
  0.293000,-12.109900
  0.295000,-12.777900
  0.297000,-13.430800
  0.299000,-14.070500
  0.301000,-14.692700
  0.303000,-15.291400
  0.305000,-15.871300
  0.307000,-16.431700
  0.309000,-16.968500
  0.311000,-17.483500
  0.313000,-17.977300
  0.315000,-18.444800
  0.317000,-18.885300
  0.319000,-19.301500
  0.321000,-19.691100
  0.323000,-20.054500
  0.325000,-20.392200
  0.327000,-20.702200
  0.329000,-20.983900
  0.331000,-21.238500
  0.333000,-21.464400
  0.335000,-21.661100
  0.337000,-21.829600
  0.339000,-21.970300
  0.341000,-22.082400
  0.343000,-22.166300
  0.345000,-22.223100
  0.347000,-22.253900
  0.349000,-22.257000
  0.351000,-22.232200
  0.353000,-22.183800
  0.355000,-22.109900
  0.357000,-22.009400
  0.359000,-21.886800
  0.361000,-21.742500
  0.363000,-21.577400
  0.365000,-21.392100
  0.367000,-21.189100
  0.369000,-20.968500
  0.371000,-20.729100
  0.373000,-20.475400
  0.375000,-20.209000
  0.377000,-19.930000
  0.379000,-19.637500
  0.381000,-19.335400
  0.383000,-19.026700
  0.385000,-18.709800
  0.387000,-18.386100
  0.389000,-18.058000
  0.391000,-17.727200
  0.393000,-17.394000
  0.395000,-17.058700
  0.397000,-16.723900
  0.399000,-16.389200
  0.401000,-16.054900
  0.403000,-15.723600
  0.405000,-15.395800
  0.407000,-15.072400
  0.409000,-14.753900
  0.411000,-14.440400
  0.413000,-14.133300
  0.415000,-13.833100
  0.417000,-13.539900
  0.419000,-13.254200
  0.421000,-12.976700
  0.423000,-12.707200
  0.425000,-12.446100
  0.427000,-12.193800
  0.429000,-11.950100
  0.431000,-11.715200
  0.433000,-11.489200
  0.435000,-11.272200
  0.437000,-11.064100
  0.439000,-10.864600
  0.441000,-10.673400
  0.443000,-10.490800
  0.445000,-10.316500
  0.447000,-10.150700
  0.449000, -9.993100
  0.451000, -9.842800
  0.453000, -9.700000
  0.455000, -9.564300
  0.457000, -9.434800
  0.459000, -9.311900
  0.461000, -9.195900
  0.463000, -9.085300
  0.465000, -8.979300
  0.467000, -8.879400
  0.469000, -8.784700
  0.471000, -8.693700
  0.473000, -8.606200
  0.475000, -8.522000
  0.477000, -8.441800
  0.479000, -8.364900
  0.481000, -8.290400
  0.483000, -8.218700
  0.485000, -8.149200
  0.487000, -8.081100
  0.489000, -8.014400
  0.491000, -7.948800
  0.493000, -7.884100
  0.495000, -7.819600
  0.497000, -7.754900
  0.499000, -7.690400
  0.501000, -7.625800
  0.503000, -7.560900
  0.505000, -7.495300
  0.507000, -7.427900
  0.509000, -7.359000
  0.511000, -7.288800
  0.513000, -7.216500
  0.515000, -7.142200
  0.517000, -7.065600
  0.519000, -6.986500
  0.521000, -6.905000
  0.523000, -6.820800
  0.525000, -6.733500
  0.527000, -6.643300
  0.529000, -6.550300
  0.531000, -6.454100
  0.533000, -6.355000
  0.535000, -6.252800
  0.537000, -6.147000
  0.539000, -6.037700
  0.541000, -5.925100
  0.543000, -5.809400
  0.545000, -5.690200
  0.547000, -5.567600
  0.549000, -5.441900
  0.551000, -5.313900
  0.553000, -5.182800
  0.555000, -5.049700
  0.557000, -4.915600
  0.559000, -4.779500
  0.561000, -4.640100
  0.563000, -4.497700
  0.565000, -4.353800
  0.567000, -4.208800
  0.569000, -4.063400
  0.571000, -3.917700
  0.573000, -3.771400
  0.575000, -3.625200
  0.577000, -3.479500
  0.579000, -3.335500
  0.581000, -3.191800
  0.583000, -3.048000
  0.585000, -2.906500
  0.587000, -2.767500
  0.589000, -2.630000
  0.591000, -2.494700
  0.593000, -2.362700
  0.595000, -2.233900
  0.597000, -2.108200
  0.599000, -1.986100
  0.601000, -1.867900
  0.603000, -1.754300
  0.605000, -1.645900
  0.607000, -1.542700
  0.609000, -1.444300
  0.611000, -1.351300
  0.613000, -1.263300
  0.615000, -1.180100
  0.617000, -1.103200
  0.619000, -1.031800
  0.621000, -0.966100
  0.623000, -0.906200
  0.625000, -0.852300
  0.627000, -0.804800
  0.629000, -0.763100
  0.631000, -0.727000
  0.633000, -0.696500
  0.635000, -0.671600
  0.637000, -0.652000
  0.639000, -0.637700
  0.641000, -0.628800
  0.643000, -0.624900
  0.645000, -0.625900
  0.647000, -0.631000
  0.649000, -0.640500
  0.651000, -0.653800
  0.653000, -0.671300
  0.655000, -0.693100
  0.657000, -0.717800
  0.659000, -0.744500
  0.661000, -0.773600
  0.663000, -0.805000
  0.665000, -0.839000
  0.667000, -0.875400
  0.669000, -0.913600
  0.671000, -0.953000
  0.673000, -0.993200
  0.675000, -1.034500
  0.677000, -1.076600
  0.679000, -1.119100
  0.681000, -1.162500
  0.683000, -1.205600
  0.685000, -1.248600
  0.687000, -1.292000
  0.689000, -1.335200
  0.691000, -1.378200
  0.693000, -1.420300
  0.695000, -1.461400
  0.697000, -1.501400
  0.699000, -1.540000
  0.701000, -1.577200
  0.703000, -1.613300
  0.705000, -1.647800
  0.707000, -1.680600
  0.709000, -1.711800
  0.711000, -1.741600
  0.713000, -1.769600
  0.715000, -1.795900
  0.717000, -1.820500
  0.719000, -1.843500
  0.721000, -1.864600
  0.723000, -1.883800
  0.725000, -1.901400
  0.727000, -1.917100
  0.729000, -1.931000
  0.731000, -1.943200
  0.733000, -1.953800
  0.735000, -1.962500
  0.737000, -1.969600
  0.739000, -1.974900
  0.741000, -1.978500
  0.743000, -1.980700
  0.745000, -1.981200
  0.747000, -1.980000
  0.749000, -1.977400
  0.751000, -1.973100
  0.753000, -1.967700
  0.755000, -1.960900
  0.757000, -1.952600
  0.759000, -1.943100
  0.761000, -1.932500
  0.763000, -1.920800
  0.765000, -1.907900
  0.767000, -1.894000
  0.769000, -1.878900
  0.771000, -1.862800
  0.773000, -1.845500
  0.775000, -1.827500
  0.777000, -1.808600
  0.779000, -1.788800
  0.781000, -1.768200
  0.783000, -1.746800
  0.785000, -1.725000
  0.787000, -1.702700
  0.789000, -1.679500
  0.791000, -1.655800
  0.793000, -1.631300
  0.795000, -1.606500
  0.797000, -1.581300
  0.799000, -1.555500
  0.801000, -1.529300
  0.803000, -1.502700
  0.805000, -1.475800
  0.807000, -1.448400
  0.809000, -1.420900
  0.811000, -1.393000
  0.813000, -1.364800
  0.815000, -1.336600
  0.817000, -1.308200
  0.819000, -1.279400
  0.821000, -1.250500
  0.823000, -1.221400
  0.825000, -1.192300
  0.827000, -1.163100
  0.829000, -1.133900
  0.831000, -1.104500
  0.833000, -1.075100
  0.835000, -1.045600
  0.837000, -1.016100
  0.839000, -0.986600
  0.841000, -0.957100
  0.843000, -0.927800
  0.845000, -0.898600
  0.847000, -0.869500
  0.849000, -0.840500
  0.851000, -0.811800
  0.853000, -0.783300
  0.855000, -0.754800
  0.857000, -0.726600
  0.859000, -0.698600
  0.861000, -0.670700
  0.863000, -0.643300
  0.865000, -0.616300
  0.867000, -0.589700
  0.869000, -0.563400
  0.871000, -0.537600
  0.873000, -0.512100
  0.875000, -0.487100
  0.877000, -0.462500
  0.879000, -0.438500
  0.881000, -0.415400
  0.883000, -0.392500
  0.885000, -0.370100
  0.887000, -0.348300
  0.889000, -0.327200
  0.891000, -0.306800
  0.893000, -0.286900
  0.895000, -0.267800
  0.897000, -0.249400
  0.899000, -0.231700
  0.901000, -0.214600
  0.903000, -0.198400
  0.905000, -0.183000
  0.907000, -0.168400
  0.909000, -0.154500
  0.911000, -0.141500
  0.913000, -0.129300
  0.915000, -0.118000
  0.917000, -0.107400
  0.919000, -0.097700
  0.921000, -0.088800
  0.923000, -0.080900
  0.925000, -0.073700
  0.927000, -0.067300
  0.929000, -0.061800
  0.931000, -0.057100
  0.933000, -0.053300
  0.935000, -0.050200
  0.937000, -0.047900
  0.939000, -0.046300
  0.941000, -0.045600
  0.943000, -0.045400
  0.945000, -0.045900
  0.947000, -0.047300
  0.949000, -0.049300
  0.951000, -0.051900
  0.953000, -0.055100
  0.955000, -0.058900
  0.957000, -0.063200
  0.959000, -0.068200
  0.961000, -0.073700
  0.963000, -0.079600
  0.965000, -0.085900
  0.967000, -0.092700
  0.969000, -0.100000
  0.971000, -0.107500
  0.973000, -0.115300
  0.975000, -0.123500
  0.977000, -0.132100
  0.979000, -0.140900
  0.981000, -0.150000
  0.983000, -0.159100
  0.985000, -0.168400
  0.987000, -0.177600
  0.989000, -0.187000
  0.991000, -0.196700
  0.993000, -0.206400
  0.995000, -0.216000
  0.997000, -0.225500
  0.999000, -0.235100
  1.001000, -0.244600
  1.003000, -0.254100
  1.005000, -0.263500
  1.007000, -0.272700
  1.009000, -0.281800
  1.011000, -0.290800
  1.013000, -0.299500
  1.015000, -0.307900
  1.017000, -0.316000
  1.019000, -0.324000
  1.021000, -0.331900
  1.023000, -0.339700
  1.025000, -0.347000
  1.027000, -0.354000
  1.029000, -0.360700
  1.031000, -0.367200
  1.033000, -0.373500
  1.035000, -0.379500
  1.037000, -0.385000
  1.039000, -0.390300
  1.041000, -0.395200
  1.043000, -0.399700
  1.045000, -0.404000
  1.047000, -0.408000
  1.049000, -0.411500
  1.051000, -0.414700
  1.053000, -0.417700
  1.055000, -0.420300
  1.057000, -0.422600
  1.059000, -0.424500
  1.061000, -0.426200
  1.063000, -0.427500
  1.065000, -0.428400
  1.067000, -0.429000
  1.069000, -0.429300
  1.071000, -0.429300
  1.073000, -0.429000
  1.075000, -0.428400
  1.077000, -0.427600
  1.079000, -0.426400
  1.081000, -0.424900
  1.083000, -0.423200
  1.085000, -0.421200
  1.087000, -0.419000
  1.089000, -0.416500
  1.091000, -0.413900
  1.093000, -0.410900
  1.095000, -0.407700
  1.097000, -0.404300
  1.099000, -0.400800
  1.101000, -0.397100
  1.103000, -0.393000
  1.105000, -0.388700
  1.107000, -0.384300
  1.109000, -0.379700
  1.111000, -0.374900
  1.113000, -0.369700
  1.115000, -0.364500
  1.117000, -0.359200
  1.119000, -0.353900
  1.121000, -0.348300
  1.123000, -0.342700
  1.125000, -0.336800
  1.127000, -0.330700
  1.129000, -0.324500
  1.131000, -0.318500
  1.133000, -0.312100
  1.135000, -0.305500
  1.137000, -0.299000
  1.139000, -0.292400
  1.141000, -0.285600
  1.143000, -0.278700
  1.145000, -0.271900
  1.147000, -0.265300
  1.149000, -0.258400
  1.151000, -0.251500
  1.153000, -0.244600
  1.155000, -0.237600
  1.157000, -0.230500
  1.159000, -0.223200
  1.161000, -0.216000
  1.163000, -0.208800
  1.165000, -0.201600
  1.167000, -0.194400
  1.169000, -0.187200
  1.171000, -0.180100
  1.173000, -0.173000
  1.175000, -0.165900
  1.177000, -0.158800
  1.179000, -0.151700
  1.181000, -0.144600
  1.183000, -0.137500
  1.185000, -0.130700
  1.187000, -0.123900
  1.189000, -0.117200
  1.191000, -0.110600
  1.193000, -0.104100
  1.195000, -0.097700
  1.197000, -0.091300
  1.199000, -0.085100
  1.201000, -0.079000
  1.203000, -0.073000
  1.205000, -0.067200
  1.207000, -0.061700
  1.209000, -0.056100
  1.211000, -0.050700
  1.213000, -0.045300
  1.215000, -0.040400
  1.217000, -0.035600
  1.219000, -0.031000
  1.221000, -0.026500
  1.223000, -0.022200
  1.225000, -0.018100
  1.227000, -0.014100
  1.229000, -0.010300
  1.231000, -0.006900
  1.233000, -0.003800
  1.235000, -0.000900
  1.237000,  0.001800
  1.239000,  0.004300
  1.241000,  0.006600
  1.243000,  0.008600
  1.245000,  0.010500
  1.247000,  0.012000
  1.249000,  0.013400
  1.251000,  0.014600
  1.253000,  0.015600
  1.255000,  0.016300
  1.257000,  0.016800
  1.259000,  0.017200
  1.261000,  0.017500
  1.263000,  0.017500
  1.265000,  0.017400
  1.267000,  0.017100
  1.269000,  0.016700
  1.271000,  0.016100
  1.273000,  0.015500
  1.275000,  0.014800
  1.277000,  0.014000
  1.279000,  0.012900
  1.281000,  0.011900
  1.283000,  0.010700
  1.285000,  0.009400
  1.287000,  0.008200
  1.289000,  0.007000
  1.291000,  0.005600
  1.293000,  0.004200
  1.295000,  0.002900
  1.297000,  0.001500
  1.299000,  0.000200
  1.301000, -0.001000
  1.303000, -0.002400
  1.305000, -0.003800
  1.307000, -0.004900
  1.309000, -0.006000
  1.311000, -0.007100
  1.313000, -0.008100
  1.315000, -0.009000
  1.317000, -0.009800
  1.319000, -0.010400
  1.321000, -0.010900
  1.323000, -0.011500
  1.325000, -0.011900
  1.327000, -0.012200
  1.329000, -0.012300
  1.331000, -0.012200
  1.333000, -0.012000
  1.335000, -0.011600
  1.337000, -0.011000
  1.339000, -0.010400
  1.341000, -0.009700
  1.343000, -0.008800
  1.345000, -0.007800
  1.347000, -0.006700
  1.349000, -0.005400
  1.351000, -0.003900
  1.353000, -0.002300
  1.355000, -0.000600
  1.357000,  0.001300
  1.359000,  0.003300
  1.361000,  0.005500
  1.363000,  0.007700
  1.365000,  0.010000
  1.367000,  0.012400
  1.369000,  0.014800
  1.371000,  0.017300
  1.373000,  0.019800
  1.375000,  0.022500
  1.377000,  0.025100
  1.379000,  0.027800
  1.381000,  0.030500
  1.383000,  0.033000
  1.385000,  0.035400
  1.387000,  0.037900
  1.389000,  0.040300
  1.391000,  0.042500
  1.393000,  0.044300
  1.395000,  0.045900
  1.397000,  0.047300
  1.399000,  0.048400
