# z (nm)   (kJ/mol)
  0.273000,  9.549000
  0.275000,  8.999500
  0.277000,  8.439900
  0.279000,  7.833100
  0.281000,  7.225600
  0.283000,  6.627900
  0.285000,  6.006400
  0.287000,  5.380100
  0.289000,  4.739300
  0.291000,  4.095100
  0.293000,  3.447000
  0.295000,  2.786900
  0.297000,  2.126800
  0.299000,  1.471600
  0.301000,  0.813300
  0.303000,  0.153500
  0.305000, -0.510100
  0.307000, -1.167300
  0.309000, -1.812700
  0.311000, -2.452400
  0.313000, -3.089200
  0.315000, -3.718100
  0.317000, -4.334600
  0.319000, -4.942000
  0.321000, -5.538800
  0.323000, -6.123600
  0.325000, -6.696100
  0.327000, -7.258600
  0.329000, -7.808100
  0.331000, -8.340100
  0.333000, -8.857600
  0.335000, -9.362900
  0.337000, -9.852200
  0.339000,-10.322500
  0.341000,-10.775200
  0.343000,-11.211000
  0.345000,-11.628500
  0.347000,-12.025600
  0.349000,-12.402800
  0.351000,-12.763000
  0.353000,-13.104600
  0.355000,-13.424600
  0.357000,-13.723800
  0.359000,-14.003000
  0.361000,-14.261100
  0.363000,-14.497700
  0.365000,-14.712500
  0.367000,-14.905400
  0.369000,-15.076800
  0.371000,-15.227100
  0.373000,-15.356000
  0.375000,-15.463800
  0.377000,-15.550800
  0.379000,-15.616600
  0.381000,-15.662300
  0.383000,-15.688600
  0.385000,-15.695400
  0.387000,-15.683600
  0.389000,-15.653500
  0.391000,-15.605500
  0.393000,-15.540000
  0.395000,-15.458200
  0.397000,-15.361100
  0.399000,-15.250400
  0.401000,-15.125200
  0.403000,-14.985600
  0.405000,-14.835400
  0.407000,-14.674600
  0.409000,-14.502500
  0.411000,-14.320600
  0.413000,-14.129900
  0.415000,-13.931400
  0.417000,-13.727000
  0.419000,-13.516900
  0.421000,-13.303200
  0.423000,-13.085900
  0.425000,-12.864400
  0.427000,-12.641000
  0.429000,-12.416600
  0.431000,-12.191300
  0.433000,-11.965800
  0.435000,-11.741500
  0.437000,-11.518500
  0.439000,-11.297100
  0.441000,-11.078100
  0.443000,-10.861900
  0.445000,-10.649000
  0.447000,-10.439700
  0.449000,-10.234600
  0.451000,-10.033800
  0.453000, -9.837100
  0.455000, -9.645200
  0.457000, -9.458600
  0.459000, -9.276400
  0.461000, -9.099300
  0.463000, -8.927700
  0.465000, -8.760300
  0.467000, -8.597100
  0.469000, -8.439300
  0.471000, -8.287200
  0.473000, -8.140500
  0.475000, -7.997800
  0.477000, -7.858600
  0.479000, -7.723400
  0.481000, -7.591600
  0.483000, -7.462300
  0.485000, -7.335600
  0.487000, -7.212700
  0.489000, -7.091800
  0.491000, -6.972300
  0.493000, -6.854800
  0.495000, -6.738400
  0.497000, -6.625100
  0.499000, -6.513300
  0.501000, -6.400300
  0.503000, -6.287600
  0.505000, -6.175400
  0.507000, -6.062400
  0.509000, -5.948400
  0.511000, -5.834300
  0.513000, -5.718800
  0.515000, -5.601800
  0.517000, -5.482900
  0.519000, -5.361800
  0.521000, -5.238900
  0.523000, -5.113600
  0.525000, -4.985500
  0.527000, -4.855100
  0.529000, -4.722000
  0.531000, -4.585700
  0.533000, -4.446500
  0.535000, -4.304700
  0.537000, -4.159900
  0.539000, -4.012100
  0.541000, -3.862000
  0.543000, -3.709400
  0.545000, -3.553700
  0.547000, -3.395100
  0.549000, -3.233500
  0.551000, -3.070200
  0.553000, -2.905200
  0.555000, -2.737300
  0.557000, -2.567800
  0.559000, -2.398200
  0.561000, -2.227300
  0.563000, -2.054800
  0.565000, -1.882200
  0.567000, -1.708500
  0.569000, -1.535300
  0.571000, -1.363900
  0.573000, -1.192000
  0.575000, -1.020700
  0.577000, -0.851300
  0.579000, -0.684000
  0.581000, -0.519100
  0.583000, -0.356500
  0.585000, -0.195000
  0.587000, -0.036400
  0.589000,  0.116800
  0.591000,  0.264900
  0.593000,  0.408500
  0.595000,  0.547300
  0.597000,  0.680400
  0.599000,  0.808700
  0.601000,  0.931200
  0.603000,  1.047000
  0.605000,  1.156400
  0.607000,  1.259200
  0.609000,  1.356200
  0.611000,  1.447000
  0.613000,  1.529500
  0.615000,  1.604400
  0.617000,  1.672000
  0.619000,  1.732100
  0.621000,  1.785000
  0.623000,  1.830100
  0.625000,  1.867600
  0.627000,  1.897700
  0.629000,  1.920300
  0.631000,  1.935400
  0.633000,  1.943200
  0.635000,  1.943800
  0.637000,  1.937200
  0.639000,  1.923700
  0.641000,  1.903700
  0.643000,  1.877200
  0.645000,  1.844400
  0.647000,  1.806200
  0.649000,  1.763800
  0.651000,  1.715900
  0.653000,  1.661400
  0.655000,  1.602600
  0.657000,  1.539200
  0.659000,  1.472600
  0.661000,  1.402400
  0.663000,  1.328100
  0.665000,  1.252600
  0.667000,  1.174300
  0.669000,  1.092100
  0.671000,  1.007100
  0.673000,  0.921700
  0.675000,  0.835400
  0.677000,  0.747600
  0.679000,  0.660300
  0.681000,  0.572700
  0.683000,  0.485400
  0.685000,  0.399600
  0.687000,  0.314100
  0.689000,  0.229300
  0.691000,  0.145700
  0.693000,  0.063100
  0.695000, -0.017500
  0.697000, -0.095900
  0.699000, -0.171700
  0.701000, -0.246100
  0.703000, -0.318800
  0.705000, -0.388600
  0.707000, -0.455400
  0.709000, -0.519200
  0.711000, -0.580800
  0.713000, -0.639900
  0.715000, -0.695800
  0.717000, -0.748900
  0.719000, -0.799200
  0.721000, -0.846400
  0.723000, -0.890400
  0.725000, -0.931200
  0.727000, -0.969000
  0.729000, -1.003900
  0.731000, -1.036100
  0.733000, -1.065100
  0.735000, -1.091200
  0.737000, -1.114500
  0.739000, -1.134700
  0.741000, -1.152200
  0.743000, -1.167200
  0.745000, -1.179700
  0.747000, -1.189400
  0.749000, -1.196500
  0.751000, -1.201400
  0.753000, -1.204400
  0.755000, -1.205400
  0.757000, -1.204400
  0.759000, -1.201100
  0.761000, -1.196100
  0.763000, -1.189500
  0.765000, -1.181000
  0.767000, -1.170800
  0.769000, -1.159700
  0.771000, -1.147300
  0.773000, -1.133300
  0.775000, -1.118100
  0.777000, -1.101900
  0.779000, -1.084600
  0.781000, -1.066100
  0.783000, -1.046300
  0.785000, -1.025500
  0.787000, -1.004400
  0.789000, -0.982700
  0.791000, -0.960100
  0.793000, -0.937000
  0.795000, -0.913300
  0.797000, -0.889200
  0.799000, -0.864500
  0.801000, -0.839300
  0.803000, -0.813700
  0.805000, -0.787600
  0.807000, -0.761200
  0.809000, -0.734500
  0.811000, -0.707800
  0.813000, -0.680800
  0.815000, -0.653400
  0.817000, -0.625400
  0.819000, -0.597400
  0.821000, -0.569200
  0.823000, -0.540800
  0.825000, -0.512300
  0.827000, -0.483500
  0.829000, -0.454700
  0.831000, -0.425900
  0.833000, -0.396900
  0.835000, -0.367800
  0.837000, -0.338700
  0.839000, -0.309700
  0.841000, -0.280600
  0.843000, -0.251500
  0.845000, -0.222500
  0.847000, -0.193600
  0.849000, -0.164900
  0.851000, -0.136400
  0.853000, -0.108000
  0.855000, -0.079800
  0.857000, -0.051800
  0.859000, -0.024100
  0.861000,  0.003100
  0.863000,  0.030000
  0.865000,  0.056500
  0.867000,  0.082500
  0.869000,  0.108100
  0.871000,  0.133200
  0.873000,  0.157700
  0.875000,  0.181700
  0.877000,  0.204900
  0.879000,  0.227500
  0.881000,  0.249500
  0.883000,  0.270700
  0.885000,  0.291100
  0.887000,  0.310500
  0.889000,  0.329100
  0.891000,  0.346800
  0.893000,  0.363700
  0.895000,  0.379600
  0.897000,  0.394500
  0.899000,  0.408400
  0.901000,  0.421400
  0.903000,  0.433300
  0.905000,  0.444000
  0.907000,  0.453800
  0.909000,  0.462500
  0.911000,  0.470000
  0.913000,  0.476500
  0.915000,  0.481800
  0.917000,  0.486100
  0.919000,  0.489200
  0.921000,  0.491400
  0.923000,  0.492500
  0.925000,  0.492400
  0.927000,  0.491300
  0.929000,  0.489100
  0.931000,  0.485800
  0.933000,  0.481400
  0.935000,  0.476000
  0.937000,  0.469600
  0.939000,  0.462600
  0.941000,  0.454700
  0.943000,  0.445600
  0.945000,  0.435600
  0.947000,  0.425000
  0.949000,  0.413700
  0.951000,  0.401400
  0.953000,  0.388400
  0.955000,  0.374800
  0.957000,  0.360600
  0.959000,  0.346000
  0.961000,  0.330800
  0.963000,  0.315200
  0.965000,  0.299200
  0.967000,  0.282600
  0.969000,  0.265700
  0.971000,  0.248500
  0.973000,  0.231200
  0.975000,  0.213800
  0.977000,  0.196300
  0.979000,  0.178500
  0.981000,  0.160300
  0.983000,  0.142200
  0.985000,  0.124100
  0.987000,  0.106000
  0.989000,  0.087800
  0.991000,  0.069600
  0.993000,  0.051500
  0.995000,  0.033900
  0.997000,  0.016400
  0.999000, -0.000800
  1.001000, -0.017900
  1.003000, -0.034500
  1.005000, -0.050800
  1.007000, -0.067000
  1.009000, -0.082700
  1.011000, -0.098000
  1.013000, -0.113000
  1.015000, -0.127600
  1.017000, -0.141800
  1.019000, -0.155600
  1.021000, -0.168900
  1.023000, -0.181600
  1.025000, -0.193900
  1.027000, -0.205600
  1.029000, -0.216900
  1.031000, -0.227600
  1.033000, -0.237800
  1.035000, -0.247400
  1.037000, -0.256600
  1.039000, -0.265200
  1.041000, -0.273300
  1.043000, -0.280900
  1.045000, -0.287900
  1.047000, -0.294400
  1.049000, -0.300500
  1.051000, -0.306000
  1.053000, -0.311000
  1.055000, -0.315500
  1.057000, -0.319500
  1.059000, -0.322900
  1.061000, -0.325800
  1.063000, -0.328300
  1.065000, -0.330200
  1.067000, -0.331700
  1.069000, -0.332800
  1.071000, -0.333500
  1.073000, -0.333800
  1.075000, -0.333500
  1.077000, -0.332900
  1.079000, -0.332000
  1.081000, -0.330500
  1.083000, -0.328600
  1.085000, -0.326300
  1.087000, -0.323700
  1.089000, -0.320700
  1.091000, -0.317500
  1.093000, -0.313800
  1.095000, -0.309800
  1.097000, -0.305400
  1.099000, -0.300800
  1.101000, -0.296000
  1.103000, -0.290800
  1.105000, -0.285300
  1.107000, -0.279500
  1.109000, -0.273500
  1.111000, -0.267200
  1.113000, -0.260800
  1.115000, -0.254000
  1.117000, -0.247000
  1.119000, -0.239800
  1.121000, -0.232400
  1.123000, -0.224900
  1.125000, -0.217100
  1.127000, -0.209100
  1.129000, -0.201100
  1.131000, -0.193100
  1.133000, -0.184800
  1.135000, -0.176400
  1.137000, -0.167900
  1.139000, -0.159400
  1.141000, -0.150800
  1.143000, -0.142000
  1.145000, -0.133200
  1.147000, -0.124400
  1.149000, -0.115500
  1.151000, -0.106600
  1.153000, -0.097600
  1.155000, -0.088600
  1.157000, -0.079600
  1.159000, -0.070700
  1.161000, -0.062100
  1.163000, -0.053400
  1.165000, -0.044800
  1.167000, -0.036300
  1.169000, -0.027800
  1.171000, -0.019500
  1.173000, -0.011400
  1.175000, -0.003500
  1.177000,  0.004400
  1.179000,  0.012000
  1.181000,  0.019300
  1.183000,  0.026400
  1.185000,  0.033400
  1.187000,  0.040200
  1.189000,  0.046700
  1.191000,  0.052900
  1.193000,  0.058900
  1.195000,  0.064500
  1.197000,  0.069700
  1.199000,  0.074800
  1.201000,  0.079500
  1.203000,  0.084000
  1.205000,  0.088100
  1.207000,  0.091900
  1.209000,  0.095400
  1.211000,  0.098400
  1.213000,  0.101000
  1.215000,  0.103400
  1.217000,  0.105300
  1.219000,  0.106900
  1.221000,  0.108100
  1.223000,  0.108900
  1.225000,  0.109400
  1.227000,  0.109500
  1.229000,  0.109100
  1.231000,  0.108400
  1.233000,  0.107500
  1.235000,  0.106300
  1.237000,  0.104700
  1.239000,  0.102900
  1.241000,  0.100700
  1.243000,  0.098200
  1.245000,  0.095500
  1.247000,  0.092400
  1.249000,  0.089000
  1.251000,  0.085400
  1.253000,  0.081800
  1.255000,  0.078000
  1.257000,  0.074000
  1.259000,  0.069800
  1.261000,  0.065400
  1.263000,  0.061000
  1.265000,  0.056400
  1.267000,  0.051800
  1.269000,  0.047100
  1.271000,  0.042300
  1.273000,  0.037500
  1.275000,  0.032800
  1.277000,  0.028100
  1.279000,  0.023200
  1.281000,  0.018200
  1.283000,  0.013400
  1.285000,  0.008800
  1.287000,  0.004300
  1.289000, -0.000300
  1.291000, -0.004800
  1.293000, -0.009100
  1.295000, -0.013400
  1.297000, -0.017800
  1.299000, -0.022100
  1.301000, -0.026200
  1.303000, -0.030200
  1.305000, -0.034000
  1.307000, -0.037800
  1.309000, -0.041400
  1.311000, -0.044800
  1.313000, -0.048000
  1.315000, -0.051200
  1.317000, -0.054100
  1.319000, -0.056900
  1.321000, -0.059500
  1.323000, -0.062100
  1.325000, -0.064600
  1.327000, -0.067000
  1.329000, -0.069200
  1.331000, -0.071300
  1.333000, -0.073100
  1.335000, -0.075000
  1.337000, -0.076600
  1.339000, -0.078000
  1.341000, -0.079200
  1.343000, -0.080200
  1.345000, -0.081100
  1.347000, -0.082000
  1.349000, -0.082700
  1.351000, -0.083100
  1.353000, -0.083400
  1.355000, -0.083600
  1.357000, -0.083600
  1.359000, -0.083500
  1.361000, -0.083200
  1.363000, -0.082700
  1.365000, -0.081900
  1.367000, -0.081000
  1.369000, -0.079800
  1.371000, -0.078700
  1.373000, -0.077700
  1.375000, -0.076500
  1.377000, -0.075100
  1.379000, -0.073600
  1.381000, -0.072000
  1.383000, -0.070400
  1.385000, -0.068800
  1.387000, -0.067000
  1.389000, -0.065300
  1.391000, -0.063700
  1.393000, -0.062300
  1.395000, -0.061400
  1.397000, -0.060500
  1.399000, -0.060100
