# z (nm)   (kJ/mol)
  0.289000, 12.339800
  0.291000, 11.842100
  0.293000, 11.332800
  0.295000, 10.819400
  0.297000, 10.258600
  0.299000,  9.652300
  0.301000,  9.069400
  0.303000,  8.499500
  0.305000,  7.904600
  0.307000,  7.292900
  0.309000,  6.683800
  0.311000,  6.080600
  0.313000,  5.467000
  0.315000,  4.845900
  0.317000,  4.228200
  0.319000,  3.610900
  0.321000,  2.989400
  0.323000,  2.367600
  0.325000,  1.748600
  0.327000,  1.132700
  0.329000,  0.518500
  0.331000, -0.091200
  0.333000, -0.691600
  0.335000, -1.291100
  0.337000, -1.885800
  0.339000, -2.471400
  0.341000, -3.046500
  0.343000, -3.610200
  0.345000, -4.165500
  0.347000, -4.713000
  0.349000, -5.249000
  0.351000, -5.773400
  0.353000, -6.282900
  0.355000, -6.778200
  0.357000, -7.261000
  0.359000, -7.730400
  0.361000, -8.185900
  0.363000, -8.626800
  0.365000, -9.050000
  0.367000, -9.456000
  0.369000, -9.846800
  0.371000,-10.219700
  0.373000,-10.575900
  0.375000,-10.915800
  0.377000,-11.237500
  0.379000,-11.540900
  0.381000,-11.826000
  0.383000,-12.093000
  0.385000,-12.341400
  0.387000,-12.571100
  0.389000,-12.782400
  0.391000,-12.974500
  0.393000,-13.147800
  0.395000,-13.302600
  0.397000,-13.439000
  0.399000,-13.556800
  0.401000,-13.656200
  0.403000,-13.737800
  0.405000,-13.802400
  0.407000,-13.849100
  0.409000,-13.877700
  0.411000,-13.888600
  0.413000,-13.883600
  0.415000,-13.863400
  0.417000,-13.826800
  0.419000,-13.775900
  0.421000,-13.712000
  0.423000,-13.634800
  0.425000,-13.544000
  0.427000,-13.439900
  0.429000,-13.324800
  0.431000,-13.198400
  0.433000,-13.062200
  0.435000,-12.917900
  0.437000,-12.764600
  0.439000,-12.602500
  0.441000,-12.431600
  0.443000,-12.253000
  0.445000,-12.068300
  0.447000,-11.878000
  0.449000,-11.681800
  0.451000,-11.481600
  0.453000,-11.276900
  0.455000,-11.068300
  0.457000,-10.856000
  0.459000,-10.640200
  0.461000,-10.422100
  0.463000,-10.201600
  0.465000, -9.978800
  0.467000, -9.754300
  0.469000, -9.527900
  0.471000, -9.300300
  0.473000, -9.071900
  0.475000, -8.842400
  0.477000, -8.612100
  0.479000, -8.381900
  0.481000, -8.151300
  0.483000, -7.919900
  0.485000, -7.688400
  0.487000, -7.457000
  0.489000, -7.226000
  0.491000, -6.995200
  0.493000, -6.764100
  0.495000, -6.533200
  0.497000, -6.302400
  0.499000, -6.071200
  0.501000, -5.840300
  0.503000, -5.610200
  0.505000, -5.380800
  0.507000, -5.151800
  0.509000, -4.923600
  0.511000, -4.696100
  0.513000, -4.469000
  0.515000, -4.242200
  0.517000, -4.016000
  0.519000, -3.791200
  0.521000, -3.567400
  0.523000, -3.343800
  0.525000, -3.121700
  0.527000, -2.901100
  0.529000, -2.681400
  0.531000, -2.462900
  0.533000, -2.244900
  0.535000, -2.028700
  0.537000, -1.814900
  0.539000, -1.602500
  0.541000, -1.392300
  0.543000, -1.184400
  0.545000, -0.978400
  0.547000, -0.774400
  0.549000, -0.573000
  0.551000, -0.374500
  0.553000, -0.179200
  0.555000,  0.013000
  0.557000,  0.202900
  0.559000,  0.389200
  0.561000,  0.571300
  0.563000,  0.749300
  0.565000,  0.923600
  0.567000,  1.093700
  0.569000,  1.258700
  0.571000,  1.418900
  0.573000,  1.574200
  0.575000,  1.724900
  0.577000,  1.870000
  0.579000,  2.009700
  0.581000,  2.144500
  0.583000,  2.273800
  0.585000,  2.396900
  0.587000,  2.513900
  0.589000,  2.625300
  0.591000,  2.730900
  0.593000,  2.829900
  0.595000,  2.921700
  0.597000,  3.007000
  0.599000,  3.085900
  0.601000,  3.157800
  0.603000,  3.222800
  0.605000,  3.280600
  0.607000,  3.331300
  0.609000,  3.375200
  0.611000,  3.412200
  0.613000,  3.442200
  0.615000,  3.465100
  0.617000,  3.481100
  0.619000,  3.490500
  0.621000,  3.492900
  0.623000,  3.488800
  0.625000,  3.477800
  0.627000,  3.459800
  0.629000,  3.435500
  0.631000,  3.404700
  0.633000,  3.368200
  0.635000,  3.325100
  0.637000,  3.275900
  0.639000,  3.221500
  0.641000,  3.162300
  0.643000,  3.097000
  0.645000,  3.026100
  0.647000,  2.951000
  0.649000,  2.871400
  0.651000,  2.787700
  0.653000,  2.699600
  0.655000,  2.607900
  0.657000,  2.512800
  0.659000,  2.413400
  0.661000,  2.311400
  0.663000,  2.207200
  0.665000,  2.100600
  0.667000,  1.992300
  0.669000,  1.882300
  0.671000,  1.770200
  0.673000,  1.656100
  0.675000,  1.540500
  0.677000,  1.424000
  0.679000,  1.307900
  0.681000,  1.191600
  0.683000,  1.074200
  0.685000,  0.957500
  0.687000,  0.842800
  0.689000,  0.728100
  0.691000,  0.615200
  0.693000,  0.505100
  0.695000,  0.395500
  0.697000,  0.287200
  0.699000,  0.181000
  0.701000,  0.076600
  0.703000, -0.025600
  0.705000, -0.125000
  0.707000, -0.222300
  0.709000, -0.317200
  0.711000, -0.409200
  0.713000, -0.498100
  0.715000, -0.583600
  0.717000, -0.666100
  0.719000, -0.745200
  0.721000, -0.820600
  0.723000, -0.893000
  0.725000, -0.961800
  0.727000, -1.026600
  0.729000, -1.088100
  0.731000, -1.146000
  0.733000, -1.199900
  0.735000, -1.250000
  0.737000, -1.296900
  0.739000, -1.340000
  0.741000, -1.379200
  0.743000, -1.414600
  0.745000, -1.446400
  0.747000, -1.474600
  0.749000, -1.499300
  0.751000, -1.520600
  0.753000, -1.537900
  0.755000, -1.551400
  0.757000, -1.561800
  0.759000, -1.569100
  0.761000, -1.573200
  0.763000, -1.574100
  0.765000, -1.572000
  0.767000, -1.567000
  0.769000, -1.558900
  0.771000, -1.548200
  0.773000, -1.534600
  0.775000, -1.518300
  0.777000, -1.499700
  0.779000, -1.478500
  0.781000, -1.454900
  0.783000, -1.429000
  0.785000, -1.401000
  0.787000, -1.371600
  0.789000, -1.340200
  0.791000, -1.306800
  0.793000, -1.272000
  0.795000, -1.235400
  0.797000, -1.197600
  0.799000, -1.158300
  0.801000, -1.117200
  0.803000, -1.075200
  0.805000, -1.032600
  0.807000, -0.989000
  0.809000, -0.944400
  0.811000, -0.899300
  0.813000, -0.853600
  0.815000, -0.807400
  0.817000, -0.760500
  0.819000, -0.713200
  0.821000, -0.665600
  0.823000, -0.617900
  0.825000, -0.569900
  0.827000, -0.522100
  0.829000, -0.474500
  0.831000, -0.426800
  0.833000, -0.379300
  0.835000, -0.332300
  0.837000, -0.285500
  0.839000, -0.239000
  0.841000, -0.193000
  0.843000, -0.147600
  0.845000, -0.102500
  0.847000, -0.058100
  0.849000, -0.014400
  0.851000,  0.028600
  0.853000,  0.070500
  0.855000,  0.111600
  0.857000,  0.151900
  0.859000,  0.191300
  0.861000,  0.229600
  0.863000,  0.267000
  0.865000,  0.303400
  0.867000,  0.338700
  0.869000,  0.372900
  0.871000,  0.406000
  0.873000,  0.437800
  0.875000,  0.468200
  0.877000,  0.497400
  0.879000,  0.525300
  0.881000,  0.552100
  0.883000,  0.577400
  0.885000,  0.601600
  0.887000,  0.624400
  0.889000,  0.645900
  0.891000,  0.666000
  0.893000,  0.684600
  0.895000,  0.702000
  0.897000,  0.717900
  0.899000,  0.732300
  0.901000,  0.745300
  0.903000,  0.756900
  0.905000,  0.766900
  0.907000,  0.775300
  0.909000,  0.782200
  0.911000,  0.787600
  0.913000,  0.791500
  0.915000,  0.793900
  0.917000,  0.794900
  0.919000,  0.794500
  0.921000,  0.792700
  0.923000,  0.789300
  0.925000,  0.784500
  0.927000,  0.778200
  0.929000,  0.770400
  0.931000,  0.761300
  0.933000,  0.750800
  0.935000,  0.739000
  0.937000,  0.725900
  0.939000,  0.711400
  0.941000,  0.696000
  0.943000,  0.679400
  0.945000,  0.661300
  0.947000,  0.642100
  0.949000,  0.621900
  0.951000,  0.600700
  0.953000,  0.578400
  0.955000,  0.555100
  0.957000,  0.531200
  0.959000,  0.506300
  0.961000,  0.480500
  0.963000,  0.454100
  0.965000,  0.426800
  0.967000,  0.398700
  0.969000,  0.370200
  0.971000,  0.341700
  0.973000,  0.312800
  0.975000,  0.283300
  0.977000,  0.253400
  0.979000,  0.223200
  0.981000,  0.192900
  0.983000,  0.162500
  0.985000,  0.132000
  0.987000,  0.101500
  0.989000,  0.071200
  0.991000,  0.041100
  0.993000,  0.011300
  0.995000, -0.018200
  0.997000, -0.047700
  0.999000, -0.076900
  1.001000, -0.105500
  1.003000, -0.133600
  1.005000, -0.161400
  1.007000, -0.188600
  1.009000, -0.214900
  1.011000, -0.240800
  1.013000, -0.266100
  1.015000, -0.290500
  1.017000, -0.313900
  1.019000, -0.336300
  1.021000, -0.358100
  1.023000, -0.379200
  1.025000, -0.399300
  1.027000, -0.418600
  1.029000, -0.437100
  1.031000, -0.454400
  1.033000, -0.470600
  1.035000, -0.485900
  1.037000, -0.500400
  1.039000, -0.514100
  1.041000, -0.526400
  1.043000, -0.537600
  1.045000, -0.547900
  1.047000, -0.557200
  1.049000, -0.565400
  1.051000, -0.572800
  1.053000, -0.579300
  1.055000, -0.584500
  1.057000, -0.588900
  1.059000, -0.592500
  1.061000, -0.595100
  1.063000, -0.596700
  1.065000, -0.597500
  1.067000, -0.597300
  1.069000, -0.596300
  1.071000, -0.594400
  1.073000, -0.591900
  1.075000, -0.588700
  1.077000, -0.584600
  1.079000, -0.579800
  1.081000, -0.574200
  1.083000, -0.568100
  1.085000, -0.561300
  1.087000, -0.553900
  1.089000, -0.546000
  1.091000, -0.537500
  1.093000, -0.528500
  1.095000, -0.519000
  1.097000, -0.508900
  1.099000, -0.498300
  1.101000, -0.487400
  1.103000, -0.475900
  1.105000, -0.464100
  1.107000, -0.452000
  1.109000, -0.439600
  1.111000, -0.427100
  1.113000, -0.414300
  1.115000, -0.401200
  1.117000, -0.388000
  1.119000, -0.374600
  1.121000, -0.361100
  1.123000, -0.347500
  1.125000, -0.333800
  1.127000, -0.320100
  1.129000, -0.306400
  1.131000, -0.292800
  1.133000, -0.279000
  1.135000, -0.265200
  1.137000, -0.251600
  1.139000, -0.238200
  1.141000, -0.224900
  1.143000, -0.211800
  1.145000, -0.198900
  1.147000, -0.186000
  1.149000, -0.173300
  1.151000, -0.160800
  1.153000, -0.148600
  1.155000, -0.136700
  1.157000, -0.125000
  1.159000, -0.113500
  1.161000, -0.102400
  1.163000, -0.091600
  1.165000, -0.081200
  1.167000, -0.071100
  1.169000, -0.061400
  1.171000, -0.052000
  1.173000, -0.043000
  1.175000, -0.034300
  1.177000, -0.025900
  1.179000, -0.017900
  1.181000, -0.010300
  1.183000, -0.003000
  1.185000,  0.003800
  1.187000,  0.010200
  1.189000,  0.016300
  1.191000,  0.022100
  1.193000,  0.027500
  1.195000,  0.032600
  1.197000,  0.037400
  1.199000,  0.041900
  1.201000,  0.046000
  1.203000,  0.049600
  1.205000,  0.053000
  1.207000,  0.056100
  1.209000,  0.058900
  1.211000,  0.061300
  1.213000,  0.063500
  1.215000,  0.065400
  1.217000,  0.067200
  1.219000,  0.068600
  1.221000,  0.069800
  1.223000,  0.070700
  1.225000,  0.071400
  1.227000,  0.071900
  1.229000,  0.072300
  1.231000,  0.072300
  1.233000,  0.072300
  1.235000,  0.072200
  1.237000,  0.071900
  1.239000,  0.071300
  1.241000,  0.070500
  1.243000,  0.069600
  1.245000,  0.068700
  1.247000,  0.067800
  1.249000,  0.066700
  1.251000,  0.065600
  1.253000,  0.064300
  1.255000,  0.062700
  1.257000,  0.060900
  1.259000,  0.059100
  1.261000,  0.057200
  1.263000,  0.055300
  1.265000,  0.053400
  1.267000,  0.051300
  1.269000,  0.049000
  1.271000,  0.046700
  1.273000,  0.044200
  1.275000,  0.041700
  1.277000,  0.039100
  1.279000,  0.036400
  1.281000,  0.033500
  1.283000,  0.030700
  1.285000,  0.027700
  1.287000,  0.024600
  1.289000,  0.021400
  1.291000,  0.018200
  1.293000,  0.014900
  1.295000,  0.011500
  1.297000,  0.008100
  1.299000,  0.004600
  1.301000,  0.001100
  1.303000, -0.002500
  1.305000, -0.006200
  1.307000, -0.009900
  1.309000, -0.013600
  1.311000, -0.017300
  1.313000, -0.021000
  1.315000, -0.024700
  1.317000, -0.028400
  1.319000, -0.031900
  1.321000, -0.035400
  1.323000, -0.038900
  1.325000, -0.042400
  1.327000, -0.045900
  1.329000, -0.049100
  1.331000, -0.052100
  1.333000, -0.055100
  1.335000, -0.057900
  1.337000, -0.060700
  1.339000, -0.063200
  1.341000, -0.065500
  1.343000, -0.067600
  1.345000, -0.069500
  1.347000, -0.071100
  1.349000, -0.072600
  1.351000, -0.073800
  1.353000, -0.074800
  1.355000, -0.075600
  1.357000, -0.076100
  1.359000, -0.076500
  1.361000, -0.076600
  1.363000, -0.076500
  1.365000, -0.076200
  1.367000, -0.075600
  1.369000, -0.075000
  1.371000, -0.074100
  1.373000, -0.072800
  1.375000, -0.071300
  1.377000, -0.069500
  1.379000, -0.067800
  1.381000, -0.065900
  1.383000, -0.063900
  1.385000, -0.061800
  1.387000, -0.059500
  1.389000, -0.057300
  1.391000, -0.054900
  1.393000, -0.052600
  1.395000, -0.050600
  1.397000, -0.048900
  1.399000, -0.047600
