# z (nm)   (kJ/mol)
  0.281000, 10.878100
  0.283000, 10.382000
  0.285000,  9.852100
  0.287000,  9.308600
  0.289000,  8.728100
  0.291000,  8.180200
  0.293000,  7.653700
  0.295000,  7.076600
  0.297000,  6.487300
  0.299000,  5.911000
  0.301000,  5.339700
  0.303000,  4.739800
  0.305000,  4.139700
  0.307000,  3.545600
  0.309000,  2.949900
  0.311000,  2.353000
  0.313000,  1.753100
  0.315000,  1.153900
  0.317000,  0.559700
  0.319000, -0.026000
  0.321000, -0.610500
  0.323000, -1.195100
  0.325000, -1.766300
  0.327000, -2.324500
  0.329000, -2.876100
  0.331000, -3.414100
  0.333000, -3.936100
  0.335000, -4.450900
  0.337000, -4.957500
  0.339000, -5.448700
  0.341000, -5.924100
  0.343000, -6.390900
  0.345000, -6.843000
  0.347000, -7.280000
  0.349000, -7.703300
  0.351000, -8.110500
  0.353000, -8.502400
  0.355000, -8.877900
  0.357000, -9.238200
  0.359000, -9.581300
  0.361000, -9.906800
  0.363000,-10.214500
  0.365000,-10.504400
  0.367000,-10.776900
  0.369000,-11.032200
  0.371000,-11.270500
  0.373000,-11.491700
  0.375000,-11.695000
  0.377000,-11.880400
  0.379000,-12.048300
  0.381000,-12.198600
  0.383000,-12.332000
  0.385000,-12.447100
  0.387000,-12.545500
  0.389000,-12.628500
  0.391000,-12.693700
  0.393000,-12.741400
  0.395000,-12.774400
  0.397000,-12.793500
  0.399000,-12.797000
  0.401000,-12.786300
  0.403000,-12.762900
  0.405000,-12.726700
  0.407000,-12.676600
  0.409000,-12.613500
  0.411000,-12.540800
  0.413000,-12.458500
  0.415000,-12.366700
  0.417000,-12.265500
  0.419000,-12.154000
  0.421000,-12.035600
  0.423000,-11.911400
  0.425000,-11.780900
  0.427000,-11.643200
  0.429000,-11.499400
  0.431000,-11.352100
  0.433000,-11.201100
  0.435000,-11.047400
  0.437000,-10.892100
  0.439000,-10.734000
  0.441000,-10.574300
  0.443000,-10.414000
  0.445000,-10.252200
  0.447000,-10.090000
  0.449000, -9.928800
  0.451000, -9.768500
  0.453000, -9.608500
  0.455000, -9.449400
  0.457000, -9.291800
  0.459000, -9.136000
  0.461000, -8.982100
  0.463000, -8.830100
  0.465000, -8.680500
  0.467000, -8.533300
  0.469000, -8.388300
  0.471000, -8.245700
  0.473000, -8.105600
  0.475000, -7.968300
  0.477000, -7.834000
  0.479000, -7.702300
  0.481000, -7.572800
  0.483000, -7.446000
  0.485000, -7.322200
  0.487000, -7.200500
  0.489000, -7.081200
  0.491000, -6.964600
  0.493000, -6.850100
  0.495000, -6.738300
  0.497000, -6.628800
  0.499000, -6.521500
  0.501000, -6.415900
  0.503000, -6.312000
  0.505000, -6.210200
  0.507000, -6.109900
  0.509000, -6.011100
  0.511000, -5.913400
  0.513000, -5.817200
  0.515000, -5.722300
  0.517000, -5.628400
  0.519000, -5.535800
  0.521000, -5.444500
  0.523000, -5.353800
  0.525000, -5.263700
  0.527000, -5.174000
  0.529000, -5.084800
  0.531000, -4.996000
  0.533000, -4.907700
  0.535000, -4.819600
  0.537000, -4.731400
  0.539000, -4.643400
  0.541000, -4.555500
  0.543000, -4.467700
  0.545000, -4.379800
  0.547000, -4.291800
  0.549000, -4.203700
  0.551000, -4.115300
  0.553000, -4.026900
  0.555000, -3.938700
  0.557000, -3.850300
  0.559000, -3.761600
  0.561000, -3.672400
  0.563000, -3.583000
  0.565000, -3.494000
  0.567000, -3.404900
  0.569000, -3.316100
  0.571000, -3.227200
  0.573000, -3.138200
  0.575000, -3.049700
  0.577000, -2.961400
  0.579000, -2.873900
  0.581000, -2.786800
  0.583000, -2.700600
  0.585000, -2.615700
  0.587000, -2.531600
  0.589000, -2.448600
  0.591000, -2.367000
  0.593000, -2.286800
  0.595000, -2.208300
  0.597000, -2.131200
  0.599000, -2.056100
  0.601000, -1.983500
  0.603000, -1.913100
  0.605000, -1.845200
  0.607000, -1.780100
  0.609000, -1.717500
  0.611000, -1.657700
  0.613000, -1.600600
  0.615000, -1.546200
  0.617000, -1.495200
  0.619000, -1.447500
  0.621000, -1.403400
  0.623000, -1.363200
  0.625000, -1.326200
  0.627000, -1.292200
  0.629000, -1.261900
  0.631000, -1.235400
  0.633000, -1.212400
  0.635000, -1.192400
  0.637000, -1.176500
  0.639000, -1.164100
  0.641000, -1.155300
  0.643000, -1.149500
  0.645000, -1.146700
  0.647000, -1.147500
  0.649000, -1.151100
  0.651000, -1.157900
  0.653000, -1.167000
  0.655000, -1.178200
  0.657000, -1.192100
  0.659000, -1.208300
  0.661000, -1.226100
  0.663000, -1.245400
  0.665000, -1.267100
  0.667000, -1.291200
  0.669000, -1.316400
  0.671000, -1.342300
  0.673000, -1.368400
  0.675000, -1.394900
  0.677000, -1.422600
  0.679000, -1.450700
  0.681000, -1.479300
  0.683000, -1.507900
  0.685000, -1.535900
  0.687000, -1.563600
  0.689000, -1.590500
  0.691000, -1.617100
  0.693000, -1.643500
  0.695000, -1.668200
  0.697000, -1.691600
  0.699000, -1.714300
  0.701000, -1.735600
  0.703000, -1.755400
  0.705000, -1.773800
  0.707000, -1.790900
  0.709000, -1.806100
  0.711000, -1.819500
  0.713000, -1.831100
  0.715000, -1.840900
  0.717000, -1.848800
  0.719000, -1.854500
  0.721000, -1.858200
  0.723000, -1.860300
  0.725000, -1.860500
  0.727000, -1.858600
  0.729000, -1.854800
  0.731000, -1.849300
  0.733000, -1.842000
  0.735000, -1.833000
  0.737000, -1.822300
  0.739000, -1.810000
  0.741000, -1.796000
  0.743000, -1.780400
  0.745000, -1.763300
  0.747000, -1.744700
  0.749000, -1.724600
  0.751000, -1.703400
  0.753000, -1.681000
  0.755000, -1.657400
  0.757000, -1.632700
  0.759000, -1.606600
  0.761000, -1.579900
  0.763000, -1.552600
  0.765000, -1.524400
  0.767000, -1.495500
  0.769000, -1.466100
  0.771000, -1.436000
  0.773000, -1.405600
  0.775000, -1.375000
  0.777000, -1.344000
  0.779000, -1.312700
  0.781000, -1.281300
  0.783000, -1.249900
  0.785000, -1.218300
  0.787000, -1.186600
  0.789000, -1.155200
  0.791000, -1.123900
  0.793000, -1.092600
  0.795000, -1.061500
  0.797000, -1.030600
  0.799000, -1.000200
  0.801000, -0.970100
  0.803000, -0.940200
  0.805000, -0.911000
  0.807000, -0.882200
  0.809000, -0.853800
  0.811000, -0.825900
  0.813000, -0.798500
  0.815000, -0.771400
  0.817000, -0.744900
  0.819000, -0.718800
  0.821000, -0.693200
  0.823000, -0.668200
  0.825000, -0.643800
  0.827000, -0.620200
  0.829000, -0.597300
  0.831000, -0.574900
  0.833000, -0.553100
  0.835000, -0.531700
  0.837000, -0.511000
  0.839000, -0.490800
  0.841000, -0.471100
  0.843000, -0.452200
  0.845000, -0.433900
  0.847000, -0.416000
  0.849000, -0.398700
  0.851000, -0.381900
  0.853000, -0.365400
  0.855000, -0.349300
  0.857000, -0.333900
  0.859000, -0.319100
  0.861000, -0.304600
  0.863000, -0.290700
  0.865000, -0.277100
  0.867000, -0.264000
  0.869000, -0.251400
  0.871000, -0.239300
  0.873000, -0.227600
  0.875000, -0.216300
  0.877000, -0.205400
  0.879000, -0.195000
  0.881000, -0.185000
  0.883000, -0.175500
  0.885000, -0.166300
  0.887000, -0.157400
  0.889000, -0.148900
  0.891000, -0.140900
  0.893000, -0.133400
  0.895000, -0.126200
  0.897000, -0.119500
  0.899000, -0.113100
  0.901000, -0.107200
  0.903000, -0.101700
  0.905000, -0.096600
  0.907000, -0.092000
  0.909000, -0.087800
  0.911000, -0.084000
  0.913000, -0.080400
  0.915000, -0.077300
  0.917000, -0.074700
  0.919000, -0.072600
  0.921000, -0.070700
  0.923000, -0.069400
  0.925000, -0.068400
  0.927000, -0.067700
  0.929000, -0.067500
  0.931000, -0.067500
  0.933000, -0.067900
  0.935000, -0.068700
  0.937000, -0.069900
  0.939000, -0.071500
  0.941000, -0.073400
  0.943000, -0.075700
  0.945000, -0.078200
  0.947000, -0.081100
  0.949000, -0.084100
  0.951000, -0.087300
  0.953000, -0.090700
  0.955000, -0.094400
  0.957000, -0.098300
  0.959000, -0.102300
  0.961000, -0.106600
  0.963000, -0.111100
  0.965000, -0.115700
  0.967000, -0.120300
  0.969000, -0.125000
  0.971000, -0.129900
  0.973000, -0.134900
  0.975000, -0.139800
  0.977000, -0.144700
  0.979000, -0.149600
  0.981000, -0.154500
  0.983000, -0.159300
  0.985000, -0.164100
  0.987000, -0.168900
  0.989000, -0.173400
  0.991000, -0.177900
  0.993000, -0.182300
  0.995000, -0.186400
  0.997000, -0.190600
  0.999000, -0.194500
  1.001000, -0.198100
  1.003000, -0.201500
  1.005000, -0.204700
  1.007000, -0.207700
  1.009000, -0.210400
  1.011000, -0.213100
  1.013000, -0.215500
  1.015000, -0.217600
  1.017000, -0.219500
  1.019000, -0.221100
  1.021000, -0.222600
  1.023000, -0.223900
  1.025000, -0.224900
  1.027000, -0.225600
  1.029000, -0.226000
  1.031000, -0.226200
  1.033000, -0.226000
  1.035000, -0.225700
  1.037000, -0.225300
  1.039000, -0.224600
  1.041000, -0.223700
  1.043000, -0.222600
  1.045000, -0.221300
  1.047000, -0.219800
  1.049000, -0.217900
  1.051000, -0.216000
  1.053000, -0.213900
  1.055000, -0.211700
  1.057000, -0.209300
  1.059000, -0.206600
  1.061000, -0.203800
  1.063000, -0.200900
  1.065000, -0.197900
  1.067000, -0.194800
  1.069000, -0.191500
  1.071000, -0.188100
  1.073000, -0.184400
  1.075000, -0.180700
  1.077000, -0.177100
  1.079000, -0.173400
  1.081000, -0.169500
  1.083000, -0.165600
  1.085000, -0.161700
  1.087000, -0.157800
  1.089000, -0.153900
  1.091000, -0.149800
  1.093000, -0.145700
  1.095000, -0.141600
  1.097000, -0.137600
  1.099000, -0.133500
  1.101000, -0.129200
  1.103000, -0.125000
  1.105000, -0.120800
  1.107000, -0.116700
  1.109000, -0.112500
  1.111000, -0.108400
  1.113000, -0.104300
  1.115000, -0.100300
  1.117000, -0.096300
  1.119000, -0.092300
  1.121000, -0.088400
  1.123000, -0.084400
  1.125000, -0.080500
  1.127000, -0.076700
  1.129000, -0.072900
  1.131000, -0.069300
  1.133000, -0.065700
  1.135000, -0.062100
  1.137000, -0.058600
  1.139000, -0.055100
  1.141000, -0.051900
  1.143000, -0.048600
  1.145000, -0.045300
  1.147000, -0.042200
  1.149000, -0.039100
  1.151000, -0.036100
  1.153000, -0.033100
  1.155000, -0.030300
  1.157000, -0.027500
  1.159000, -0.024800
  1.161000, -0.022100
  1.163000, -0.019500
  1.165000, -0.016900
  1.167000, -0.014400
  1.169000, -0.012000
  1.171000, -0.009700
  1.173000, -0.007400
  1.175000, -0.005000
  1.177000, -0.002800
  1.179000, -0.000600
  1.181000,  0.001500
  1.183000,  0.003400
  1.185000,  0.005400
  1.187000,  0.007400
  1.189000,  0.009300
  1.191000,  0.011000
  1.193000,  0.012800
  1.195000,  0.014500
  1.197000,  0.016100
  1.199000,  0.017600
  1.201000,  0.019100
  1.203000,  0.020500
  1.205000,  0.021800
  1.207000,  0.023100
  1.209000,  0.024400
  1.211000,  0.025600
  1.213000,  0.026600
  1.215000,  0.027500
  1.217000,  0.028400
  1.219000,  0.029100
  1.221000,  0.029800
  1.223000,  0.030400
  1.225000,  0.030900
  1.227000,  0.031300
  1.229000,  0.031600
  1.231000,  0.031800
  1.233000,  0.032000
  1.235000,  0.032000
  1.237000,  0.032000
  1.239000,  0.031900
  1.241000,  0.031600
  1.243000,  0.031200
  1.245000,  0.030800
  1.247000,  0.030400
  1.249000,  0.029800
  1.251000,  0.029000
  1.253000,  0.028200
  1.255000,  0.027300
  1.257000,  0.026200
  1.259000,  0.025100
  1.261000,  0.024100
  1.263000,  0.023000
  1.265000,  0.021900
  1.267000,  0.020500
  1.269000,  0.019200
  1.271000,  0.017700
  1.273000,  0.016200
  1.275000,  0.014700
  1.277000,  0.013100
  1.279000,  0.011600
  1.281000,  0.010100
  1.283000,  0.008500
  1.285000,  0.006900
  1.287000,  0.005200
  1.289000,  0.003500
  1.291000,  0.001600
  1.293000, -0.000200
  1.295000, -0.002000
  1.297000, -0.003800
  1.299000, -0.005600
  1.301000, -0.007400
  1.303000, -0.009100
  1.305000, -0.010800
  1.307000, -0.012400
  1.309000, -0.014100
  1.311000, -0.015600
  1.313000, -0.017100
  1.315000, -0.018700
  1.317000, -0.020400
  1.319000, -0.022100
  1.321000, -0.023500
  1.323000, -0.024800
  1.325000, -0.026200
  1.327000, -0.027500
  1.329000, -0.028600
  1.331000, -0.029600
  1.333000, -0.030500
  1.335000, -0.031300
  1.337000, -0.032100
  1.339000, -0.032800
  1.341000, -0.033300
  1.343000, -0.033800
  1.345000, -0.034100
  1.347000, -0.034300
  1.349000, -0.034200
  1.351000, -0.034100
  1.353000, -0.033800
  1.355000, -0.033300
  1.357000, -0.032600
  1.359000, -0.031800
  1.361000, -0.030900
  1.363000, -0.029700
  1.365000, -0.028500
  1.367000, -0.027300
  1.369000, -0.025900
  1.371000, -0.024400
  1.373000, -0.022600
  1.375000, -0.020600
  1.377000, -0.018600
  1.379000, -0.016500
  1.381000, -0.014400
  1.383000, -0.012100
  1.385000, -0.009700
  1.387000, -0.007600
  1.389000, -0.005500
  1.391000, -0.003300
  1.393000, -0.001300
  1.395000,  0.000500
  1.397000,  0.002100
  1.399000,  0.003100
