# z (nm)   (kJ/mol)
  0.2630    8.64510
  0.2650    8.01210
  0.2670    7.39380
  0.2690    6.79750
  0.2710    6.19410
  0.2730    5.59520
  0.2750    4.99610
  0.2770    4.36220
  0.2790    3.71280
  0.2810    3.05540
  0.2830    2.40010
  0.2850    1.74050
  0.2870    1.08090
  0.2890    0.42850
  0.2910   -0.21380
  0.2930   -0.84960
  0.2950   -1.47990
  0.2970   -2.10400
  0.2990   -2.72870
  0.3010   -3.35160
  0.3030   -3.97080
  0.3050   -4.58150
  0.3070   -5.18620
  0.3090   -5.77920
  0.3110   -6.36050
  0.3130   -6.93140
  0.3150   -7.48530
  0.3170   -8.02540
  0.3190   -8.55260
  0.3210   -9.06270
  0.3230   -9.55730
  0.3250  -10.03770
  0.3270  -10.50180
  0.3290  -10.95080
  0.3310  -11.38330
  0.3330  -11.79720
  0.3350  -12.19340
  0.3370  -12.57260
  0.3390  -12.93460
  0.3410  -13.27930
  0.3430  -13.60410
  0.3450  -13.90960
  0.3470  -14.19670
  0.3490  -14.46480
  0.3510  -14.71390
  0.3530  -14.94360
  0.3550  -15.15370
  0.3570  -15.34370
  0.3590  -15.51400
  0.3610  -15.66470
  0.3630  -15.79670
  0.3650  -15.90950
  0.3670  -16.00300
  0.3690  -16.07780
  0.3710  -16.13380
  0.3730  -16.17270
  0.3750  -16.19560
  0.3770  -16.20150
  0.3790  -16.19020
  0.3810  -16.16190
  0.3830  -16.11820
  0.3850  -16.06000
  0.3870  -15.98850
  0.3890  -15.90620
  0.3910  -15.81160
  0.3930  -15.70450
  0.3950  -15.58570
  0.3970  -15.45620
  0.3990  -15.31830
  0.4010  -15.17080
  0.4030  -15.01530
  0.4050  -14.85220
  0.4070  -14.68250
  0.4090  -14.50730
  0.4110  -14.32690
  0.4130  -14.14260
  0.4150  -13.95430
  0.4170  -13.76210
  0.4190  -13.56710
  0.4210  -13.36970
  0.4230  -13.17050
  0.4250  -12.97010
  0.4270  -12.76910
  0.4290  -12.56800
  0.4310  -12.36710
  0.4330  -12.16680
  0.4350  -11.96730
  0.4370  -11.76910
  0.4390  -11.57240
  0.4410  -11.37740
  0.4430  -11.18460
  0.4450  -10.99400
  0.4470  -10.80580
  0.4490  -10.62040
  0.4510  -10.43810
  0.4530  -10.25890
  0.4550  -10.08240
  0.4570   -9.90900
  0.4590   -9.73880
  0.4610   -9.57220
  0.4630   -9.40920
  0.4650   -9.24940
  0.4670   -9.09240
  0.4690   -8.93810
  0.4710   -8.78720
  0.4730   -8.63920
  0.4750   -8.49440
  0.4770   -8.35300
  0.4790   -8.21400
  0.4810   -8.07730
  0.4830   -7.94350
  0.4850   -7.81200
  0.4870   -7.68250
  0.4890   -7.55480
  0.4910   -7.42880
  0.4930   -7.30470
  0.4950   -7.18230
  0.4970   -7.06110
  0.4990   -6.94060
  0.5010   -6.82100
  0.5030   -6.70220
  0.5050   -6.58400
  0.5070   -6.46610
  0.5090   -6.34830
  0.5110   -6.23040
  0.5130   -6.11200
  0.5150   -5.99340
  0.5170   -5.87440
  0.5190   -5.75440
  0.5210   -5.63350
  0.5230   -5.51160
  0.5250   -5.38850
  0.5270   -5.26400
  0.5290   -5.13810
  0.5310   -5.01070
  0.5330   -4.88180
  0.5350   -4.75140
  0.5370   -4.61930
  0.5390   -4.48520
  0.5410   -4.34970
  0.5430   -4.21280
  0.5450   -4.07420
  0.5470   -3.93370
  0.5490   -3.79120
  0.5510   -3.64720
  0.5530   -3.50250
  0.5550   -3.35610
  0.5570   -3.20790
  0.5590   -3.05930
  0.5610   -2.90940
  0.5630   -2.75890
  0.5650   -2.60740
  0.5670   -2.45550
  0.5690   -2.30420
  0.5710   -2.15330
  0.5730   -2.00310
  0.5750   -1.85270
  0.5770   -1.70230
  0.5790   -1.55290
  0.5810   -1.40610
  0.5830   -1.26070
  0.5850   -1.11760
  0.5870   -0.97910
  0.5890   -0.84340
  0.5910   -0.71020
  0.5930   -0.58080
  0.5950   -0.45460
  0.5970   -0.33260
  0.5990   -0.21450
  0.6010   -0.10040
  0.6030    0.00950
  0.6050    0.11440
  0.6070    0.21330
  0.6090    0.30770
  0.6110    0.39620
  0.6130    0.47890
  0.6150    0.55610
  0.6170    0.62700
  0.6190    0.69150
  0.6210    0.74990
  0.6230    0.80200
  0.6250    0.84780
  0.6270    0.88760
  0.6290    0.92120
  0.6310    0.94880
  0.6330    0.97040
  0.6350    0.98570
  0.6370    0.99540
  0.6390    0.99950
  0.6410    0.99740
  0.6430    0.98980
  0.6450    0.97720
  0.6470    0.96020
  0.6490    0.93850
  0.6510    0.91130
  0.6530    0.88000
  0.6550    0.84460
  0.6570    0.80570
  0.6590    0.76320
  0.6610    0.71680
  0.6630    0.66830
  0.6650    0.61710
  0.6670    0.56270
  0.6690    0.50730
  0.6710    0.45070
  0.6730    0.39190
  0.6750    0.33240
  0.6770    0.27190
  0.6790    0.21050
  0.6810    0.14890
  0.6830    0.08610
  0.6850    0.02230
  0.6870   -0.04130
  0.6890   -0.10430
  0.6910   -0.16580
  0.6930   -0.22580
  0.6950   -0.28530
  0.6970   -0.34370
  0.6990   -0.40080
  0.7010   -0.45590
  0.7030   -0.50960
  0.7050   -0.56170
  0.7070   -0.61170
  0.7090   -0.66040
  0.7110   -0.70700
  0.7130   -0.75150
  0.7150   -0.79370
  0.7170   -0.83310
  0.7190   -0.87070
  0.7210   -0.90630
  0.7230   -0.93940
  0.7250   -0.97010
  0.7270   -0.99860
  0.7290   -1.02500
  0.7310   -1.04910
  0.7330   -1.07100
  0.7350   -1.09050
  0.7370   -1.10790
  0.7390   -1.12320
  0.7410   -1.13660
  0.7430   -1.14820
  0.7450   -1.15780
  0.7470   -1.16550
  0.7490   -1.17120
  0.7510   -1.17500
  0.7530   -1.17700
  0.7550   -1.17750
  0.7570   -1.17660
  0.7590   -1.17440
  0.7610   -1.17060
  0.7630   -1.16550
  0.7650   -1.15910
  0.7670   -1.15160
  0.7690   -1.14300
  0.7710   -1.13360
  0.7730   -1.12290
  0.7750   -1.11120
  0.7770   -1.09860
  0.7790   -1.08540
  0.7810   -1.07120
  0.7830   -1.05650
  0.7850   -1.04120
  0.7870   -1.02500
  0.7890   -1.00810
  0.7910   -0.99060
  0.7930   -0.97250
  0.7950   -0.95380
  0.7970   -0.93470
  0.7990   -0.91510
  0.8010   -0.89500
  0.8030   -0.87470
  0.8050   -0.85390
  0.8070   -0.83260
  0.8090   -0.81100
  0.8110   -0.78910
  0.8130   -0.76690
  0.8150   -0.74430
  0.8170   -0.72120
  0.8190   -0.69780
  0.8210   -0.67410
  0.8230   -0.65000
  0.8250   -0.62580
  0.8270   -0.60130
  0.8290   -0.57650
  0.8310   -0.55140
  0.8330   -0.52600
  0.8350   -0.50050
  0.8370   -0.47490
  0.8390   -0.44920
  0.8410   -0.42320
  0.8430   -0.39710
  0.8450   -0.37070
  0.8470   -0.34420
  0.8490   -0.31780
  0.8510   -0.29140
  0.8530   -0.26500
  0.8550   -0.23860
  0.8570   -0.21230
  0.8590   -0.18590
  0.8610   -0.15970
  0.8630   -0.13380
  0.8650   -0.10800
  0.8670   -0.08250
  0.8690   -0.05730
  0.8710   -0.03240
  0.8730   -0.00780
  0.8750    0.01640
  0.8770    0.04000
  0.8790    0.06310
  0.8810    0.08600
  0.8830    0.10810
  0.8850    0.12960
  0.8870    0.15030
  0.8890    0.17030
  0.8910    0.18970
  0.8930    0.20850
  0.8950    0.22640
  0.8970    0.24360
  0.8990    0.25990
  0.9010    0.27520
  0.9030    0.28980
  0.9050    0.30340
  0.9070    0.31610
  0.9090    0.32780
  0.9110    0.33850
  0.9130    0.34830
  0.9150    0.35710
  0.9170    0.36490
  0.9190    0.37180
  0.9210    0.37760
  0.9230    0.38250
  0.9250    0.38650
  0.9270    0.38940
  0.9290    0.39130
  0.9310    0.39230
  0.9330    0.39250
  0.9350    0.39190
  0.9370    0.39040
  0.9390    0.38790
  0.9410    0.38450
  0.9430    0.38030
  0.9450    0.37560
  0.9470    0.36990
  0.9490    0.36340
  0.9510    0.35610
  0.9530    0.34800
  0.9550    0.33970
  0.9570    0.33070
  0.9590    0.32120
  0.9610    0.31110
  0.9630    0.30060
  0.9650    0.28940
  0.9670    0.27770
  0.9690    0.26560
  0.9710    0.25310
  0.9730    0.24030
  0.9750    0.22740
  0.9770    0.21420
  0.9790    0.20060
  0.9810    0.18680
  0.9830    0.17280
  0.9850    0.15850
  0.9870    0.14430
  0.9890    0.13000
  0.9910    0.11550
  0.9930    0.10110
  0.9950    0.08670
  0.9970    0.07210
  0.9990    0.05770
  1.0010    0.04340
  1.0030    0.02900
  1.0050    0.01450
  1.0070    0.00040
  1.0090   -0.01330
  1.0110   -0.02700
  1.0130   -0.04060
  1.0150   -0.05380
  1.0170   -0.06670
  1.0190   -0.07940
  1.0210   -0.09200
  1.0230   -0.10440
  1.0250   -0.11630
  1.0270   -0.12780
  1.0290   -0.13880
  1.0310   -0.14950
  1.0330   -0.15990
  1.0350   -0.16990
  1.0370   -0.17950
  1.0390   -0.18860
  1.0410   -0.19730
  1.0430   -0.20560
  1.0450   -0.21350
  1.0470   -0.22100
  1.0490   -0.22810
  1.0510   -0.23450
  1.0530   -0.24050
  1.0550   -0.24610
  1.0570   -0.25110
  1.0590   -0.25560
  1.0610   -0.25980
  1.0630   -0.26350
  1.0650   -0.26660
  1.0670   -0.26930
  1.0690   -0.27170
  1.0710   -0.27380
  1.0730   -0.27530
  1.0750   -0.27640
  1.0770   -0.27700
  1.0790   -0.27710
  1.0810   -0.27700
  1.0830   -0.27640
  1.0850   -0.27530
  1.0870   -0.27400
  1.0890   -0.27240
  1.0910   -0.27040
  1.0930   -0.26790
  1.0950   -0.26500
  1.0970   -0.26210
  1.0990   -0.25880
  1.1010   -0.25510
  1.1030   -0.25120
  1.1050   -0.24710
  1.1070   -0.24280
  1.1090   -0.23820
  1.1110   -0.23360
  1.1130   -0.22870
  1.1150   -0.22360
  1.1170   -0.21830
  1.1190   -0.21280
  1.1210   -0.20720
  1.1230   -0.20150
  1.1250   -0.19580
  1.1270   -0.18990
  1.1290   -0.18390
  1.1310   -0.17800
  1.1330   -0.17200
  1.1350   -0.16600
  1.1370   -0.16000
  1.1390   -0.15390
  1.1410   -0.14790
  1.1430   -0.14190
  1.1450   -0.13590
  1.1470   -0.12980
  1.1490   -0.12390
  1.1510   -0.11810
  1.1530   -0.11230
  1.1550   -0.10650
  1.1570   -0.10080
  1.1590   -0.09520
  1.1610   -0.08970
  1.1630   -0.08430
  1.1650   -0.07890
  1.1670   -0.07370
  1.1690   -0.06860
  1.1710   -0.06350
  1.1730   -0.05870
  1.1750   -0.05390
  1.1770   -0.04930
  1.1790   -0.04470
  1.1810   -0.04020
  1.1830   -0.03590
  1.1850   -0.03170
  1.1870   -0.02760
  1.1890   -0.02360
  1.1910   -0.01960
  1.1930   -0.01580
  1.1950   -0.01220
  1.1970   -0.00860
  1.1990   -0.00520
  1.2010   -0.00180
  1.2030    0.00140
  1.2050    0.00440
  1.2070    0.00750
  1.2090    0.01040
  1.2110    0.01320
  1.2130    0.01590
  1.2150    0.01850
  1.2170    0.02100
  1.2190    0.02350
  1.2210    0.02580
  1.2230    0.02790
  1.2250    0.03000
  1.2270    0.03200
  1.2290    0.03380
  1.2310    0.03540
  1.2330    0.03700
  1.2350    0.03840
  1.2370    0.03970
  1.2390    0.04080
  1.2410    0.04180
  1.2430    0.04260
  1.2450    0.04320
  1.2470    0.04370
  1.2490    0.04400
  1.2510    0.04420
  1.2530    0.04420
  1.2550    0.04410
  1.2570    0.04380
  1.2590    0.04330
  1.2610    0.04260
  1.2630    0.04180
  1.2650    0.04070
  1.2670    0.03960
  1.2690    0.03830
  1.2710    0.03680
  1.2730    0.03520
  1.2750    0.03350
  1.2770    0.03150
  1.2790    0.02940
  1.2810    0.02700
  1.2830    0.02460
  1.2850    0.02220
  1.2870    0.01970
  1.2890    0.01700
  1.2910    0.01430
  1.2930    0.01150
  1.2950    0.00860
  1.2970    0.00580
  1.2990    0.00290
  1.3010   -0.00010
  1.3030   -0.00300
  1.3050   -0.00580
  1.3070   -0.00870
  1.3090   -0.01170
  1.3110   -0.01450
  1.3130   -0.01730
  1.3150   -0.01990
  1.3170   -0.02260
  1.3190   -0.02510
  1.3210   -0.02760
  1.3230   -0.02990
  1.3250   -0.03200
  1.3270   -0.03400
  1.3290   -0.03590
  1.3310   -0.03760
  1.3330   -0.03920
  1.3350   -0.04050
  1.3370   -0.04170
  1.3390   -0.04270
  1.3410   -0.04350
  1.3430   -0.04400
  1.3450   -0.04430
  1.3470   -0.04440
  1.3490   -0.04440
  1.3510   -0.04400
  1.3530   -0.04350
  1.3550   -0.04290
  1.3570   -0.04210
  1.3590   -0.04110
  1.3610   -0.04010
  1.3630   -0.03890
  1.3650   -0.03760
  1.3670   -0.03610
  1.3690   -0.03450
  1.3710   -0.03300
  1.3730   -0.03140
  1.3750   -0.02950
  1.3770   -0.02750
  1.3790   -0.02530
  1.3810   -0.02340
  1.3830   -0.02150
  1.3850   -0.01950
  1.3870   -0.01750
  1.3890   -0.01580
  1.3910   -0.01440
  1.3930   -0.01290
  1.3950   -0.01170
  1.3970   -0.01090
  1.3990   -0.01030
