# z (nm)   (kJ/mol)
  0.235000, 10.029600
  0.247000,  7.762000
  0.249000,  7.208300
  0.251000,  6.601800
  0.253000,  5.980000
  0.255000,  5.357500
  0.257000,  4.744500
  0.259000,  4.130400
  0.261000,  3.483500
  0.263000,  2.821400
  0.265000,  2.161800
  0.267000,  1.510700
  0.269000,  0.867100
  0.271000,  0.213500
  0.273000, -0.443900
  0.275000, -1.087800
  0.277000, -1.728100
  0.279000, -2.364900
  0.281000, -2.993200
  0.283000, -3.618700
  0.285000, -4.246100
  0.287000, -4.864300
  0.289000, -5.470300
  0.291000, -6.068700
  0.293000, -6.648600
  0.295000, -7.216200
  0.297000, -7.776000
  0.299000, -8.320400
  0.301000, -8.852700
  0.303000, -9.370800
  0.305000, -9.872300
  0.307000,-10.359100
  0.309000,-10.830300
  0.311000,-11.284600
  0.313000,-11.720100
  0.315000,-12.136700
  0.317000,-12.536600
  0.319000,-12.919600
  0.321000,-13.285100
  0.323000,-13.632200
  0.325000,-13.959500
  0.327000,-14.266100
  0.329000,-14.552700
  0.331000,-14.819400
  0.333000,-15.066500
  0.335000,-15.292900
  0.337000,-15.498800
  0.339000,-15.684600
  0.341000,-15.849200
  0.343000,-15.993800
  0.345000,-16.118700
  0.347000,-16.222800
  0.349000,-16.306800
  0.351000,-16.371900
  0.353000,-16.418200
  0.355000,-16.445600
  0.357000,-16.454700
  0.359000,-16.446300
  0.361000,-16.420200
  0.363000,-16.377900
  0.365000,-16.321200
  0.367000,-16.250100
  0.369000,-16.166400
  0.371000,-16.069000
  0.373000,-15.957000
  0.375000,-15.832600
  0.377000,-15.696000
  0.379000,-15.547700
  0.381000,-15.390000
  0.383000,-15.223900
  0.385000,-15.050000
  0.387000,-14.868500
  0.389000,-14.679000
  0.391000,-14.482700
  0.393000,-14.280200
  0.395000,-14.072700
  0.397000,-13.860800
  0.399000,-13.644900
  0.401000,-13.425800
  0.403000,-13.203600
  0.405000,-12.979100
  0.407000,-12.752300
  0.409000,-12.523500
  0.411000,-12.293600
  0.413000,-12.063200
  0.415000,-11.832700
  0.417000,-11.601900
  0.419000,-11.371200
  0.421000,-11.141100
  0.423000,-10.911800
  0.425000,-10.683600
  0.427000,-10.456600
  0.429000,-10.230000
  0.431000,-10.004400
  0.433000, -9.781000
  0.435000, -9.560600
  0.437000, -9.341400
  0.439000, -9.122400
  0.441000, -8.906000
  0.443000, -8.692200
  0.445000, -8.480200
  0.447000, -8.270300
  0.449000, -8.062700
  0.451000, -7.857000
  0.453000, -7.653500
  0.455000, -7.452500
  0.457000, -7.253700
  0.459000, -7.057200
  0.461000, -6.862700
  0.463000, -6.670600
  0.465000, -6.480500
  0.467000, -6.292500
  0.469000, -6.107100
  0.471000, -5.923800
  0.473000, -5.743100
  0.475000, -5.564800
  0.477000, -5.388900
  0.479000, -5.215300
  0.481000, -5.043800
  0.483000, -4.874800
  0.485000, -4.708100
  0.487000, -4.543600
  0.489000, -4.381800
  0.491000, -4.222200
  0.493000, -4.064900
  0.495000, -3.910600
  0.497000, -3.759200
  0.499000, -3.610100
  0.501000, -3.463400
  0.503000, -3.319200
  0.505000, -3.177400
  0.507000, -3.038900
  0.509000, -2.903200
  0.511000, -2.769300
  0.513000, -2.637900
  0.515000, -2.509700
  0.517000, -2.384000
  0.519000, -2.261600
  0.521000, -2.142600
  0.523000, -2.026900
  0.525000, -1.914000
  0.527000, -1.803500
  0.529000, -1.696400
  0.531000, -1.593100
  0.533000, -1.493400
  0.535000, -1.396700
  0.537000, -1.303100
  0.539000, -1.213500
  0.541000, -1.127300
  0.543000, -1.045000
  0.545000, -0.965900
  0.547000, -0.889900
  0.549000, -0.817800
  0.551000, -0.749500
  0.553000, -0.685100
  0.555000, -0.624600
  0.557000, -0.567900
  0.559000, -0.515600
  0.561000, -0.467100
  0.563000, -0.422400
  0.565000, -0.381800
  0.567000, -0.345000
  0.569000, -0.311900
  0.571000, -0.283000
  0.573000, -0.258300
  0.575000, -0.237600
  0.577000, -0.221000
  0.579000, -0.208400
  0.581000, -0.199800
  0.583000, -0.195000
  0.585000, -0.194100
  0.587000, -0.197100
  0.589000, -0.203800
  0.591000, -0.214100
  0.593000, -0.228000
  0.595000, -0.245300
  0.597000, -0.266300
  0.599000, -0.290600
  0.601000, -0.317800
  0.603000, -0.348100
  0.605000, -0.381300
  0.607000, -0.417600
  0.609000, -0.457000
  0.611000, -0.498700
  0.613000, -0.542400
  0.615000, -0.588700
  0.617000, -0.636900
  0.619000, -0.686400
  0.621000, -0.737400
  0.623000, -0.789300
  0.625000, -0.842700
  0.627000, -0.898000
  0.629000, -0.954600
  0.631000, -1.011800
  0.633000, -1.069600
  0.635000, -1.128100
  0.637000, -1.187000
  0.639000, -1.246000
  0.641000, -1.305000
  0.643000, -1.363800
  0.645000, -1.421900
  0.647000, -1.479200
  0.649000, -1.535900
  0.651000, -1.591700
  0.653000, -1.646500
  0.655000, -1.700800
  0.657000, -1.753900
  0.659000, -1.805600
  0.661000, -1.855700
  0.663000, -1.903900
  0.665000, -1.950700
  0.667000, -1.996100
  0.669000, -2.039700
  0.671000, -2.081200
  0.673000, -2.120600
  0.675000, -2.157900
  0.677000, -2.193100
  0.679000, -2.226200
  0.681000, -2.257000
  0.683000, -2.285400
  0.685000, -2.311600
  0.687000, -2.335600
  0.689000, -2.357200
  0.691000, -2.376600
  0.693000, -2.393500
  0.695000, -2.408000
  0.697000, -2.420100
  0.699000, -2.429800
  0.701000, -2.437300
  0.703000, -2.442600
  0.705000, -2.445400
  0.707000, -2.445900
  0.709000, -2.444200
  0.711000, -2.440300
  0.713000, -2.434400
  0.715000, -2.426100
  0.717000, -2.415700
  0.719000, -2.403300
  0.721000, -2.389200
  0.723000, -2.373200
  0.725000, -2.355100
  0.727000, -2.335400
  0.729000, -2.313900
  0.731000, -2.290700
  0.733000, -2.266100
  0.735000, -2.240100
  0.737000, -2.212500
  0.739000, -2.183300
  0.741000, -2.152800
  0.743000, -2.120900
  0.745000, -2.088000
  0.747000, -2.053900
  0.749000, -2.018600
  0.751000, -1.982400
  0.753000, -1.945300
  0.755000, -1.907500
  0.757000, -1.869000
  0.759000, -1.829800
  0.761000, -1.790000
  0.763000, -1.749300
  0.765000, -1.708000
  0.767000, -1.666100
  0.769000, -1.623800
  0.771000, -1.581400
  0.773000, -1.538800
  0.775000, -1.496100
  0.777000, -1.453000
  0.779000, -1.409900
  0.781000, -1.366600
  0.783000, -1.323300
  0.785000, -1.280100
  0.787000, -1.237100
  0.789000, -1.194400
  0.791000, -1.151900
  0.793000, -1.109400
  0.795000, -1.067100
  0.797000, -1.025200
  0.799000, -0.983700
  0.801000, -0.942600
  0.803000, -0.902000
  0.805000, -0.861900
  0.807000, -0.822300
  0.809000, -0.783500
  0.811000, -0.745400
  0.813000, -0.707900
  0.815000, -0.671100
  0.817000, -0.635200
  0.819000, -0.600000
  0.821000, -0.565600
  0.823000, -0.531900
  0.825000, -0.499100
  0.827000, -0.467300
  0.829000, -0.436500
  0.831000, -0.406700
  0.833000, -0.377800
  0.835000, -0.349900
  0.837000, -0.323100
  0.839000, -0.297300
  0.841000, -0.272600
  0.843000, -0.248900
  0.845000, -0.226200
  0.847000, -0.204500
  0.849000, -0.183900
  0.851000, -0.164400
  0.853000, -0.146100
  0.855000, -0.128900
  0.857000, -0.112700
  0.859000, -0.097800
  0.861000, -0.084000
  0.863000, -0.071300
  0.865000, -0.059600
  0.867000, -0.048900
  0.869000, -0.039400
  0.871000, -0.030900
  0.873000, -0.023400
  0.875000, -0.016900
  0.877000, -0.011400
  0.879000, -0.006800
  0.881000, -0.003100
  0.883000, -0.000500
  0.885000,  0.001200
  0.887000,  0.002200
  0.889000,  0.002100
  0.891000,  0.001000
  0.893000, -0.000700
  0.895000, -0.003100
  0.897000, -0.006100
  0.899000, -0.009900
  0.901000, -0.014500
  0.903000, -0.019600
  0.905000, -0.025200
  0.907000, -0.031700
  0.909000, -0.038600
  0.911000, -0.046000
  0.913000, -0.054100
  0.915000, -0.062300
  0.917000, -0.071000
  0.919000, -0.080300
  0.921000, -0.089700
  0.923000, -0.099500
  0.925000, -0.109800
  0.927000, -0.120300
  0.929000, -0.130900
  0.931000, -0.141700
  0.933000, -0.152600
  0.935000, -0.163700
  0.937000, -0.175000
  0.939000, -0.186400
  0.941000, -0.197800
  0.943000, -0.209300
  0.945000, -0.220800
  0.947000, -0.232200
  0.949000, -0.243400
  0.951000, -0.254500
  0.953000, -0.265700
  0.955000, -0.276600
  0.957000, -0.287400
  0.959000, -0.298000
  0.961000, -0.308400
  0.963000, -0.318400
  0.965000, -0.328300
  0.967000, -0.337900
  0.969000, -0.347400
  0.971000, -0.356600
  0.973000, -0.365300
  0.975000, -0.373700
  0.977000, -0.381700
  0.979000, -0.389400
  0.981000, -0.396600
  0.983000, -0.403600
  0.985000, -0.410100
  0.987000, -0.416200
  0.989000, -0.422000
  0.991000, -0.427400
  0.993000, -0.432200
  0.995000, -0.436800
  0.997000, -0.440800
  0.999000, -0.444400
  1.001000, -0.447700
  1.003000, -0.450600
  1.005000, -0.453000
  1.007000, -0.455000
  1.009000, -0.456500
  1.011000, -0.457600
  1.013000, -0.458200
  1.015000, -0.458500
  1.017000, -0.458300
  1.019000, -0.457500
  1.021000, -0.456500
  1.023000, -0.455200
  1.025000, -0.453300
  1.027000, -0.451000
  1.029000, -0.448300
  1.031000, -0.445200
  1.033000, -0.441800
  1.035000, -0.438100
  1.037000, -0.434000
  1.039000, -0.429400
  1.041000, -0.424400
  1.043000, -0.419300
  1.045000, -0.413800
  1.047000, -0.407900
  1.049000, -0.401800
  1.051000, -0.395500
  1.053000, -0.388900
  1.055000, -0.382100
  1.057000, -0.375100
  1.059000, -0.367800
  1.061000, -0.360400
  1.063000, -0.352800
  1.065000, -0.344900
  1.067000, -0.336800
  1.069000, -0.328600
  1.071000, -0.320300
  1.073000, -0.311900
  1.075000, -0.303400
  1.077000, -0.294800
  1.079000, -0.286000
  1.081000, -0.277300
  1.083000, -0.268500
  1.085000, -0.259700
  1.087000, -0.250900
  1.089000, -0.242300
  1.091000, -0.233600
  1.093000, -0.225000
  1.095000, -0.216300
  1.097000, -0.207600
  1.099000, -0.198900
  1.101000, -0.190300
  1.103000, -0.182000
  1.105000, -0.173600
  1.107000, -0.165300
  1.109000, -0.157300
  1.111000, -0.149400
  1.113000, -0.141700
  1.115000, -0.134200
  1.117000, -0.126600
  1.119000, -0.119000
  1.121000, -0.111700
  1.123000, -0.104600
  1.125000, -0.097700
  1.127000, -0.090900
  1.129000, -0.084300
  1.131000, -0.077800
  1.133000, -0.071500
  1.135000, -0.065300
  1.137000, -0.059300
  1.139000, -0.053700
  1.141000, -0.048200
  1.143000, -0.042800
  1.145000, -0.037600
  1.147000, -0.032800
  1.149000, -0.028200
  1.151000, -0.023800
  1.153000, -0.019500
  1.155000, -0.015400
  1.157000, -0.011500
  1.159000, -0.007700
  1.161000, -0.004200
  1.163000, -0.000900
  1.165000,  0.002200
  1.167000,  0.005200
  1.169000,  0.008000
  1.171000,  0.010500
  1.173000,  0.012800
  1.175000,  0.014900
  1.177000,  0.017000
  1.179000,  0.018700
  1.181000,  0.020400
  1.183000,  0.021800
  1.185000,  0.023200
  1.187000,  0.024400
  1.189000,  0.025300
  1.191000,  0.026100
  1.193000,  0.026700
  1.195000,  0.027100
  1.197000,  0.027400
  1.199000,  0.027500
  1.201000,  0.027500
  1.203000,  0.027400
  1.205000,  0.027100
  1.207000,  0.026700
  1.209000,  0.026000
  1.211000,  0.025200
  1.213000,  0.024400
  1.215000,  0.023500
  1.217000,  0.022500
  1.219000,  0.021300
  1.221000,  0.020100
  1.223000,  0.018900
  1.225000,  0.017600
  1.227000,  0.016200
  1.229000,  0.014600
  1.231000,  0.012900
  1.233000,  0.011300
  1.235000,  0.009600
  1.237000,  0.007700
  1.239000,  0.005800
  1.241000,  0.003800
  1.243000,  0.001900
  1.245000, -0.000100
  1.247000, -0.002100
  1.249000, -0.004100
  1.251000, -0.006200
  1.253000, -0.008200
  1.255000, -0.010300
  1.257000, -0.012400
  1.259000, -0.014400
  1.261000, -0.016400
  1.263000, -0.018500
  1.265000, -0.020400
  1.267000, -0.022300
  1.269000, -0.024300
  1.271000, -0.026000
  1.273000, -0.027800
  1.275000, -0.029500
  1.277000, -0.031100
  1.279000, -0.032600
  1.281000, -0.033900
  1.283000, -0.035100
  1.285000, -0.036200
  1.287000, -0.037400
  1.289000, -0.038500
  1.291000, -0.039500
  1.293000, -0.040200
  1.295000, -0.040900
  1.297000, -0.041500
  1.299000, -0.042000
  1.301000, -0.042500
  1.303000, -0.042700
  1.305000, -0.042600
  1.307000, -0.042400
  1.309000, -0.042100
  1.311000, -0.041600
  1.313000, -0.041000
  1.315000, -0.040100
  1.317000, -0.039100
  1.319000, -0.038000
  1.321000, -0.036900
  1.323000, -0.035600
  1.325000, -0.033900
  1.327000, -0.032000
  1.329000, -0.030100
  1.331000, -0.028100
  1.333000, -0.025900
  1.335000, -0.023600
  1.337000, -0.021000
  1.339000, -0.018300
  1.341000, -0.015600
  1.343000, -0.012600
  1.345000, -0.009600
  1.347000, -0.006500
  1.349000, -0.003300
  1.351000,  0.000000
  1.353000,  0.003500
  1.355000,  0.007000
  1.357000,  0.010600
  1.359000,  0.014300
  1.361000,  0.018100
  1.363000,  0.021700
  1.365000,  0.025400
  1.367000,  0.029300
  1.369000,  0.033100
  1.371000,  0.036800
  1.373000,  0.040500
  1.375000,  0.044200
  1.377000,  0.047900
  1.379000,  0.051700
  1.381000,  0.055400
  1.383000,  0.058800
  1.385000,  0.062200
  1.387000,  0.065400
  1.389000,  0.068300
  1.391000,  0.071000
  1.393000,  0.073500
  1.395000,  0.075700
  1.397000,  0.077300
  1.399000,  0.078600
