# z (nm)   (kJ/mol)
  0.241000,  5.398400
  0.245000,  4.748800
  0.249000,  3.247300
  0.251000,  2.489300
  0.253000,  1.753000
  0.255000,  1.015400
  0.257000,  0.275500
  0.259000, -0.492900
  0.261000, -1.283600
  0.263000, -2.068900
  0.265000, -2.860800
  0.267000, -3.648800
  0.269000, -4.439900
  0.271000, -5.246500
  0.273000, -6.059500
  0.275000, -6.860900
  0.277000, -7.656100
  0.279000, -8.447700
  0.281000, -9.236300
  0.283000,-10.014200
  0.285000,-10.779300
  0.287000,-11.536200
  0.289000,-12.278100
  0.291000,-13.005600
  0.293000,-13.718200
  0.295000,-14.412200
  0.297000,-15.088100
  0.299000,-15.747700
  0.301000,-16.389500
  0.303000,-17.005800
  0.305000,-17.594200
  0.307000,-18.160000
  0.309000,-18.703400
  0.311000,-19.218800
  0.313000,-19.706600
  0.315000,-20.166800
  0.317000,-20.596800
  0.319000,-20.998500
  0.321000,-21.371700
  0.323000,-21.714900
  0.325000,-22.026900
  0.327000,-22.307200
  0.329000,-22.556300
  0.331000,-22.773700
  0.333000,-22.959700
  0.335000,-23.114700
  0.337000,-23.238100
  0.339000,-23.330500
  0.341000,-23.391900
  0.343000,-23.422100
  0.345000,-23.423400
  0.347000,-23.394600
  0.349000,-23.337300
  0.351000,-23.253900
  0.353000,-23.144100
  0.355000,-23.009600
  0.357000,-22.849800
  0.359000,-22.667300
  0.361000,-22.462500
  0.363000,-22.236300
  0.365000,-21.994100
  0.367000,-21.735700
  0.369000,-21.462000
  0.371000,-21.174900
  0.373000,-20.874900
  0.375000,-20.563200
  0.377000,-20.242300
  0.379000,-19.914200
  0.381000,-19.579600
  0.383000,-19.240900
  0.385000,-18.899000
  0.387000,-18.556600
  0.389000,-18.215900
  0.391000,-17.877200
  0.393000,-17.540500
  0.395000,-17.206900
  0.397000,-16.879100
  0.399000,-16.558100
  0.401000,-16.243600
  0.403000,-15.937400
  0.405000,-15.640300
  0.407000,-15.352700
  0.409000,-15.075200
  0.411000,-14.807900
  0.413000,-14.551700
  0.415000,-14.306800
  0.417000,-14.072600
  0.419000,-13.850300
  0.421000,-13.639900
  0.423000,-13.440900
  0.425000,-13.253200
  0.427000,-13.076500
  0.429000,-12.910600
  0.431000,-12.755600
  0.433000,-12.610200
  0.435000,-12.474100
  0.437000,-12.347200
  0.439000,-12.229000
  0.441000,-12.118800
  0.443000,-12.015900
  0.445000,-11.919800
  0.447000,-11.830200
  0.449000,-11.746400
  0.451000,-11.667200
  0.453000,-11.592100
  0.455000,-11.521100
  0.457000,-11.454100
  0.459000,-11.389500
  0.461000,-11.326400
  0.463000,-11.264600
  0.465000,-11.203900
  0.467000,-11.143800
  0.469000,-11.083500
  0.471000,-11.022500
  0.473000,-10.960700
  0.475000,-10.897600
  0.477000,-10.832600
  0.479000,-10.765600
  0.481000,-10.696300
  0.483000,-10.624100
  0.485000,-10.549100
  0.487000,-10.471300
  0.489000,-10.390200
  0.491000,-10.305600
  0.493000,-10.217600
  0.495000,-10.125800
  0.497000,-10.030300
  0.499000, -9.931400
  0.501000, -9.829000
  0.503000, -9.723000
  0.505000, -9.613300
  0.507000, -9.500300
  0.509000, -9.384200
  0.511000, -9.264300
  0.513000, -9.140800
  0.515000, -9.014400
  0.517000, -8.885000
  0.519000, -8.752500
  0.521000, -8.617200
  0.523000, -8.479300
  0.525000, -8.339200
  0.527000, -8.196800
  0.529000, -8.052400
  0.531000, -7.906300
  0.533000, -7.757800
  0.535000, -7.607000
  0.537000, -7.454600
  0.539000, -7.300900
  0.541000, -7.145700
  0.543000, -6.989000
  0.545000, -6.831400
  0.547000, -6.673200
  0.549000, -6.514400
  0.551000, -6.355000
  0.553000, -6.194800
  0.555000, -6.033800
  0.557000, -5.872500
  0.559000, -5.711200
  0.561000, -5.549700
  0.563000, -5.387700
  0.565000, -5.225700
  0.567000, -5.063500
  0.569000, -4.901600
  0.571000, -4.741000
  0.573000, -4.581200
  0.575000, -4.421900
  0.577000, -4.262700
  0.579000, -4.104400
  0.581000, -3.947500
  0.583000, -3.792000
  0.585000, -3.637300
  0.587000, -3.483900
  0.589000, -3.332100
  0.591000, -3.181200
  0.593000, -3.031800
  0.595000, -2.884500
  0.597000, -2.739100
  0.599000, -2.596100
  0.601000, -2.455700
  0.603000, -2.316900
  0.605000, -2.180500
  0.607000, -2.047200
  0.609000, -1.916600
  0.611000, -1.789100
  0.613000, -1.664600
  0.615000, -1.542500
  0.617000, -1.424200
  0.619000, -1.309900
  0.621000, -1.198600
  0.623000, -1.090800
  0.625000, -0.986700
  0.627000, -0.886400
  0.629000, -0.790300
  0.631000, -0.697600
  0.633000, -0.609000
  0.635000, -0.524800
  0.637000, -0.444200
  0.639000, -0.367800
  0.641000, -0.295700
  0.643000, -0.227900
  0.645000, -0.164400
  0.647000, -0.104800
  0.649000, -0.049100
  0.651000,  0.002600
  0.653000,  0.050200
  0.655000,  0.094000
  0.657000,  0.134000
  0.659000,  0.170200
  0.661000,  0.202200
  0.663000,  0.230300
  0.665000,  0.254800
  0.667000,  0.275700
  0.669000,  0.293100
  0.671000,  0.307300
  0.673000,  0.318100
  0.675000,  0.325400
  0.677000,  0.329900
  0.679000,  0.331800
  0.681000,  0.330700
  0.683000,  0.326900
  0.685000,  0.320400
  0.687000,  0.311200
  0.689000,  0.299600
  0.691000,  0.285500
  0.693000,  0.269600
  0.695000,  0.251800
  0.697000,  0.231900
  0.699000,  0.210400
  0.701000,  0.186900
  0.703000,  0.161500
  0.705000,  0.134900
  0.707000,  0.106800
  0.709000,  0.077200
  0.711000,  0.046800
  0.713000,  0.015200
  0.715000, -0.017900
  0.717000, -0.051600
  0.719000, -0.086400
  0.721000, -0.121900
  0.723000, -0.158200
  0.725000, -0.195100
  0.727000, -0.231900
  0.729000, -0.268900
  0.731000, -0.306300
  0.733000, -0.343600
  0.735000, -0.381500
  0.737000, -0.420100
  0.739000, -0.458600
  0.741000, -0.496700
  0.743000, -0.534800
  0.745000, -0.572600
  0.747000, -0.609700
  0.749000, -0.646700
  0.751000, -0.683000
  0.753000, -0.718800
  0.755000, -0.754000
  0.757000, -0.788300
  0.759000, -0.822200
  0.761000, -0.855100
  0.763000, -0.887100
  0.765000, -0.918300
  0.767000, -0.948400
  0.769000, -0.977300
  0.771000, -1.005100
  0.773000, -1.032000
  0.775000, -1.057600
  0.777000, -1.081800
  0.779000, -1.104700
  0.781000, -1.126300
  0.783000, -1.146600
  0.785000, -1.165700
  0.787000, -1.183300
  0.789000, -1.199200
  0.791000, -1.214000
  0.793000, -1.227200
  0.795000, -1.238900
  0.797000, -1.249000
  0.799000, -1.257600
  0.801000, -1.264800
  0.803000, -1.270500
  0.805000, -1.274600
  0.807000, -1.277200
  0.809000, -1.278300
  0.811000, -1.277900
  0.813000, -1.276000
  0.815000, -1.272400
  0.817000, -1.267400
  0.819000, -1.260900
  0.821000, -1.252900
  0.823000, -1.243500
  0.825000, -1.232600
  0.827000, -1.220200
  0.829000, -1.206700
  0.831000, -1.191900
  0.833000, -1.175900
  0.835000, -1.158500
  0.837000, -1.139700
  0.839000, -1.119800
  0.841000, -1.098900
  0.843000, -1.076900
  0.845000, -1.053600
  0.847000, -1.029400
  0.849000, -1.004400
  0.851000, -0.978300
  0.853000, -0.951500
  0.855000, -0.924300
  0.857000, -0.896200
  0.859000, -0.867200
  0.861000, -0.837500
  0.863000, -0.807300
  0.865000, -0.776400
  0.867000, -0.744900
  0.869000, -0.713000
  0.871000, -0.680700
  0.873000, -0.647900
  0.875000, -0.615200
  0.877000, -0.582500
  0.879000, -0.549400
  0.881000, -0.516200
  0.883000, -0.482900
  0.885000, -0.449800
  0.887000, -0.416700
  0.889000, -0.383700
  0.891000, -0.351000
  0.893000, -0.318400
  0.895000, -0.286300
  0.897000, -0.254800
  0.899000, -0.223800
  0.901000, -0.193100
  0.903000, -0.162700
  0.905000, -0.132500
  0.907000, -0.102600
  0.909000, -0.073600
  0.911000, -0.045500
  0.913000, -0.018000
  0.915000,  0.008700
  0.917000,  0.034600
  0.919000,  0.059700
  0.921000,  0.084200
  0.923000,  0.107700
  0.925000,  0.130400
  0.927000,  0.152000
  0.929000,  0.172600
  0.931000,  0.192500
  0.933000,  0.211700
  0.935000,  0.229800
  0.937000,  0.246800
  0.939000,  0.262700
  0.941000,  0.277600
  0.943000,  0.291600
  0.945000,  0.304600
  0.947000,  0.316700
  0.949000,  0.327700
  0.951000,  0.337600
  0.953000,  0.346500
  0.955000,  0.354400
  0.957000,  0.361300
  0.959000,  0.367300
  0.961000,  0.372100
  0.963000,  0.376000
  0.965000,  0.379100
  0.967000,  0.381200
  0.969000,  0.382200
  0.971000,  0.382400
  0.973000,  0.381900
  0.975000,  0.380500
  0.977000,  0.378300
  0.979000,  0.375200
  0.981000,  0.371500
  0.983000,  0.367000
  0.985000,  0.361800
  0.987000,  0.355800
  0.989000,  0.349200
  0.991000,  0.341900
  0.993000,  0.333700
  0.995000,  0.325000
  0.997000,  0.315800
  0.999000,  0.306100
  1.001000,  0.295900
  1.003000,  0.285400
  1.005000,  0.274400
  1.007000,  0.262700
  1.009000,  0.250700
  1.011000,  0.238400
  1.013000,  0.225800
  1.015000,  0.212800
  1.017000,  0.199600
  1.019000,  0.186600
  1.021000,  0.173400
  1.023000,  0.159800
  1.025000,  0.146200
  1.027000,  0.132400
  1.029000,  0.118400
  1.031000,  0.104400
  1.033000,  0.090100
  1.035000,  0.075800
  1.037000,  0.061600
  1.039000,  0.047500
  1.041000,  0.033600
  1.043000,  0.019700
  1.045000,  0.006000
  1.047000, -0.007700
  1.049000, -0.021100
  1.051000, -0.034300
  1.053000, -0.047400
  1.055000, -0.060100
  1.057000, -0.072700
  1.059000, -0.085200
  1.061000, -0.097300
  1.063000, -0.109200
  1.065000, -0.120700
  1.067000, -0.132000
  1.069000, -0.143000
  1.071000, -0.153600
  1.073000, -0.163900
  1.075000, -0.173800
  1.077000, -0.183400
  1.079000, -0.192600
  1.081000, -0.201400
  1.083000, -0.209700
  1.085000, -0.217600
  1.087000, -0.225100
  1.089000, -0.232200
  1.091000, -0.238900
  1.093000, -0.245100
  1.095000, -0.250900
  1.097000, -0.256100
  1.099000, -0.261000
  1.101000, -0.265400
  1.103000, -0.269500
  1.105000, -0.273100
  1.107000, -0.276200
  1.109000, -0.278700
  1.111000, -0.280800
  1.113000, -0.282500
  1.115000, -0.283700
  1.117000, -0.284500
  1.119000, -0.284700
  1.121000, -0.284600
  1.123000, -0.284100
  1.125000, -0.283100
  1.127000, -0.281700
  1.129000, -0.280000
  1.131000, -0.277800
  1.133000, -0.275200
  1.135000, -0.272100
  1.137000, -0.268600
  1.139000, -0.264700
  1.141000, -0.260400
  1.143000, -0.255900
  1.145000, -0.251000
  1.147000, -0.245800
  1.149000, -0.240200
  1.151000, -0.234200
  1.153000, -0.228000
  1.155000, -0.221500
  1.157000, -0.214800
  1.159000, -0.207800
  1.161000, -0.200600
  1.163000, -0.193300
  1.165000, -0.185700
  1.167000, -0.177900
  1.169000, -0.170000
  1.171000, -0.161900
  1.173000, -0.153700
  1.175000, -0.145400
  1.177000, -0.137100
  1.179000, -0.128600
  1.181000, -0.120100
  1.183000, -0.111500
  1.185000, -0.103000
  1.187000, -0.094500
  1.189000, -0.086000
  1.191000, -0.077400
  1.193000, -0.069000
  1.195000, -0.060700
  1.197000, -0.052400
  1.199000, -0.044100
  1.201000, -0.036100
  1.203000, -0.028200
  1.205000, -0.020500
  1.207000, -0.013000
  1.209000, -0.005700
  1.211000,  0.001200
  1.213000,  0.007900
  1.215000,  0.014600
  1.217000,  0.020900
  1.219000,  0.026900
  1.221000,  0.032600
  1.223000,  0.038100
  1.225000,  0.043400
  1.227000,  0.048400
  1.229000,  0.053100
  1.231000,  0.057400
  1.233000,  0.061300
  1.235000,  0.065000
  1.237000,  0.068500
  1.239000,  0.071700
  1.241000,  0.074500
  1.243000,  0.076800
  1.245000,  0.078800
  1.247000,  0.080600
  1.249000,  0.082100
  1.251000,  0.083300
  1.253000,  0.084200
  1.255000,  0.084800
  1.257000,  0.085000
  1.259000,  0.084800
  1.261000,  0.084400
  1.263000,  0.083700
  1.265000,  0.082600
  1.267000,  0.081400
  1.269000,  0.079800
  1.271000,  0.078100
  1.273000,  0.075900
  1.275000,  0.073500
  1.277000,  0.070900
  1.279000,  0.068100
  1.281000,  0.065100
  1.283000,  0.061900
  1.285000,  0.058600
  1.287000,  0.055000
  1.289000,  0.051200
  1.291000,  0.047400
  1.293000,  0.043400
  1.295000,  0.039100
  1.297000,  0.034800
  1.299000,  0.030500
  1.301000,  0.026100
  1.303000,  0.021500
  1.305000,  0.017000
  1.307000,  0.012600
  1.309000,  0.008200
  1.311000,  0.003600
  1.313000, -0.000900
  1.315000, -0.005300
  1.317000, -0.009600
  1.319000, -0.013900
  1.321000, -0.018200
  1.323000, -0.022200
  1.325000, -0.026300
  1.327000, -0.030500
  1.329000, -0.034400
  1.331000, -0.038200
  1.333000, -0.041700
  1.335000, -0.045000
  1.337000, -0.048400
  1.339000, -0.051600
  1.341000, -0.054600
  1.343000, -0.057500
  1.345000, -0.060000
  1.347000, -0.062400
  1.349000, -0.064800
  1.351000, -0.066800
  1.353000, -0.068800
  1.355000, -0.070700
  1.357000, -0.072500
  1.359000, -0.074000
  1.361000, -0.075400
  1.363000, -0.076700
  1.365000, -0.077700
  1.367000, -0.078600
  1.369000, -0.079500
  1.371000, -0.080300
  1.373000, -0.080900
  1.375000, -0.081400
  1.377000, -0.081900
  1.379000, -0.082500
  1.381000, -0.083300
  1.383000, -0.084000
  1.385000, -0.084700
  1.387000, -0.085400
  1.389000, -0.086100
  1.391000, -0.086800
  1.393000, -0.087800
  1.395000, -0.089000
  1.397000, -0.090500
  1.399000, -0.092500
