# z (nm)   (kJ/mol)
  0.301000, 15.709200
  0.305000, 15.262200
  0.307000, 14.819100
  0.309000, 14.348300
  0.311000, 13.832700
  0.313000, 13.329100
  0.315000, 12.821000
  0.317000, 12.285900
  0.319000, 11.743300
  0.321000, 11.217600
  0.323000, 10.669800
  0.325000, 10.110000
  0.327000,  9.544600
  0.329000,  8.959400
  0.331000,  8.379000
  0.333000,  7.779300
  0.335000,  7.166000
  0.337000,  6.560600
  0.339000,  5.952000
  0.341000,  5.337400
  0.343000,  4.715000
  0.345000,  4.090700
  0.347000,  3.472700
  0.349000,  2.863300
  0.351000,  2.255400
  0.353000,  1.651100
  0.355000,  1.050100
  0.357000,  0.456300
  0.359000, -0.129400
  0.361000, -0.713400
  0.363000, -1.291900
  0.365000, -1.857500
  0.367000, -2.404400
  0.369000, -2.937400
  0.371000, -3.457500
  0.373000, -3.965800
  0.375000, -4.466500
  0.377000, -4.953600
  0.379000, -5.423000
  0.381000, -5.879300
  0.383000, -6.323500
  0.385000, -6.751800
  0.387000, -7.162000
  0.389000, -7.556200
  0.391000, -7.935100
  0.393000, -8.296900
  0.395000, -8.643800
  0.397000, -8.975700
  0.399000, -9.293000
  0.401000, -9.592600
  0.403000, -9.873500
  0.405000,-10.137700
  0.407000,-10.384800
  0.409000,-10.614400
  0.411000,-10.826500
  0.413000,-11.021100
  0.415000,-11.199200
  0.417000,-11.360800
  0.419000,-11.504800
  0.421000,-11.633400
  0.423000,-11.746900
  0.425000,-11.844200
  0.427000,-11.925500
  0.429000,-11.991700
  0.431000,-12.043900
  0.433000,-12.081900
  0.435000,-12.105700
  0.437000,-12.117000
  0.439000,-12.116100
  0.441000,-12.101300
  0.443000,-12.075000
  0.445000,-12.039900
  0.447000,-11.994400
  0.449000,-11.939600
  0.451000,-11.877800
  0.453000,-11.808600
  0.455000,-11.732500
  0.457000,-11.649700
  0.459000,-11.562000
  0.461000,-11.468000
  0.463000,-11.369900
  0.465000,-11.269200
  0.467000,-11.166000
  0.469000,-11.060600
  0.471000,-10.953900
  0.473000,-10.847300
  0.475000,-10.739000
  0.477000,-10.631400
  0.479000,-10.524900
  0.481000,-10.417700
  0.483000,-10.311700
  0.485000,-10.209400
  0.487000,-10.109400
  0.489000,-10.011200
  0.491000, -9.916200
  0.493000, -9.824200
  0.495000, -9.734500
  0.497000, -9.648000
  0.499000, -9.565200
  0.501000, -9.485200
  0.503000, -9.408500
  0.505000, -9.335100
  0.507000, -9.264900
  0.509000, -9.197800
  0.511000, -9.133500
  0.513000, -9.072200
  0.515000, -9.013700
  0.517000, -8.957300
  0.519000, -8.903500
  0.521000, -8.851700
  0.523000, -8.801100
  0.525000, -8.752100
  0.527000, -8.704800
  0.529000, -8.658100
  0.531000, -8.610900
  0.533000, -8.563500
  0.535000, -8.516400
  0.537000, -8.468700
  0.539000, -8.420400
  0.541000, -8.371100
  0.543000, -8.320000
  0.545000, -8.267100
  0.547000, -8.212100
  0.549000, -8.154300
  0.551000, -8.093700
  0.553000, -8.030300
  0.555000, -7.964000
  0.557000, -7.894100
  0.559000, -7.820400
  0.561000, -7.742900
  0.563000, -7.661300
  0.565000, -7.575200
  0.567000, -7.484800
  0.569000, -7.390500
  0.571000, -7.291900
  0.573000, -7.188700
  0.575000, -7.081500
  0.577000, -6.970100
  0.579000, -6.854300
  0.581000, -6.734100
  0.583000, -6.609700
  0.585000, -6.481600
  0.587000, -6.350200
  0.589000, -6.214600
  0.591000, -6.075600
  0.593000, -5.933900
  0.595000, -5.789100
  0.597000, -5.641800
  0.599000, -5.492000
  0.601000, -5.340500
  0.603000, -5.187500
  0.605000, -5.033100
  0.607000, -4.878300
  0.609000, -4.723100
  0.611000, -4.568100
  0.613000, -4.412900
  0.615000, -4.258000
  0.617000, -4.104200
  0.619000, -3.951200
  0.621000, -3.799700
  0.623000, -3.650200
  0.625000, -3.503400
  0.627000, -3.359100
  0.629000, -3.217900
  0.631000, -3.080200
  0.633000, -2.945400
  0.635000, -2.814600
  0.637000, -2.687900
  0.639000, -2.565200
  0.641000, -2.447300
  0.643000, -2.333400
  0.645000, -2.224300
  0.647000, -2.120300
  0.649000, -2.021200
  0.651000, -1.927100
  0.653000, -1.838700
  0.655000, -1.755300
  0.657000, -1.676700
  0.659000, -1.603600
  0.661000, -1.535500
  0.663000, -1.472400
  0.665000, -1.413600
  0.667000, -1.359300
  0.669000, -1.309700
  0.671000, -1.264800
  0.673000, -1.224700
  0.675000, -1.187700
  0.677000, -1.154800
  0.679000, -1.126200
  0.681000, -1.100400
  0.683000, -1.077400
  0.685000, -1.057700
  0.687000, -1.041700
  0.689000, -1.029000
  0.691000, -1.018600
  0.693000, -1.010000
  0.695000, -1.003400
  0.697000, -0.998600
  0.699000, -0.995300
  0.701000, -0.992900
  0.703000, -0.992200
  0.705000, -0.993100
  0.707000, -0.994600
  0.709000, -0.997100
  0.711000, -0.999700
  0.713000, -1.002800
  0.715000, -1.006500
  0.717000, -1.010600
  0.719000, -1.014700
  0.721000, -1.018600
  0.723000, -1.022800
  0.725000, -1.027200
  0.727000, -1.031300
  0.729000, -1.034900
  0.731000, -1.038300
  0.733000, -1.041100
  0.735000, -1.043500
  0.737000, -1.045400
  0.739000, -1.046900
  0.741000, -1.048100
  0.743000, -1.049000
  0.745000, -1.049400
  0.747000, -1.049600
  0.749000, -1.049200
  0.751000, -1.048200
  0.753000, -1.047000
  0.755000, -1.045700
  0.757000, -1.044200
  0.759000, -1.042300
  0.761000, -1.040100
  0.763000, -1.038000
  0.765000, -1.035800
  0.767000, -1.033500
  0.769000, -1.031500
  0.771000, -1.029600
  0.773000, -1.027300
  0.775000, -1.025300
  0.777000, -1.023500
  0.779000, -1.021900
  0.781000, -1.020300
  0.783000, -1.019100
  0.785000, -1.018400
  0.787000, -1.017900
  0.789000, -1.017600
  0.791000, -1.017800
  0.793000, -1.018400
  0.795000, -1.019000
  0.797000, -1.019900
  0.799000, -1.021200
  0.801000, -1.022800
  0.803000, -1.024800
  0.805000, -1.027100
  0.807000, -1.030000
  0.809000, -1.033100
  0.811000, -1.036400
  0.813000, -1.039800
  0.815000, -1.043100
  0.817000, -1.046900
  0.819000, -1.050900
  0.821000, -1.054800
  0.823000, -1.058500
  0.825000, -1.062100
  0.827000, -1.065800
  0.829000, -1.069400
  0.831000, -1.072800
  0.833000, -1.076000
  0.835000, -1.078700
  0.837000, -1.081300
  0.839000, -1.083800
  0.841000, -1.085800
  0.843000, -1.087400
  0.845000, -1.088600
  0.847000, -1.089000
  0.849000, -1.089100
  0.851000, -1.088700
  0.853000, -1.087800
  0.855000, -1.086200
  0.857000, -1.083900
  0.859000, -1.080900
  0.861000, -1.077300
  0.863000, -1.073100
  0.865000, -1.067900
  0.867000, -1.062100
  0.869000, -1.055800
  0.871000, -1.048700
  0.873000, -1.041000
  0.875000, -1.032600
  0.877000, -1.023500
  0.879000, -1.013800
  0.881000, -1.003600
  0.883000, -0.992600
  0.885000, -0.981100
  0.887000, -0.969100
  0.889000, -0.956600
  0.891000, -0.943600
  0.893000, -0.930200
  0.895000, -0.916200
  0.897000, -0.901600
  0.899000, -0.886900
  0.901000, -0.872100
  0.903000, -0.856900
  0.905000, -0.841400
  0.907000, -0.825700
  0.909000, -0.809500
  0.911000, -0.792900
  0.913000, -0.776400
  0.915000, -0.760100
  0.917000, -0.744000
  0.919000, -0.727800
  0.921000, -0.711700
  0.923000, -0.695400
  0.925000, -0.679200
  0.927000, -0.663300
  0.929000, -0.647400
  0.931000, -0.631400
  0.933000, -0.616000
  0.935000, -0.601300
  0.937000, -0.586700
  0.939000, -0.572300
  0.941000, -0.558200
  0.943000, -0.544600
  0.945000, -0.531300
  0.947000, -0.518200
  0.949000, -0.505400
  0.951000, -0.493000
  0.953000, -0.480900
  0.955000, -0.469200
  0.957000, -0.458100
  0.959000, -0.447400
  0.961000, -0.437000
  0.963000, -0.426900
  0.965000, -0.417300
  0.967000, -0.408000
  0.969000, -0.399200
  0.971000, -0.390700
  0.973000, -0.382700
  0.975000, -0.375300
  0.977000, -0.368200
  0.979000, -0.361400
  0.981000, -0.354900
  0.983000, -0.348800
  0.985000, -0.343100
  0.987000, -0.337700
  0.989000, -0.332700
  0.991000, -0.328000
  0.993000, -0.323600
  0.995000, -0.319600
  0.997000, -0.316000
  0.999000, -0.312800
  1.001000, -0.309800
  1.003000, -0.306900
  1.005000, -0.304100
  1.007000, -0.301600
  1.009000, -0.299400
  1.011000, -0.297400
  1.013000, -0.295700
  1.015000, -0.294100
  1.017000, -0.292800
  1.019000, -0.291800
  1.021000, -0.291300
  1.023000, -0.290900
  1.025000, -0.290500
  1.027000, -0.290100
  1.029000, -0.289600
  1.031000, -0.289400
  1.033000, -0.289300
  1.035000, -0.289500
  1.037000, -0.289900
  1.039000, -0.290500
  1.041000, -0.290900
  1.043000, -0.291500
  1.045000, -0.292300
  1.047000, -0.293000
  1.049000, -0.293900
  1.051000, -0.294800
  1.053000, -0.295900
  1.055000, -0.296700
  1.057000, -0.297500
  1.059000, -0.298500
  1.061000, -0.299400
  1.063000, -0.300100
  1.065000, -0.300900
  1.067000, -0.301900
  1.069000, -0.302600
  1.071000, -0.303300
  1.073000, -0.304300
  1.075000, -0.305000
  1.077000, -0.305600
  1.079000, -0.306000
  1.081000, -0.306400
  1.083000, -0.306700
  1.085000, -0.306900
  1.087000, -0.307300
  1.089000, -0.307600
  1.091000, -0.307500
  1.093000, -0.307300
  1.095000, -0.307100
  1.097000, -0.306800
  1.099000, -0.306400
  1.101000, -0.305900
  1.103000, -0.305400
  1.105000, -0.304700
  1.107000, -0.303800
  1.109000, -0.302900
  1.111000, -0.301800
  1.113000, -0.300800
  1.115000, -0.299700
  1.117000, -0.298500
  1.119000, -0.297200
  1.121000, -0.296000
  1.123000, -0.294600
  1.125000, -0.293200
  1.127000, -0.291600
  1.129000, -0.290000
  1.131000, -0.288300
  1.133000, -0.286600
  1.135000, -0.284900
  1.137000, -0.283200
  1.139000, -0.281300
  1.141000, -0.279300
  1.143000, -0.277300
  1.145000, -0.275200
  1.147000, -0.273000
  1.149000, -0.270800
  1.151000, -0.268600
  1.153000, -0.266300
  1.155000, -0.264100
  1.157000, -0.261700
  1.159000, -0.259200
  1.161000, -0.256700
  1.163000, -0.254300
  1.165000, -0.251600
  1.167000, -0.248800
  1.169000, -0.246100
  1.171000, -0.243400
  1.173000, -0.240600
  1.175000, -0.237700
  1.177000, -0.234700
  1.179000, -0.231600
  1.181000, -0.228500
  1.183000, -0.225200
  1.185000, -0.221900
  1.187000, -0.218700
  1.189000, -0.215300
  1.191000, -0.211800
  1.193000, -0.208100
  1.195000, -0.204400
  1.197000, -0.200700
  1.199000, -0.196800
  1.201000, -0.193000
  1.203000, -0.188900
  1.205000, -0.184800
  1.207000, -0.180600
  1.209000, -0.176200
  1.211000, -0.171800
  1.213000, -0.167300
  1.215000, -0.162800
  1.217000, -0.158300
  1.219000, -0.153800
  1.221000, -0.149200
  1.223000, -0.144700
  1.225000, -0.140100
  1.227000, -0.135400
  1.229000, -0.130900
  1.231000, -0.126300
  1.233000, -0.121800
  1.235000, -0.117200
  1.237000, -0.112700
  1.239000, -0.108200
  1.241000, -0.103800
  1.243000, -0.099500
  1.245000, -0.095400
  1.247000, -0.091100
  1.249000, -0.086900
  1.251000, -0.082700
  1.253000, -0.078700
  1.255000, -0.074800
  1.257000, -0.070800
  1.259000, -0.066900
  1.261000, -0.063200
  1.263000, -0.059600
  1.265000, -0.055900
  1.267000, -0.052300
  1.269000, -0.048900
  1.271000, -0.045400
  1.273000, -0.041900
  1.275000, -0.038500
  1.277000, -0.035300
  1.279000, -0.032100
  1.281000, -0.029000
  1.283000, -0.025900
  1.285000, -0.022800
  1.287000, -0.019800
  1.289000, -0.016900
  1.291000, -0.013900
  1.293000, -0.010700
  1.295000, -0.007500
  1.297000, -0.004300
  1.299000, -0.001200
  1.301000,  0.002000
  1.303000,  0.005400
  1.305000,  0.008800
  1.307000,  0.012100
  1.309000,  0.015500
  1.311000,  0.019100
  1.313000,  0.022500
  1.315000,  0.025900
  1.317000,  0.029400
  1.319000,  0.033100
  1.321000,  0.036800
  1.323000,  0.040500
  1.325000,  0.044400
  1.327000,  0.048300
  1.329000,  0.052400
  1.331000,  0.056500
  1.333000,  0.060500
  1.335000,  0.064600
  1.337000,  0.068700
  1.339000,  0.072900
  1.341000,  0.077100
  1.343000,  0.081300
  1.345000,  0.085400
  1.347000,  0.089700
  1.349000,  0.093900
  1.351000,  0.098100
  1.353000,  0.102400
  1.355000,  0.106700
  1.357000,  0.111000
  1.359000,  0.115200
  1.361000,  0.119300
  1.363000,  0.123400
  1.365000,  0.127400
  1.367000,  0.131300
  1.369000,  0.134800
  1.371000,  0.138300
  1.373000,  0.141800
  1.375000,  0.145200
  1.377000,  0.148400
  1.379000,  0.151500
  1.381000,  0.154400
  1.383000,  0.157300
  1.385000,  0.159900
  1.387000,  0.162300
  1.389000,  0.164600
  1.391000,  0.166400
  1.393000,  0.167700
  1.395000,  0.168700
  1.397000,  0.169300
  1.399000,  0.169500
