# z (nm)   (kJ/mol)
  0.233000, 13.743900
  0.235000, 13.304000
  0.237000, 12.856800
  0.239000, 12.368100
  0.241000, 11.843900
  0.243000, 11.340500
  0.245000, 10.860400
  0.247000, 10.378500
  0.249000,  9.874400
  0.251000,  9.357300
  0.253000,  8.840400
  0.255000,  8.323800
  0.257000,  7.793400
  0.259000,  7.258900
  0.261000,  6.742000
  0.263000,  6.222700
  0.265000,  5.704500
  0.267000,  5.186300
  0.269000,  4.661400
  0.271000,  4.142400
  0.273000,  3.630100
  0.275000,  3.125000
  0.277000,  2.621500
  0.279000,  2.125000
  0.281000,  1.636100
  0.283000,  1.155800
  0.285000,  0.685600
  0.287000,  0.223100
  0.289000, -0.231000
  0.291000, -0.674300
  0.293000, -1.107300
  0.295000, -1.533000
  0.297000, -1.950000
  0.299000, -2.355300
  0.301000, -2.749900
  0.303000, -3.130500
  0.305000, -3.496100
  0.307000, -3.849900
  0.309000, -4.190800
  0.311000, -4.519700
  0.313000, -4.834300
  0.315000, -5.135300
  0.317000, -5.425400
  0.319000, -5.700800
  0.321000, -5.960500
  0.323000, -6.207600
  0.325000, -6.441800
  0.327000, -6.662700
  0.329000, -6.868800
  0.331000, -7.060100
  0.333000, -7.237200
  0.335000, -7.401000
  0.337000, -7.551600
  0.339000, -7.687900
  0.341000, -7.810200
  0.343000, -7.919300
  0.345000, -8.015200
  0.347000, -8.098000
  0.349000, -8.168100
  0.351000, -8.226100
  0.353000, -8.271800
  0.355000, -8.304600
  0.357000, -8.325600
  0.359000, -8.335300
  0.361000, -8.333300
  0.363000, -8.321100
  0.365000, -8.298600
  0.367000, -8.266400
  0.369000, -8.226200
  0.371000, -8.175600
  0.373000, -8.115800
  0.375000, -8.049200
  0.377000, -7.974500
  0.379000, -7.892300
  0.381000, -7.803800
  0.383000, -7.708500
  0.385000, -7.606300
  0.387000, -7.497800
  0.389000, -7.383100
  0.391000, -7.263600
  0.393000, -7.140100
  0.395000, -7.011800
  0.397000, -6.878700
  0.399000, -6.742000
  0.401000, -6.602300
  0.403000, -6.459000
  0.405000, -6.312600
  0.407000, -6.163400
  0.409000, -6.011500
  0.411000, -5.857000
  0.413000, -5.700000
  0.415000, -5.541100
  0.417000, -5.380700
  0.419000, -5.218400
  0.421000, -5.054800
  0.423000, -4.889900
  0.425000, -4.723400
  0.427000, -4.556100
  0.429000, -4.387900
  0.431000, -4.219000
  0.433000, -4.049500
  0.435000, -3.879500
  0.437000, -3.709300
  0.439000, -3.539200
  0.441000, -3.368900
  0.443000, -3.198800
  0.445000, -3.029100
  0.447000, -2.860100
  0.449000, -2.691400
  0.451000, -2.523500
  0.453000, -2.356600
  0.455000, -2.190600
  0.457000, -2.025400
  0.459000, -1.862000
  0.461000, -1.700700
  0.463000, -1.541100
  0.465000, -1.383600
  0.467000, -1.227400
  0.469000, -1.073200
  0.471000, -0.921500
  0.473000, -0.772300
  0.475000, -0.625800
  0.477000, -0.482000
  0.479000, -0.341300
  0.481000, -0.203900
  0.483000, -0.069700
  0.485000,  0.061200
  0.487000,  0.189000
  0.489000,  0.313000
  0.491000,  0.432800
  0.493000,  0.548900
  0.495000,  0.661100
  0.497000,  0.769100
  0.499000,  0.873000
  0.501000,  0.973000
  0.503000,  1.068200
  0.505000,  1.159000
  0.507000,  1.245200
  0.509000,  1.326800
  0.511000,  1.403700
  0.513000,  1.475200
  0.515000,  1.541700
  0.517000,  1.603300
  0.519000,  1.660200
  0.521000,  1.712300
  0.523000,  1.759400
  0.525000,  1.801300
  0.527000,  1.838100
  0.529000,  1.869900
  0.531000,  1.896800
  0.533000,  1.919000
  0.535000,  1.936100
  0.537000,  1.948300
  0.539000,  1.955700
  0.541000,  1.958300
  0.543000,  1.956000
  0.545000,  1.949200
  0.547000,  1.938100
  0.549000,  1.922700
  0.551000,  1.903000
  0.553000,  1.879000
  0.555000,  1.850700
  0.557000,  1.818400
  0.559000,  1.782600
  0.561000,  1.743200
  0.563000,  1.700100
  0.565000,  1.653700
  0.567000,  1.604300
  0.569000,  1.551900
  0.571000,  1.496800
  0.573000,  1.439600
  0.575000,  1.380400
  0.577000,  1.319000
  0.579000,  1.255400
  0.581000,  1.189700
  0.583000,  1.122600
  0.585000,  1.054300
  0.587000,  0.985000
  0.589000,  0.914600
  0.591000,  0.843300
  0.593000,  0.771600
  0.595000,  0.699300
  0.597000,  0.627400
  0.599000,  0.555600
  0.601000,  0.483400
  0.603000,  0.411000
  0.605000,  0.339200
  0.607000,  0.267900
  0.609000,  0.197500
  0.611000,  0.128400
  0.613000,  0.060400
  0.615000, -0.006300
  0.617000, -0.071300
  0.619000, -0.134900
  0.621000, -0.197300
  0.623000, -0.258300
  0.625000, -0.317200
  0.627000, -0.374100
  0.629000, -0.429500
  0.631000, -0.483000
  0.633000, -0.534600
  0.635000, -0.583900
  0.637000, -0.630800
  0.639000, -0.675600
  0.641000, -0.718400
  0.643000, -0.759100
  0.645000, -0.797500
  0.647000, -0.833800
  0.649000, -0.867800
  0.651000, -0.899700
  0.653000, -0.929300
  0.655000, -0.956700
  0.657000, -0.981900
  0.659000, -1.005200
  0.661000, -1.026300
  0.663000, -1.045100
  0.665000, -1.061900
  0.667000, -1.076900
  0.669000, -1.090000
  0.671000, -1.101200
  0.673000, -1.110600
  0.675000, -1.118100
  0.677000, -1.123700
  0.679000, -1.127600
  0.681000, -1.129800
  0.683000, -1.130500
  0.685000, -1.129600
  0.687000, -1.127000
  0.689000, -1.123000
  0.691000, -1.117300
  0.693000, -1.110100
  0.695000, -1.101900
  0.697000, -1.092400
  0.699000, -1.081800
  0.701000, -1.069800
  0.703000, -1.056600
  0.705000, -1.042500
  0.707000, -1.027500
  0.709000, -1.011200
  0.711000, -0.993900
  0.713000, -0.975600
  0.715000, -0.956500
  0.717000, -0.936700
  0.719000, -0.916000
  0.721000, -0.894500
  0.723000, -0.872300
  0.725000, -0.849100
  0.727000, -0.825400
  0.729000, -0.801300
  0.731000, -0.776400
  0.733000, -0.750900
  0.735000, -0.724900
  0.737000, -0.698400
  0.739000, -0.671600
  0.741000, -0.644300
  0.743000, -0.616600
  0.745000, -0.588500
  0.747000, -0.560200
  0.749000, -0.531800
  0.751000, -0.503100
  0.753000, -0.474100
  0.755000, -0.444900
  0.757000, -0.415700
  0.759000, -0.386500
  0.761000, -0.357200
  0.763000, -0.327900
  0.765000, -0.298700
  0.767000, -0.269700
  0.769000, -0.240800
  0.771000, -0.211900
  0.773000, -0.183300
  0.775000, -0.155100
  0.777000, -0.127300
  0.779000, -0.099800
  0.781000, -0.072600
  0.783000, -0.045700
  0.785000, -0.019400
  0.787000,  0.006400
  0.789000,  0.031700
  0.791000,  0.056400
  0.793000,  0.080600
  0.795000,  0.104100
  0.797000,  0.126800
  0.799000,  0.148900
  0.801000,  0.170100
  0.803000,  0.190600
  0.805000,  0.210300
  0.807000,  0.229300
  0.809000,  0.247300
  0.811000,  0.264500
  0.813000,  0.280800
  0.815000,  0.296300
  0.817000,  0.310800
  0.819000,  0.324300
  0.821000,  0.336900
  0.823000,  0.348600
  0.825000,  0.359300
  0.827000,  0.369100
  0.829000,  0.377800
  0.831000,  0.385500
  0.833000,  0.392300
  0.835000,  0.398000
  0.837000,  0.402600
  0.839000,  0.406300
  0.841000,  0.409100
  0.843000,  0.410900
  0.845000,  0.411800
  0.847000,  0.411600
  0.849000,  0.410500
  0.851000,  0.408600
  0.853000,  0.405800
  0.855000,  0.402200
  0.857000,  0.397700
  0.859000,  0.392300
  0.861000,  0.386400
  0.863000,  0.379600
  0.865000,  0.372200
  0.867000,  0.364000
  0.869000,  0.355100
  0.871000,  0.345500
  0.873000,  0.335300
  0.875000,  0.324500
  0.877000,  0.313200
  0.879000,  0.301300
  0.881000,  0.289000
  0.883000,  0.276100
  0.885000,  0.262900
  0.887000,  0.249200
  0.889000,  0.235300
  0.891000,  0.221100
  0.893000,  0.206500
  0.895000,  0.191700
  0.897000,  0.176700
  0.899000,  0.161500
  0.901000,  0.146200
  0.903000,  0.130700
  0.905000,  0.115200
  0.907000,  0.099500
  0.909000,  0.083800
  0.911000,  0.068100
  0.913000,  0.052300
  0.915000,  0.036700
  0.917000,  0.021200
  0.919000,  0.005800
  0.921000, -0.009400
  0.923000, -0.024500
  0.925000, -0.039500
  0.927000, -0.054300
  0.929000, -0.068900
  0.931000, -0.083000
  0.933000, -0.096900
  0.935000, -0.110500
  0.937000, -0.123800
  0.939000, -0.136800
  0.941000, -0.149300
  0.943000, -0.161600
  0.945000, -0.173400
  0.947000, -0.184800
  0.949000, -0.195700
  0.951000, -0.206200
  0.953000, -0.216400
  0.955000, -0.226100
  0.957000, -0.235100
  0.959000, -0.243600
  0.961000, -0.251700
  0.963000, -0.259300
  0.965000, -0.266500
  0.967000, -0.273200
  0.969000, -0.279300
  0.971000, -0.284800
  0.973000, -0.289800
  0.975000, -0.294200
  0.977000, -0.298300
  0.979000, -0.302000
  0.981000, -0.305100
  0.983000, -0.307700
  0.985000, -0.309800
  0.987000, -0.311400
  0.989000, -0.312400
  0.991000, -0.313100
  0.993000, -0.313300
  0.995000, -0.313000
  0.997000, -0.312200
  0.999000, -0.311200
  1.001000, -0.309700
  1.003000, -0.307600
  1.005000, -0.305300
  1.007000, -0.302700
  1.009000, -0.299700
  1.011000, -0.296400
  1.013000, -0.292700
  1.015000, -0.288800
  1.017000, -0.284500
  1.019000, -0.279900
  1.021000, -0.275100
  1.023000, -0.270000
  1.025000, -0.264600
  1.027000, -0.259000
  1.029000, -0.253200
  1.031000, -0.247200
  1.033000, -0.241000
  1.035000, -0.234700
  1.037000, -0.228100
  1.039000, -0.221400
  1.041000, -0.214600
  1.043000, -0.207700
  1.045000, -0.200700
  1.047000, -0.193700
  1.049000, -0.186400
  1.051000, -0.179100
  1.053000, -0.171700
  1.055000, -0.164300
  1.057000, -0.156900
  1.059000, -0.149500
  1.061000, -0.142000
  1.063000, -0.134500
  1.065000, -0.126900
  1.067000, -0.119400
  1.069000, -0.111900
  1.071000, -0.104500
  1.073000, -0.097200
  1.075000, -0.089800
  1.077000, -0.082600
  1.079000, -0.075500
  1.081000, -0.068400
  1.083000, -0.061500
  1.085000, -0.054700
  1.087000, -0.047800
  1.089000, -0.041100
  1.091000, -0.034500
  1.093000, -0.028100
  1.095000, -0.021800
  1.097000, -0.015700
  1.099000, -0.009600
  1.101000, -0.003800
  1.103000,  0.001900
  1.105000,  0.007500
  1.107000,  0.012900
  1.109000,  0.018200
  1.111000,  0.023200
  1.113000,  0.028000
  1.115000,  0.032600
  1.117000,  0.037000
  1.119000,  0.041000
  1.121000,  0.045000
  1.123000,  0.048700
  1.125000,  0.052200
  1.127000,  0.055600
  1.129000,  0.058800
  1.131000,  0.061600
  1.133000,  0.064200
  1.135000,  0.066700
  1.137000,  0.068900
  1.139000,  0.070900
  1.141000,  0.072600
  1.143000,  0.074100
  1.145000,  0.075300
  1.147000,  0.076400
  1.149000,  0.077200
  1.151000,  0.077700
  1.153000,  0.078200
  1.155000,  0.078400
  1.157000,  0.078500
  1.159000,  0.078300
  1.161000,  0.077800
  1.163000,  0.077100
  1.165000,  0.076200
  1.167000,  0.075000
  1.169000,  0.073700
  1.171000,  0.072200
  1.173000,  0.070600
  1.175000,  0.068900
  1.177000,  0.066900
  1.179000,  0.064800
  1.181000,  0.062600
  1.183000,  0.060200
  1.185000,  0.057800
  1.187000,  0.055100
  1.189000,  0.052400
  1.191000,  0.049500
  1.193000,  0.046600
  1.195000,  0.043600
  1.197000,  0.040500
  1.199000,  0.037500
  1.201000,  0.034500
  1.203000,  0.031400
  1.205000,  0.028200
  1.207000,  0.025000
  1.209000,  0.021700
  1.211000,  0.018400
  1.213000,  0.015100
  1.215000,  0.011900
  1.217000,  0.008800
  1.219000,  0.005700
  1.221000,  0.002500
  1.223000, -0.000600
  1.225000, -0.003700
  1.227000, -0.006900
  1.229000, -0.009900
  1.231000, -0.012800
  1.233000, -0.015600
  1.235000, -0.018300
  1.237000, -0.020900
  1.239000, -0.023500
  1.241000, -0.025900
  1.243000, -0.028200
  1.245000, -0.030500
  1.247000, -0.032700
  1.249000, -0.034600
  1.251000, -0.036500
  1.253000, -0.038300
  1.255000, -0.039900
  1.257000, -0.041500
  1.259000, -0.042900
  1.261000, -0.044300
  1.263000, -0.045400
  1.265000, -0.046400
  1.267000, -0.047300
  1.269000, -0.048000
  1.271000, -0.048600
  1.273000, -0.049100
  1.275000, -0.049600
  1.277000, -0.049800
  1.279000, -0.049900
  1.281000, -0.049800
  1.283000, -0.049600
  1.285000, -0.049400
  1.287000, -0.049100
  1.289000, -0.048800
  1.291000, -0.048100
  1.293000, -0.047300
  1.295000, -0.046500
  1.297000, -0.045700
  1.299000, -0.044800
  1.301000, -0.043900
  1.303000, -0.042800
  1.305000, -0.041400
  1.307000, -0.039900
  1.309000, -0.038400
  1.311000, -0.036800
  1.313000, -0.034900
  1.315000, -0.033100
  1.317000, -0.031200
  1.319000, -0.029000
  1.321000, -0.026600
  1.323000, -0.024200
  1.325000, -0.021700
  1.327000, -0.018900
  1.329000, -0.016100
  1.331000, -0.013200
  1.333000, -0.010200
  1.335000, -0.007100
  1.337000, -0.003900
  1.339000, -0.000500
  1.341000,  0.002900
  1.343000,  0.006400
  1.345000,  0.010000
  1.347000,  0.013800
  1.349000,  0.017600
  1.351000,  0.021600
  1.353000,  0.025700
  1.355000,  0.029800
  1.357000,  0.033900
  1.359000,  0.038000
  1.361000,  0.042300
  1.363000,  0.046400
  1.365000,  0.050400
  1.367000,  0.054500
  1.369000,  0.058800
  1.371000,  0.063000
  1.373000,  0.067000
  1.375000,  0.071000
  1.377000,  0.075000
  1.379000,  0.078800
  1.381000,  0.082500
  1.383000,  0.086200
  1.385000,  0.089800
  1.387000,  0.093200
  1.389000,  0.096300
  1.391000,  0.098800
  1.393000,  0.100900
  1.395000,  0.102700
  1.397000,  0.104200
  1.399000,  0.105300
