# z (nm)   (kJ/mol)
  0.253000, 12.931100
  0.255000, 12.453200
  0.257000, 11.959000
  0.259000, 11.428800
  0.261000, 10.889900
  0.263000, 10.366100
  0.265000,  9.848000
  0.267000,  9.330600
  0.269000,  8.792000
  0.271000,  8.248600
  0.273000,  7.715700
  0.275000,  7.181500
  0.277000,  6.638300
  0.279000,  6.088700
  0.281000,  5.542300
  0.283000,  4.993800
  0.285000,  4.433300
  0.287000,  3.886000
  0.289000,  3.346700
  0.291000,  2.801300
  0.293000,  2.261400
  0.295000,  1.729800
  0.297000,  1.203600
  0.299000,  0.679100
  0.301000,  0.162500
  0.303000, -0.342300
  0.305000, -0.842000
  0.307000, -1.331500
  0.309000, -1.816200
  0.311000, -2.298600
  0.313000, -2.767500
  0.315000, -3.221600
  0.317000, -3.665200
  0.319000, -4.099900
  0.321000, -4.523500
  0.323000, -4.935000
  0.325000, -5.331400
  0.327000, -5.715400
  0.329000, -6.089600
  0.331000, -6.450500
  0.333000, -6.797900
  0.335000, -7.131800
  0.337000, -7.450300
  0.339000, -7.754200
  0.341000, -8.044700
  0.343000, -8.321500
  0.345000, -8.584500
  0.347000, -8.832200
  0.349000, -9.064400
  0.351000, -9.282000
  0.353000, -9.484300
  0.355000, -9.671300
  0.357000, -9.842800
  0.359000, -9.999400
  0.361000,-10.141200
  0.363000,-10.268300
  0.365000,-10.381400
  0.367000,-10.478900
  0.369000,-10.561500
  0.371000,-10.630900
  0.373000,-10.685300
  0.375000,-10.726300
  0.377000,-10.755200
  0.379000,-10.770700
  0.381000,-10.774200
  0.383000,-10.765000
  0.385000,-10.744100
  0.387000,-10.712200
  0.389000,-10.668300
  0.391000,-10.613900
  0.393000,-10.550500
  0.395000,-10.477100
  0.397000,-10.393500
  0.399000,-10.301100
  0.401000,-10.200600
  0.403000,-10.093700
  0.405000, -9.981600
  0.407000, -9.863900
  0.409000, -9.739600
  0.411000, -9.609100
  0.413000, -9.473400
  0.415000, -9.332900
  0.417000, -9.188000
  0.419000, -9.039900
  0.421000, -8.889400
  0.423000, -8.735000
  0.425000, -8.577500
  0.427000, -8.417500
  0.429000, -8.255300
  0.431000, -8.091100
  0.433000, -7.925100
  0.435000, -7.757600
  0.437000, -7.589000
  0.439000, -7.419400
  0.441000, -7.248400
  0.443000, -7.076200
  0.445000, -6.903100
  0.447000, -6.729800
  0.449000, -6.556400
  0.451000, -6.382200
  0.453000, -6.207300
  0.455000, -6.032000
  0.457000, -5.856700
  0.459000, -5.681400
  0.461000, -5.506000
  0.463000, -5.330200
  0.465000, -5.154300
  0.467000, -4.978300
  0.469000, -4.802400
  0.471000, -4.626500
  0.473000, -4.450700
  0.475000, -4.275000
  0.477000, -4.099700
  0.479000, -3.924800
  0.481000, -3.750000
  0.483000, -3.575300
  0.485000, -3.400900
  0.487000, -3.227300
  0.489000, -3.054700
  0.491000, -2.882800
  0.493000, -2.711600
  0.495000, -2.541100
  0.497000, -2.371400
  0.499000, -2.203100
  0.501000, -2.036400
  0.503000, -1.871300
  0.505000, -1.708200
  0.507000, -1.546800
  0.509000, -1.387100
  0.511000, -1.229200
  0.513000, -1.073800
  0.515000, -0.921200
  0.517000, -0.770700
  0.519000, -0.622900
  0.521000, -0.478600
  0.523000, -0.337100
  0.525000, -0.198900
  0.527000, -0.064400
  0.529000,  0.066000
  0.531000,  0.192300
  0.533000,  0.314800
  0.535000,  0.433500
  0.537000,  0.548000
  0.539000,  0.658300
  0.541000,  0.763900
  0.543000,  0.864300
  0.545000,  0.960100
  0.547000,  1.051200
  0.549000,  1.136800
  0.551000,  1.217500
  0.553000,  1.293000
  0.555000,  1.363000
  0.557000,  1.427600
  0.559000,  1.486200
  0.561000,  1.539400
  0.563000,  1.587000
  0.565000,  1.629100
  0.567000,  1.665600
  0.569000,  1.696800
  0.571000,  1.722100
  0.573000,  1.741900
  0.575000,  1.756400
  0.577000,  1.765400
  0.579000,  1.769200
  0.581000,  1.767900
  0.583000,  1.761800
  0.585000,  1.751200
  0.587000,  1.735700
  0.589000,  1.715400
  0.591000,  1.690500
  0.593000,  1.661100
  0.595000,  1.627300
  0.597000,  1.589700
  0.599000,  1.548200
  0.601000,  1.502600
  0.603000,  1.453300
  0.605000,  1.401000
  0.607000,  1.346800
  0.609000,  1.289900
  0.611000,  1.230100
  0.613000,  1.167900
  0.615000,  1.104100
  0.617000,  1.038200
  0.619000,  0.969200
  0.621000,  0.898900
  0.623000,  0.827600
  0.625000,  0.755700
  0.627000,  0.682600
  0.629000,  0.607900
  0.631000,  0.532800
  0.633000,  0.458300
  0.635000,  0.384200
  0.637000,  0.309900
  0.639000,  0.236200
  0.641000,  0.162600
  0.643000,  0.089300
  0.645000,  0.017200
  0.647000, -0.054300
  0.649000, -0.124700
  0.651000, -0.193600
  0.653000, -0.261600
  0.655000, -0.328200
  0.657000, -0.392800
  0.659000, -0.455000
  0.661000, -0.515600
  0.663000, -0.574800
  0.665000, -0.632200
  0.667000, -0.687400
  0.669000, -0.740500
  0.671000, -0.791200
  0.673000, -0.839300
  0.675000, -0.885500
  0.677000, -0.929500
  0.679000, -0.971200
  0.681000, -1.010300
  0.683000, -1.047000
  0.685000, -1.081100
  0.687000, -1.112800
  0.689000, -1.142100
  0.691000, -1.169000
  0.693000, -1.193500
  0.695000, -1.215800
  0.697000, -1.235600
  0.699000, -1.253100
  0.701000, -1.268300
  0.703000, -1.281100
  0.705000, -1.291700
  0.707000, -1.300000
  0.709000, -1.306300
  0.711000, -1.310600
  0.713000, -1.312700
  0.715000, -1.312700
  0.717000, -1.310900
  0.719000, -1.307300
  0.721000, -1.301900
  0.723000, -1.294600
  0.725000, -1.285700
  0.727000, -1.275100
  0.729000, -1.262700
  0.731000, -1.248700
  0.733000, -1.233200
  0.735000, -1.216400
  0.737000, -1.198400
  0.739000, -1.179200
  0.741000, -1.158700
  0.743000, -1.137000
  0.745000, -1.114200
  0.747000, -1.090100
  0.749000, -1.065100
  0.751000, -1.039200
  0.753000, -1.012400
  0.755000, -0.984800
  0.757000, -0.956500
  0.759000, -0.927400
  0.761000, -0.897400
  0.763000, -0.867000
  0.765000, -0.836200
  0.767000, -0.805000
  0.769000, -0.773100
  0.771000, -0.740700
  0.773000, -0.707800
  0.775000, -0.674700
  0.777000, -0.641400
  0.779000, -0.607900
  0.781000, -0.574100
  0.783000, -0.540200
  0.785000, -0.506300
  0.787000, -0.472200
  0.789000, -0.438100
  0.791000, -0.404100
  0.793000, -0.370200
  0.795000, -0.336400
  0.797000, -0.302900
  0.799000, -0.269700
  0.801000, -0.236800
  0.803000, -0.204400
  0.805000, -0.172400
  0.807000, -0.140800
  0.809000, -0.109700
  0.811000, -0.079100
  0.813000, -0.049100
  0.815000, -0.019600
  0.817000,  0.009100
  0.819000,  0.037400
  0.821000,  0.064900
  0.823000,  0.091600
  0.825000,  0.117300
  0.827000,  0.142500
  0.829000,  0.166800
  0.831000,  0.190400
  0.833000,  0.213000
  0.835000,  0.234600
  0.837000,  0.255300
  0.839000,  0.275200
  0.841000,  0.294000
  0.843000,  0.312000
  0.845000,  0.328800
  0.847000,  0.344500
  0.849000,  0.359300
  0.851000,  0.373000
  0.853000,  0.385700
  0.855000,  0.397400
  0.857000,  0.408000
  0.859000,  0.417600
  0.861000,  0.426200
  0.863000,  0.433700
  0.865000,  0.440300
  0.867000,  0.445900
  0.869000,  0.450400
  0.871000,  0.454100
  0.873000,  0.456700
  0.875000,  0.458400
  0.877000,  0.459100
  0.879000,  0.458700
  0.881000,  0.457600
  0.883000,  0.455600
  0.885000,  0.452800
  0.887000,  0.449200
  0.889000,  0.444900
  0.891000,  0.439700
  0.893000,  0.433700
  0.895000,  0.427000
  0.897000,  0.419700
  0.899000,  0.411700
  0.901000,  0.403000
  0.903000,  0.393700
  0.905000,  0.383800
  0.907000,  0.373400
  0.909000,  0.362400
  0.911000,  0.351000
  0.913000,  0.339400
  0.915000,  0.327400
  0.917000,  0.314700
  0.919000,  0.301600
  0.921000,  0.288200
  0.923000,  0.274600
  0.925000,  0.260700
  0.927000,  0.246500
  0.929000,  0.231900
  0.931000,  0.217200
  0.933000,  0.202500
  0.935000,  0.187700
  0.937000,  0.172500
  0.939000,  0.157100
  0.941000,  0.141900
  0.943000,  0.126700
  0.945000,  0.111500
  0.947000,  0.096100
  0.949000,  0.080600
  0.951000,  0.065100
  0.953000,  0.049700
  0.955000,  0.034400
  0.957000,  0.019200
  0.959000,  0.004100
  0.961000, -0.010900
  0.963000, -0.025600
  0.965000, -0.040200
  0.967000, -0.054600
  0.969000, -0.068800
  0.971000, -0.082700
  0.973000, -0.096400
  0.975000, -0.109800
  0.977000, -0.122900
  0.979000, -0.135700
  0.981000, -0.148000
  0.983000, -0.160200
  0.985000, -0.172300
  0.987000, -0.184000
  0.989000, -0.195200
  0.991000, -0.205900
  0.993000, -0.216300
  0.995000, -0.226100
  0.997000, -0.235600
  0.999000, -0.245000
  1.001000, -0.253800
  1.003000, -0.262100
  1.005000, -0.269900
  1.007000, -0.277300
  1.009000, -0.284300
  1.011000, -0.290900
  1.013000, -0.297000
  1.015000, -0.302600
  1.017000, -0.307900
  1.019000, -0.312700
  1.021000, -0.317000
  1.023000, -0.320800
  1.025000, -0.324300
  1.027000, -0.327300
  1.029000, -0.329800
  1.031000, -0.331900
  1.033000, -0.333500
  1.035000, -0.334700
  1.037000, -0.335600
  1.039000, -0.336100
  1.041000, -0.336200
  1.043000, -0.335900
  1.045000, -0.335200
  1.047000, -0.334100
  1.049000, -0.332600
  1.051000, -0.330700
  1.053000, -0.328400
  1.055000, -0.325800
  1.057000, -0.322800
  1.059000, -0.319600
  1.061000, -0.316100
  1.063000, -0.312200
  1.065000, -0.308000
  1.067000, -0.303600
  1.069000, -0.298800
  1.071000, -0.293700
  1.073000, -0.288400
  1.075000, -0.282900
  1.077000, -0.277200
  1.079000, -0.271200
  1.081000, -0.265000
  1.083000, -0.258700
  1.085000, -0.252300
  1.087000, -0.245600
  1.089000, -0.238900
  1.091000, -0.231900
  1.093000, -0.224900
  1.095000, -0.217800
  1.097000, -0.210600
  1.099000, -0.203200
  1.101000, -0.195800
  1.103000, -0.188200
  1.105000, -0.180600
  1.107000, -0.172900
  1.109000, -0.165200
  1.111000, -0.157400
  1.113000, -0.149600
  1.115000, -0.141900
  1.117000, -0.134200
  1.119000, -0.126600
  1.121000, -0.119100
  1.123000, -0.111600
  1.125000, -0.104200
  1.127000, -0.096800
  1.129000, -0.089600
  1.131000, -0.082400
  1.133000, -0.075400
  1.135000, -0.068500
  1.137000, -0.061700
  1.139000, -0.055100
  1.141000, -0.048600
  1.143000, -0.042300
  1.145000, -0.036000
  1.147000, -0.029900
  1.149000, -0.024100
  1.151000, -0.018500
  1.153000, -0.013100
  1.155000, -0.007900
  1.157000, -0.002900
  1.159000,  0.001800
  1.161000,  0.006400
  1.163000,  0.010700
  1.165000,  0.014800
  1.167000,  0.018700
  1.169000,  0.022400
  1.171000,  0.025900
  1.173000,  0.029100
  1.175000,  0.032100
  1.177000,  0.034800
  1.179000,  0.037400
  1.181000,  0.039700
  1.183000,  0.041800
  1.185000,  0.043600
  1.187000,  0.045200
  1.189000,  0.046500
  1.191000,  0.047600
  1.193000,  0.048600
  1.195000,  0.049200
  1.197000,  0.049700
  1.199000,  0.049900
  1.201000,  0.049900
  1.203000,  0.049700
  1.205000,  0.049300
  1.207000,  0.048700
  1.209000,  0.048000
  1.211000,  0.047100
  1.213000,  0.046000
  1.215000,  0.044800
  1.217000,  0.043300
  1.219000,  0.041800
  1.221000,  0.040100
  1.223000,  0.038300
  1.225000,  0.036300
  1.227000,  0.034300
  1.229000,  0.032100
  1.231000,  0.029800
  1.233000,  0.027300
  1.235000,  0.024700
  1.237000,  0.022100
  1.239000,  0.019500
  1.241000,  0.016700
  1.243000,  0.014000
  1.245000,  0.011200
  1.247000,  0.008400
  1.249000,  0.005600
  1.251000,  0.002800
  1.253000, -0.000100
  1.255000, -0.003000
  1.257000, -0.005800
  1.259000, -0.008600
  1.261000, -0.011200
  1.263000, -0.013800
  1.265000, -0.016300
  1.267000, -0.018700
  1.269000, -0.021000
  1.271000, -0.023300
  1.273000, -0.025400
  1.275000, -0.027300
  1.277000, -0.029100
  1.279000, -0.030800
  1.281000, -0.032500
  1.283000, -0.034000
  1.285000, -0.035400
  1.287000, -0.036700
  1.289000, -0.037700
  1.291000, -0.038600
  1.293000, -0.039400
  1.295000, -0.040100
  1.297000, -0.040600
  1.299000, -0.040800
  1.301000, -0.040900
  1.303000, -0.040900
  1.305000, -0.040600
  1.307000, -0.040300
  1.309000, -0.039900
  1.311000, -0.039300
  1.313000, -0.038600
  1.315000, -0.037700
  1.317000, -0.036700
  1.319000, -0.035500
  1.321000, -0.034300
  1.323000, -0.032900
  1.325000, -0.031400
  1.327000, -0.029800
  1.329000, -0.028100
  1.331000, -0.026400
  1.333000, -0.024600
  1.335000, -0.022700
  1.337000, -0.020600
  1.339000, -0.018600
  1.341000, -0.016600
  1.343000, -0.014600
  1.345000, -0.012400
  1.347000, -0.010200
  1.349000, -0.008000
  1.351000, -0.005800
  1.353000, -0.003500
  1.355000, -0.001100
  1.357000,  0.001300
  1.359000,  0.003600
  1.361000,  0.005800
  1.363000,  0.008200
  1.365000,  0.010400
  1.367000,  0.012700
  1.369000,  0.015000
  1.371000,  0.017200
  1.373000,  0.019300
  1.375000,  0.021600
  1.377000,  0.023600
  1.379000,  0.025600
  1.381000,  0.027600
  1.383000,  0.029400
  1.385000,  0.031100
  1.387000,  0.032800
  1.389000,  0.034200
  1.391000,  0.035400
  1.393000,  0.036400
  1.395000,  0.037300
  1.397000,  0.037800
  1.399000,  0.037900
