# z (nm)   (kJ/mol)
  0.245000, -0.312000
  0.247000, -1.188000
  0.251000, -3.065000
  0.253000, -3.972600
  0.255000, -4.879400
  0.257000, -5.794300
  0.259000, -6.724700
  0.261000, -7.679700
  0.263000, -8.640800
  0.265000, -9.593800
  0.267000,-10.550900
  0.269000,-11.518800
  0.271000,-12.475900
  0.273000,-13.431100
  0.275000,-14.384500
  0.277000,-15.323300
  0.279000,-16.255200
  0.281000,-17.187900
  0.283000,-18.109100
  0.285000,-19.012600
  0.287000,-19.900300
  0.289000,-20.775300
  0.291000,-21.630300
  0.293000,-22.463400
  0.295000,-23.276600
  0.297000,-24.062700
  0.299000,-24.823300
  0.301000,-25.559700
  0.303000,-26.266400
  0.305000,-26.941500
  0.307000,-27.588200
  0.309000,-28.202400
  0.311000,-28.781000
  0.313000,-29.325400
  0.315000,-29.832000
  0.317000,-30.301500
  0.319000,-30.735700
  0.321000,-31.129400
  0.323000,-31.481300
  0.325000,-31.793300
  0.327000,-32.064500
  0.329000,-32.294900
  0.331000,-32.483800
  0.333000,-32.630700
  0.335000,-32.736200
  0.337000,-32.801100
  0.339000,-32.825500
  0.341000,-32.809000
  0.343000,-32.752700
  0.345000,-32.656800
  0.347000,-32.522400
  0.349000,-32.350800
  0.351000,-32.143700
  0.353000,-31.903200
  0.355000,-31.628600
  0.357000,-31.322800
  0.359000,-30.987800
  0.361000,-30.622900
  0.363000,-30.231400
  0.365000,-29.815300
  0.367000,-29.376200
  0.369000,-28.917200
  0.371000,-28.440600
  0.373000,-27.949100
  0.375000,-27.444600
  0.377000,-26.929100
  0.379000,-26.403600
  0.381000,-25.870100
  0.383000,-25.331300
  0.385000,-24.792300
  0.387000,-24.253700
  0.389000,-23.715600
  0.391000,-23.182100
  0.393000,-22.654100
  0.395000,-22.132600
  0.397000,-21.620000
  0.399000,-21.119000
  0.401000,-20.630900
  0.403000,-20.156300
  0.405000,-19.696200
  0.407000,-19.251800
  0.409000,-18.823900
  0.411000,-18.413200
  0.413000,-18.020700
  0.415000,-17.647300
  0.417000,-17.293100
  0.419000,-16.958000
  0.421000,-16.642400
  0.423000,-16.347500
  0.425000,-16.072300
  0.427000,-15.816300
  0.429000,-15.579900
  0.431000,-15.362200
  0.433000,-15.163400
  0.435000,-14.979800
  0.437000,-14.811900
  0.439000,-14.662500
  0.441000,-14.529300
  0.443000,-14.410000
  0.445000,-14.303300
  0.447000,-14.207600
  0.449000,-14.124500
  0.451000,-14.053900
  0.453000,-13.993500
  0.455000,-13.941400
  0.457000,-13.896800
  0.459000,-13.858400
  0.461000,-13.825400
  0.463000,-13.798200
  0.465000,-13.774600
  0.467000,-13.754400
  0.469000,-13.736900
  0.471000,-13.720800
  0.473000,-13.705600
  0.475000,-13.690100
  0.477000,-13.673500
  0.479000,-13.654900
  0.481000,-13.634300
  0.483000,-13.611200
  0.485000,-13.584100
  0.487000,-13.553300
  0.489000,-13.518600
  0.491000,-13.479200
  0.493000,-13.435300
  0.495000,-13.386800
  0.497000,-13.333000
  0.499000,-13.273800
  0.501000,-13.209300
  0.503000,-13.139200
  0.505000,-13.063800
  0.507000,-12.983100
  0.509000,-12.897600
  0.511000,-12.806600
  0.513000,-12.710500
  0.515000,-12.609600
  0.517000,-12.503500
  0.519000,-12.392700
  0.521000,-12.278000
  0.523000,-12.159200
  0.525000,-12.036200
  0.527000,-11.909600
  0.529000,-11.780400
  0.531000,-11.649000
  0.533000,-11.514400
  0.535000,-11.376600
  0.537000,-11.236800
  0.539000,-11.095900
  0.541000,-10.953900
  0.543000,-10.811300
  0.545000,-10.667700
  0.547000,-10.522300
  0.549000,-10.376800
  0.551000,-10.231300
  0.553000,-10.085600
  0.555000, -9.939900
  0.557000, -9.793700
  0.559000, -9.648000
  0.561000, -9.502800
  0.563000, -9.357800
  0.565000, -9.213400
  0.567000, -9.069100
  0.569000, -8.925400
  0.571000, -8.782400
  0.573000, -8.640000
  0.575000, -8.498500
  0.577000, -8.357200
  0.579000, -8.216100
  0.581000, -8.075700
  0.583000, -7.936300
  0.585000, -7.798000
  0.587000, -7.659800
  0.589000, -7.521500
  0.591000, -7.383700
  0.593000, -7.246300
  0.595000, -7.108900
  0.597000, -6.971100
  0.599000, -6.833800
  0.601000, -6.696600
  0.603000, -6.559700
  0.605000, -6.423200
  0.607000, -6.286100
  0.609000, -6.148700
  0.611000, -6.011200
  0.613000, -5.873800
  0.615000, -5.736200
  0.617000, -5.598500
  0.619000, -5.460900
  0.621000, -5.323300
  0.623000, -5.185500
  0.625000, -5.047800
  0.627000, -4.911100
  0.629000, -4.774300
  0.631000, -4.636700
  0.633000, -4.498900
  0.635000, -4.362100
  0.637000, -4.226300
  0.639000, -4.091300
  0.641000, -3.957600
  0.643000, -3.825600
  0.645000, -3.694600
  0.647000, -3.564300
  0.649000, -3.435000
  0.651000, -3.308000
  0.653000, -3.182400
  0.655000, -3.058600
  0.657000, -2.937100
  0.659000, -2.817700
  0.661000, -2.700300
  0.663000, -2.584800
  0.665000, -2.471700
  0.667000, -2.362200
  0.669000, -2.255500
  0.671000, -2.151500
  0.673000, -2.050900
  0.675000, -1.953100
  0.677000, -1.858700
  0.679000, -1.768000
  0.681000, -1.680900
  0.683000, -1.597200
  0.685000, -1.517200
  0.687000, -1.441400
  0.689000, -1.369100
  0.691000, -1.300500
  0.693000, -1.236200
  0.695000, -1.175400
  0.697000, -1.118300
  0.699000, -1.065300
  0.701000, -1.016500
  0.703000, -0.971500
  0.705000, -0.930300
  0.707000, -0.893000
  0.709000, -0.859700
  0.711000, -0.830200
  0.713000, -0.804200
  0.715000, -0.781800
  0.717000, -0.762800
  0.719000, -0.746600
  0.721000, -0.733900
  0.723000, -0.724900
  0.725000, -0.718900
  0.727000, -0.715500
  0.729000, -0.715300
  0.731000, -0.717900
  0.733000, -0.723100
  0.735000, -0.731100
  0.737000, -0.741600
  0.739000, -0.754100
  0.741000, -0.768700
  0.743000, -0.785400
  0.745000, -0.803600
  0.747000, -0.823400
  0.749000, -0.844600
  0.751000, -0.866600
  0.753000, -0.889600
  0.755000, -0.913600
  0.757000, -0.938500
  0.759000, -0.964400
  0.761000, -0.991200
  0.763000, -1.018500
  0.765000, -1.045600
  0.767000, -1.072600
  0.769000, -1.100400
  0.771000, -1.128400
  0.773000, -1.156100
  0.775000, -1.183100
  0.777000, -1.209500
  0.779000, -1.235500
  0.781000, -1.261000
  0.783000, -1.285700
  0.785000, -1.309500
  0.787000, -1.332400
  0.789000, -1.354200
  0.791000, -1.375500
  0.793000, -1.395900
  0.795000, -1.415200
  0.797000, -1.433400
  0.799000, -1.450400
  0.801000, -1.466400
  0.803000, -1.481300
  0.805000, -1.494700
  0.807000, -1.506600
  0.809000, -1.517200
  0.811000, -1.526800
  0.813000, -1.535400
  0.815000, -1.542700
  0.817000, -1.548800
  0.819000, -1.553600
  0.821000, -1.557300
  0.823000, -1.559700
  0.825000, -1.561000
  0.827000, -1.561300
  0.829000, -1.560400
  0.831000, -1.558100
  0.833000, -1.554700
  0.835000, -1.550600
  0.837000, -1.545500
  0.839000, -1.539300
  0.841000, -1.532100
  0.843000, -1.523900
  0.845000, -1.514700
  0.847000, -1.504900
  0.849000, -1.494400
  0.851000, -1.483200
  0.853000, -1.471200
  0.855000, -1.458600
  0.857000, -1.445200
  0.859000, -1.431100
  0.861000, -1.416700
  0.863000, -1.401300
  0.865000, -1.385500
  0.867000, -1.369300
  0.869000, -1.352200
  0.871000, -1.334700
  0.873000, -1.316600
  0.875000, -1.298100
  0.877000, -1.279100
  0.879000, -1.260000
  0.881000, -1.240500
  0.883000, -1.220400
  0.885000, -1.200100
  0.887000, -1.179500
  0.889000, -1.158700
  0.891000, -1.137500
  0.893000, -1.116000
  0.895000, -1.094200
  0.897000, -1.072000
  0.899000, -1.049600
  0.901000, -1.027000
  0.903000, -1.003900
  0.905000, -0.980800
  0.907000, -0.957900
  0.909000, -0.934600
  0.911000, -0.911000
  0.913000, -0.887600
  0.915000, -0.864200
  0.917000, -0.840500
  0.919000, -0.816500
  0.921000, -0.792300
  0.923000, -0.768400
  0.925000, -0.744600
  0.927000, -0.720800
  0.929000, -0.696800
  0.931000, -0.673000
  0.933000, -0.649200
  0.935000, -0.625500
  0.937000, -0.601900
  0.939000, -0.578400
  0.941000, -0.554900
  0.943000, -0.531000
  0.945000, -0.507400
  0.947000, -0.484200
  0.949000, -0.461100
  0.951000, -0.438300
  0.953000, -0.416000
  0.955000, -0.393800
  0.957000, -0.371800
  0.959000, -0.350100
  0.961000, -0.328900
  0.963000, -0.308400
  0.965000, -0.288700
  0.967000, -0.269500
  0.969000, -0.250600
  0.971000, -0.232200
  0.973000, -0.214300
  0.975000, -0.197000
  0.977000, -0.180100
  0.979000, -0.164000
  0.981000, -0.148600
  0.983000, -0.133800
  0.985000, -0.119600
  0.987000, -0.106000
  0.989000, -0.093100
  0.991000, -0.080600
  0.993000, -0.068700
  0.995000, -0.057700
  0.997000, -0.047200
  0.999000, -0.037400
  1.001000, -0.028300
  1.003000, -0.019900
  1.005000, -0.012200
  1.007000, -0.005300
  1.009000,  0.000700
  1.011000,  0.006300
  1.013000,  0.011200
  1.015000,  0.015700
  1.017000,  0.019500
  1.019000,  0.022600
  1.021000,  0.025100
  1.023000,  0.027100
  1.025000,  0.028600
  1.027000,  0.029500
  1.029000,  0.029700
  1.031000,  0.029500
  1.033000,  0.028800
  1.035000,  0.027600
  1.037000,  0.026100
  1.039000,  0.024100
  1.041000,  0.021600
  1.043000,  0.018600
  1.045000,  0.015200
  1.047000,  0.011200
  1.049000,  0.007100
  1.051000,  0.002700
  1.053000, -0.002200
  1.055000, -0.007000
  1.057000, -0.012000
  1.059000, -0.017500
  1.061000, -0.023200
  1.063000, -0.028900
  1.065000, -0.034800
  1.067000, -0.040900
  1.069000, -0.047100
  1.071000, -0.053200
  1.073000, -0.059400
  1.075000, -0.065800
  1.077000, -0.072400
  1.079000, -0.078800
  1.081000, -0.085000
  1.083000, -0.091500
  1.085000, -0.098000
  1.087000, -0.104300
  1.089000, -0.110800
  1.091000, -0.117200
  1.093000, -0.123400
  1.095000, -0.129500
  1.097000, -0.135400
  1.099000, -0.141100
  1.101000, -0.146500
  1.103000, -0.152000
  1.105000, -0.157600
  1.107000, -0.162900
  1.109000, -0.168000
  1.111000, -0.172800
  1.113000, -0.177600
  1.115000, -0.182300
  1.117000, -0.186700
  1.119000, -0.190900
  1.121000, -0.194900
  1.123000, -0.198700
  1.125000, -0.202300
  1.127000, -0.205700
  1.129000, -0.208800
  1.131000, -0.211600
  1.133000, -0.214000
  1.135000, -0.216300
  1.137000, -0.218300
  1.139000, -0.220100
  1.141000, -0.221600
  1.143000, -0.222800
  1.145000, -0.223500
  1.147000, -0.224100
  1.149000, -0.224300
  1.151000, -0.224200
  1.153000, -0.224000
  1.155000, -0.223400
  1.157000, -0.222500
  1.159000, -0.221500
  1.161000, -0.220300
  1.163000, -0.218700
  1.165000, -0.216700
  1.167000, -0.214500
  1.169000, -0.212200
  1.171000, -0.209500
  1.173000, -0.206600
  1.175000, -0.203500
  1.177000, -0.200100
  1.179000, -0.196400
  1.181000, -0.192500
  1.183000, -0.188600
  1.185000, -0.184300
  1.187000, -0.179800
  1.189000, -0.175100
  1.191000, -0.170400
  1.193000, -0.165300
  1.195000, -0.160100
  1.197000, -0.155000
  1.199000, -0.149900
  1.201000, -0.144500
  1.203000, -0.138900
  1.205000, -0.133300
  1.207000, -0.127500
  1.209000, -0.121700
  1.211000, -0.115900
  1.213000, -0.110200
  1.215000, -0.104400
  1.217000, -0.098600
  1.219000, -0.092800
  1.221000, -0.087100
  1.223000, -0.081500
  1.225000, -0.075800
  1.227000, -0.070100
  1.229000, -0.064500
  1.231000, -0.059100
  1.233000, -0.053700
  1.235000, -0.048300
  1.237000, -0.043100
  1.239000, -0.038000
  1.241000, -0.033100
  1.243000, -0.028400
  1.245000, -0.023800
  1.247000, -0.019300
  1.249000, -0.014900
  1.251000, -0.010700
  1.253000, -0.006600
  1.255000, -0.002700
  1.257000,  0.001000
  1.259000,  0.004800
  1.261000,  0.008200
  1.263000,  0.011500
  1.265000,  0.014700
  1.267000,  0.017600
  1.269000,  0.020300
  1.271000,  0.022900
  1.273000,  0.025300
  1.275000,  0.027600
  1.277000,  0.029600
  1.279000,  0.031400
  1.281000,  0.033300
  1.283000,  0.034900
  1.285000,  0.036500
  1.287000,  0.037800
  1.289000,  0.038900
  1.291000,  0.039800
  1.293000,  0.040600
  1.295000,  0.041300
  1.297000,  0.042000
  1.299000,  0.042500
  1.301000,  0.042700
  1.303000,  0.042700
  1.305000,  0.042700
  1.307000,  0.042600
  1.309000,  0.042400
  1.311000,  0.042000
  1.313000,  0.041600
  1.315000,  0.041000
  1.317000,  0.040300
  1.319000,  0.039600
  1.321000,  0.038900
  1.323000,  0.038100
  1.325000,  0.037300
  1.327000,  0.036400
  1.329000,  0.035700
  1.331000,  0.034900
  1.333000,  0.034000
  1.335000,  0.033100
  1.337000,  0.032300
  1.339000,  0.031500
  1.341000,  0.030700
  1.343000,  0.029900
  1.345000,  0.029000
  1.347000,  0.028300
  1.349000,  0.027600
  1.351000,  0.026700
  1.353000,  0.026100
  1.355000,  0.025500
  1.357000,  0.025100
  1.359000,  0.024500
  1.361000,  0.024000
  1.363000,  0.023400
  1.365000,  0.022700
  1.367000,  0.022200
  1.369000,  0.021600
  1.371000,  0.021000
  1.373000,  0.020400
  1.375000,  0.020000
  1.377000,  0.019800
  1.379000,  0.019700
  1.381000,  0.019400
  1.383000,  0.019100
  1.385000,  0.019000
  1.387000,  0.018600
  1.389000,  0.017900
  1.391000,  0.017100
  1.393000,  0.016000
  1.395000,  0.014800
  1.397000,  0.013400
  1.399000,  0.011700
