# z (nm)   (kJ/mol)
  0.2450   -0.31200
  0.2470   -1.18800
  0.2510   -3.06500
  0.2530   -3.97260
  0.2550   -4.87940
  0.2570   -5.79430
  0.2590   -6.72470
  0.2610   -7.67970
  0.2630   -8.64080
  0.2650   -9.59380
  0.2670  -10.55090
  0.2690  -11.51880
  0.2710  -12.47590
  0.2730  -13.43110
  0.2750  -14.38450
  0.2770  -15.32330
  0.2790  -16.25520
  0.2810  -17.18790
  0.2830  -18.10910
  0.2850  -19.01260
  0.2870  -19.90030
  0.2890  -20.77530
  0.2910  -21.63030
  0.2930  -22.46340
  0.2950  -23.27660
  0.2970  -24.06270
  0.2990  -24.82330
  0.3010  -25.55970
  0.3030  -26.26640
  0.3050  -26.94150
  0.3070  -27.58820
  0.3090  -28.20240
  0.3110  -28.78100
  0.3130  -29.32540
  0.3150  -29.83200
  0.3170  -30.30150
  0.3190  -30.73570
  0.3210  -31.12940
  0.3230  -31.48130
  0.3250  -31.79330
  0.3270  -32.06450
  0.3290  -32.29490
  0.3310  -32.48380
  0.3330  -32.63070
  0.3350  -32.73620
  0.3370  -32.80110
  0.3390  -32.82550
  0.3410  -32.80900
  0.3430  -32.75270
  0.3450  -32.65680
  0.3470  -32.52240
  0.3490  -32.35080
  0.3510  -32.14370
  0.3530  -31.90320
  0.3550  -31.62860
  0.3570  -31.32280
  0.3590  -30.98780
  0.3610  -30.62290
  0.3630  -30.23140
  0.3650  -29.81530
  0.3670  -29.37620
  0.3690  -28.91720
  0.3710  -28.44060
  0.3730  -27.94910
  0.3750  -27.44460
  0.3770  -26.92910
  0.3790  -26.40360
  0.3810  -25.87010
  0.3830  -25.33130
  0.3850  -24.79230
  0.3870  -24.25370
  0.3890  -23.71560
  0.3910  -23.18210
  0.3930  -22.65410
  0.3950  -22.13260
  0.3970  -21.62000
  0.3990  -21.11900
  0.4010  -20.63090
  0.4030  -20.15630
  0.4050  -19.69620
  0.4070  -19.25180
  0.4090  -18.82390
  0.4110  -18.41320
  0.4130  -18.02070
  0.4150  -17.64730
  0.4170  -17.29310
  0.4190  -16.95800
  0.4210  -16.64240
  0.4230  -16.34750
  0.4250  -16.07230
  0.4270  -15.81630
  0.4290  -15.57990
  0.4310  -15.36220
  0.4330  -15.16340
  0.4350  -14.97980
  0.4370  -14.81190
  0.4390  -14.66250
  0.4410  -14.52930
  0.4430  -14.41000
  0.4450  -14.30330
  0.4470  -14.20760
  0.4490  -14.12450
  0.4510  -14.05390
  0.4530  -13.99350
  0.4550  -13.94140
  0.4570  -13.89680
  0.4590  -13.85840
  0.4610  -13.82540
  0.4630  -13.79820
  0.4650  -13.77460
  0.4670  -13.75440
  0.4690  -13.73690
  0.4710  -13.72080
  0.4730  -13.70560
  0.4750  -13.69010
  0.4770  -13.67350
  0.4790  -13.65490
  0.4810  -13.63430
  0.4830  -13.61120
  0.4850  -13.58410
  0.4870  -13.55330
  0.4890  -13.51860
  0.4910  -13.47920
  0.4930  -13.43530
  0.4950  -13.38680
  0.4970  -13.33300
  0.4990  -13.27380
  0.5010  -13.20930
  0.5030  -13.13920
  0.5050  -13.06380
  0.5070  -12.98310
  0.5090  -12.89760
  0.5110  -12.80660
  0.5130  -12.71050
  0.5150  -12.60960
  0.5170  -12.50350
  0.5190  -12.39270
  0.5210  -12.27800
  0.5230  -12.15920
  0.5250  -12.03620
  0.5270  -11.90960
  0.5290  -11.78040
  0.5310  -11.64900
  0.5330  -11.51440
  0.5350  -11.37660
  0.5370  -11.23680
  0.5390  -11.09590
  0.5410  -10.95390
  0.5430  -10.81130
  0.5450  -10.66770
  0.5470  -10.52230
  0.5490  -10.37680
  0.5510  -10.23130
  0.5530  -10.08560
  0.5550   -9.93990
  0.5570   -9.79370
  0.5590   -9.64800
  0.5610   -9.50280
  0.5630   -9.35780
  0.5650   -9.21340
  0.5670   -9.06910
  0.5690   -8.92540
  0.5710   -8.78240
  0.5730   -8.64000
  0.5750   -8.49850
  0.5770   -8.35720
  0.5790   -8.21610
  0.5810   -8.07570
  0.5830   -7.93630
  0.5850   -7.79800
  0.5870   -7.65980
  0.5890   -7.52150
  0.5910   -7.38370
  0.5930   -7.24630
  0.5950   -7.10890
  0.5970   -6.97110
  0.5990   -6.83380
  0.6010   -6.69660
  0.6030   -6.55970
  0.6050   -6.42320
  0.6070   -6.28610
  0.6090   -6.14870
  0.6110   -6.01120
  0.6130   -5.87380
  0.6150   -5.73620
  0.6170   -5.59850
  0.6190   -5.46090
  0.6210   -5.32330
  0.6230   -5.18550
  0.6250   -5.04780
  0.6270   -4.91110
  0.6290   -4.77430
  0.6310   -4.63670
  0.6330   -4.49890
  0.6350   -4.36210
  0.6370   -4.22630
  0.6390   -4.09130
  0.6410   -3.95760
  0.6430   -3.82560
  0.6450   -3.69460
  0.6470   -3.56430
  0.6490   -3.43500
  0.6510   -3.30800
  0.6530   -3.18240
  0.6550   -3.05860
  0.6570   -2.93710
  0.6590   -2.81770
  0.6610   -2.70030
  0.6630   -2.58480
  0.6650   -2.47170
  0.6670   -2.36220
  0.6690   -2.25550
  0.6710   -2.15150
  0.6730   -2.05090
  0.6750   -1.95310
  0.6770   -1.85870
  0.6790   -1.76800
  0.6810   -1.68090
  0.6830   -1.59720
  0.6850   -1.51720
  0.6870   -1.44140
  0.6890   -1.36910
  0.6910   -1.30050
  0.6930   -1.23620
  0.6950   -1.17540
  0.6970   -1.11830
  0.6990   -1.06530
  0.7010   -1.01650
  0.7030   -0.97150
  0.7050   -0.93030
  0.7070   -0.89300
  0.7090   -0.85970
  0.7110   -0.83020
  0.7130   -0.80420
  0.7150   -0.78180
  0.7170   -0.76280
  0.7190   -0.74660
  0.7210   -0.73390
  0.7230   -0.72490
  0.7250   -0.71890
  0.7270   -0.71550
  0.7290   -0.71530
  0.7310   -0.71790
  0.7330   -0.72310
  0.7350   -0.73110
  0.7370   -0.74160
  0.7390   -0.75410
  0.7410   -0.76870
  0.7430   -0.78540
  0.7450   -0.80360
  0.7470   -0.82340
  0.7490   -0.84460
  0.7510   -0.86660
  0.7530   -0.88960
  0.7550   -0.91360
  0.7570   -0.93850
  0.7590   -0.96440
  0.7610   -0.99120
  0.7630   -1.01850
  0.7650   -1.04560
  0.7670   -1.07260
  0.7690   -1.10040
  0.7710   -1.12840
  0.7730   -1.15610
  0.7750   -1.18310
  0.7770   -1.20950
  0.7790   -1.23550
  0.7810   -1.26100
  0.7830   -1.28570
  0.7850   -1.30950
  0.7870   -1.33240
  0.7890   -1.35420
  0.7910   -1.37550
  0.7930   -1.39590
  0.7950   -1.41520
  0.7970   -1.43340
  0.7990   -1.45040
  0.8010   -1.46640
  0.8030   -1.48130
  0.8050   -1.49470
  0.8070   -1.50660
  0.8090   -1.51720
  0.8110   -1.52680
  0.8130   -1.53540
  0.8150   -1.54270
  0.8170   -1.54880
  0.8190   -1.55360
  0.8210   -1.55730
  0.8230   -1.55970
  0.8250   -1.56100
  0.8270   -1.56130
  0.8290   -1.56040
  0.8310   -1.55810
  0.8330   -1.55470
  0.8350   -1.55060
  0.8370   -1.54550
  0.8390   -1.53930
  0.8410   -1.53210
  0.8430   -1.52390
  0.8450   -1.51470
  0.8470   -1.50490
  0.8490   -1.49440
  0.8510   -1.48320
  0.8530   -1.47120
  0.8550   -1.45860
  0.8570   -1.44520
  0.8590   -1.43110
  0.8610   -1.41670
  0.8630   -1.40130
  0.8650   -1.38550
  0.8670   -1.36930
  0.8690   -1.35220
  0.8710   -1.33470
  0.8730   -1.31660
  0.8750   -1.29810
  0.8770   -1.27910
  0.8790   -1.26000
  0.8810   -1.24050
  0.8830   -1.22040
  0.8850   -1.20010
  0.8870   -1.17950
  0.8890   -1.15870
  0.8910   -1.13750
  0.8930   -1.11600
  0.8950   -1.09420
  0.8970   -1.07200
  0.8990   -1.04960
  0.9010   -1.02700
  0.9030   -1.00390
  0.9050   -0.98080
  0.9070   -0.95790
  0.9090   -0.93460
  0.9110   -0.91100
  0.9130   -0.88760
  0.9150   -0.86420
  0.9170   -0.84050
  0.9190   -0.81650
  0.9210   -0.79230
  0.9230   -0.76840
  0.9250   -0.74460
  0.9270   -0.72080
  0.9290   -0.69680
  0.9310   -0.67300
  0.9330   -0.64920
  0.9350   -0.62550
  0.9370   -0.60190
  0.9390   -0.57840
  0.9410   -0.55490
  0.9430   -0.53100
  0.9450   -0.50740
  0.9470   -0.48420
  0.9490   -0.46110
  0.9510   -0.43830
  0.9530   -0.41600
  0.9550   -0.39380
  0.9570   -0.37180
  0.9590   -0.35010
  0.9610   -0.32890
  0.9630   -0.30840
  0.9650   -0.28870
  0.9670   -0.26950
  0.9690   -0.25060
  0.9710   -0.23220
  0.9730   -0.21430
  0.9750   -0.19700
  0.9770   -0.18010
  0.9790   -0.16400
  0.9810   -0.14860
  0.9830   -0.13380
  0.9850   -0.11960
  0.9870   -0.10600
  0.9890   -0.09310
  0.9910   -0.08060
  0.9930   -0.06870
  0.9950   -0.05770
  0.9970   -0.04720
  0.9990   -0.03740
  1.0010   -0.02830
  1.0030   -0.01990
  1.0050   -0.01220
  1.0070   -0.00530
  1.0090    0.00070
  1.0110    0.00630
  1.0130    0.01120
  1.0150    0.01570
  1.0170    0.01950
  1.0190    0.02260
  1.0210    0.02510
  1.0230    0.02710
  1.0250    0.02860
  1.0270    0.02950
  1.0290    0.02970
  1.0310    0.02950
  1.0330    0.02880
  1.0350    0.02760
  1.0370    0.02610
  1.0390    0.02410
  1.0410    0.02160
  1.0430    0.01860
  1.0450    0.01520
  1.0470    0.01120
  1.0490    0.00710
  1.0510    0.00270
  1.0530   -0.00220
  1.0550   -0.00700
  1.0570   -0.01200
  1.0590   -0.01750
  1.0610   -0.02320
  1.0630   -0.02890
  1.0650   -0.03480
  1.0670   -0.04090
  1.0690   -0.04710
  1.0710   -0.05320
  1.0730   -0.05940
  1.0750   -0.06580
  1.0770   -0.07240
  1.0790   -0.07880
  1.0810   -0.08500
  1.0830   -0.09150
  1.0850   -0.09800
  1.0870   -0.10430
  1.0890   -0.11080
  1.0910   -0.11720
  1.0930   -0.12340
  1.0950   -0.12950
  1.0970   -0.13540
  1.0990   -0.14110
  1.1010   -0.14650
  1.1030   -0.15200
  1.1050   -0.15760
  1.1070   -0.16290
  1.1090   -0.16800
  1.1110   -0.17280
  1.1130   -0.17760
  1.1150   -0.18230
  1.1170   -0.18670
  1.1190   -0.19090
  1.1210   -0.19490
  1.1230   -0.19870
  1.1250   -0.20230
  1.1270   -0.20570
  1.1290   -0.20880
  1.1310   -0.21160
  1.1330   -0.21400
  1.1350   -0.21630
  1.1370   -0.21830
  1.1390   -0.22010
  1.1410   -0.22160
  1.1430   -0.22280
  1.1450   -0.22350
  1.1470   -0.22410
  1.1490   -0.22430
  1.1510   -0.22420
  1.1530   -0.22400
  1.1550   -0.22340
  1.1570   -0.22250
  1.1590   -0.22150
  1.1610   -0.22030
  1.1630   -0.21870
  1.1650   -0.21670
  1.1670   -0.21450
  1.1690   -0.21220
  1.1710   -0.20950
  1.1730   -0.20660
  1.1750   -0.20350
  1.1770   -0.20010
  1.1790   -0.19640
  1.1810   -0.19250
  1.1830   -0.18860
  1.1850   -0.18430
  1.1870   -0.17980
  1.1890   -0.17510
  1.1910   -0.17040
  1.1930   -0.16530
  1.1950   -0.16010
  1.1970   -0.15500
  1.1990   -0.14990
  1.2010   -0.14450
  1.2030   -0.13890
  1.2050   -0.13330
  1.2070   -0.12750
  1.2090   -0.12170
  1.2110   -0.11590
  1.2130   -0.11020
  1.2150   -0.10440
  1.2170   -0.09860
  1.2190   -0.09280
  1.2210   -0.08710
  1.2230   -0.08150
  1.2250   -0.07580
  1.2270   -0.07010
  1.2290   -0.06450
  1.2310   -0.05910
  1.2330   -0.05370
  1.2350   -0.04830
  1.2370   -0.04310
  1.2390   -0.03800
  1.2410   -0.03310
  1.2430   -0.02840
  1.2450   -0.02380
  1.2470   -0.01930
  1.2490   -0.01490
  1.2510   -0.01070
  1.2530   -0.00660
  1.2550   -0.00270
  1.2570    0.00100
  1.2590    0.00480
  1.2610    0.00820
  1.2630    0.01150
  1.2650    0.01470
  1.2670    0.01760
  1.2690    0.02030
  1.2710    0.02290
  1.2730    0.02530
  1.2750    0.02760
  1.2770    0.02960
  1.2790    0.03140
  1.2810    0.03330
  1.2830    0.03490
  1.2850    0.03650
  1.2870    0.03780
  1.2890    0.03890
  1.2910    0.03980
  1.2930    0.04060
  1.2950    0.04130
  1.2970    0.04200
  1.2990    0.04250
  1.3010    0.04270
  1.3030    0.04270
  1.3050    0.04270
  1.3070    0.04260
  1.3090    0.04240
  1.3110    0.04200
  1.3130    0.04160
  1.3150    0.04100
  1.3170    0.04030
  1.3190    0.03960
  1.3210    0.03890
  1.3230    0.03810
  1.3250    0.03730
  1.3270    0.03640
  1.3290    0.03570
  1.3310    0.03490
  1.3330    0.03400
  1.3350    0.03310
  1.3370    0.03230
  1.3390    0.03150
  1.3410    0.03070
  1.3430    0.02990
  1.3450    0.02900
  1.3470    0.02830
  1.3490    0.02760
  1.3510    0.02670
  1.3530    0.02610
  1.3550    0.02550
  1.3570    0.02510
  1.3590    0.02450
  1.3610    0.02400
  1.3630    0.02340
  1.3650    0.02270
  1.3670    0.02220
  1.3690    0.02160
  1.3710    0.02100
  1.3730    0.02040
  1.3750    0.02000
  1.3770    0.01980
  1.3790    0.01970
  1.3810    0.01940
  1.3830    0.01910
  1.3850    0.01900
  1.3870    0.01860
  1.3890    0.01790
  1.3910    0.01710
  1.3930    0.01600
  1.3950    0.01480
  1.3970    0.01340
  1.3990    0.01170
