# z (nm)   (kJ/mol)
  0.062000,275.275330
  0.064000,272.826330
  0.066000,270.424620
  0.068000,268.066870
  0.070000,265.389840
  0.072000,262.939290
  0.074000,260.595610
  0.076000,258.211330
  0.078000,255.859610
  0.080000,253.455050
  0.082000,251.054010
  0.084000,248.637820
  0.086000,246.167290
  0.088000,243.640240
  0.090000,241.047950
  0.092000,238.373320
  0.094000,235.596500
  0.096000,232.703860
  0.098000,229.680420
  0.100000,226.525890
  0.102000,223.232820
  0.104000,219.800240
  0.106000,216.230850
  0.108000,212.540420
  0.110000,208.728120
  0.112000,204.804700
  0.114000,200.768600
  0.116000,196.627890
  0.118000,192.397640
  0.120000,188.094400
  0.122000,183.751980
  0.124000,179.399320
  0.126000,175.079800
  0.128000,170.821480
  0.130000,166.646460
  0.132000,162.570850
  0.134000,158.591830
  0.136000,154.697890
  0.138000,150.894610
  0.140000,147.185540
  0.142000,143.558950
  0.144000,140.015450
  0.146000,136.549090
  0.148000,133.159130
  0.150000,129.834530
  0.152000,126.570290
  0.154000,123.356870
  0.156000,120.180460
  0.158000,117.036720
  0.160000,113.920520
  0.162000,110.816240
  0.164000,107.726990
  0.166000,104.661980
  0.168000,101.622380
  0.170000, 98.618270
  0.172000, 95.660120
  0.174000, 92.745560
  0.176000, 89.884570
  0.178000, 87.074410
  0.180000, 84.307350
  0.182000, 81.578940
  0.184000, 78.888120
  0.186000, 76.217710
  0.188000, 73.577880
  0.190000, 70.965760
  0.192000, 68.390470
  0.194000, 65.854280
  0.196000, 63.352330
  0.198000, 60.898870
  0.200000, 58.494070
  0.202000, 56.141490
  0.204000, 53.840210
  0.206000, 51.591180
  0.208000, 49.400440
  0.210000, 47.261060
  0.212000, 45.178600
  0.214000, 43.147130
  0.216000, 41.160160
  0.218000, 39.223020
  0.220000, 37.321910
  0.222000, 35.452930
  0.224000, 33.611800
  0.226000, 31.794850
  0.228000, 30.010030
  0.230000, 28.258520
  0.232000, 26.554890
  0.234000, 24.894180
  0.236000, 23.285510
  0.238000, 21.718890
  0.240000, 20.197560
  0.242000, 18.723740
  0.244000, 17.305480
  0.246000, 15.930960
  0.248000, 14.602950
  0.250000, 13.308840
  0.252000, 12.063820
  0.254000, 10.844210
  0.256000,  9.666580
  0.258000,  8.518510
  0.260000,  7.410870
  0.262000,  6.320710
  0.264000,  5.275380
  0.266000,  4.262870
  0.268000,  3.294170
  0.270000,  2.365730
  0.272000,  1.476340
  0.274000,  0.615710
  0.276000, -0.206590
  0.278000, -0.984240
  0.280000, -1.727450
  0.282000, -2.420520
  0.284000, -3.075070
  0.286000, -3.694520
  0.288000, -4.281520
  0.290000, -4.835940
  0.292000, -5.361880
  0.294000, -5.873750
  0.296000, -6.366430
  0.298000, -6.844100
  0.300000, -7.304410
  0.302000, -7.745130
  0.304000, -8.159410
  0.306000, -8.538470
  0.308000, -8.879630
  0.310000, -9.184510
  0.312000, -9.444550
  0.314000, -9.670420
  0.316000, -9.858560
  0.318000,-10.017330
  0.320000,-10.147100
  0.322000,-10.259630
  0.324000,-10.364450
  0.326000,-10.465580
  0.328000,-10.555780
  0.330000,-10.648880
  0.332000,-10.735670
  0.334000,-10.815430
  0.336000,-10.872880
  0.338000,-10.913190
  0.340000,-10.927810
  0.342000,-10.926240
  0.344000,-10.900610
  0.346000,-10.850180
  0.348000,-10.787120
  0.350000,-10.699930
  0.352000,-10.591090
  0.354000,-10.474440
  0.356000,-10.350870
  0.358000,-10.225140
  0.360000,-10.095070
  0.362000, -9.976080
  0.364000, -9.865460
  0.366000, -9.762950
  0.368000, -9.672410
  0.370000, -9.593630
  0.372000, -9.514660
  0.374000, -9.442430
  0.376000, -9.366480
  0.378000, -9.277610
  0.380000, -9.170360
  0.382000, -9.044640
  0.384000, -8.890710
  0.386000, -8.729300
  0.388000, -8.552220
  0.390000, -8.377760
  0.392000, -8.195940
  0.394000, -8.022320
  0.396000, -7.849550
  0.398000, -7.698940
  0.400000, -7.549050
  0.402000, -7.406130
  0.404000, -7.269940
  0.406000, -7.145880
  0.408000, -7.017120
  0.410000, -6.891920
  0.412000, -6.761080
  0.414000, -6.627830
  0.416000, -6.494070
  0.418000, -6.363410
  0.420000, -6.232100
  0.422000, -6.098340
  0.424000, -5.975060
  0.426000, -5.853400
  0.428000, -5.746010
  0.430000, -5.639160
  0.432000, -5.548950
  0.434000, -5.457840
  0.436000, -5.377350
  0.438000, -5.301640
  0.440000, -5.227040
  0.442000, -5.159170
  0.444000, -5.095050
  0.446000, -5.032390
  0.448000, -4.966910
  0.450000, -4.905720
  0.452000, -4.835300
  0.454000, -4.771780
  0.456000, -4.708910
  0.458000, -4.650000
  0.460000, -4.592100
  0.462000, -4.534490
  0.464000, -4.471010
  0.466000, -4.403370
  0.468000, -4.330440
  0.470000, -4.250090
  0.472000, -4.145660
  0.474000, -4.037030
  0.476000, -3.911190
  0.478000, -3.772590
  0.480000, -3.621870
  0.482000, -3.462360
  0.484000, -3.298710
  0.486000, -3.135340
  0.488000, -2.972340
  0.490000, -2.817390
  0.492000, -2.661140
  0.494000, -2.507720
  0.496000, -2.352210
  0.498000, -2.203700
  0.500000, -2.051820
  0.502000, -1.902840
  0.504000, -1.761010
  0.506000, -1.610580
  0.508000, -1.459330
  0.510000, -1.311670
  0.512000, -1.161840
  0.514000, -1.013080
  0.516000, -0.860900
  0.518000, -0.706900
  0.520000, -0.549630
  0.522000, -0.390050
  0.524000, -0.228060
  0.526000, -0.065380
  0.528000,  0.081510
  0.530000,  0.225990
  0.532000,  0.371630
  0.534000,  0.498850
  0.536000,  0.620260
  0.538000,  0.728440
  0.540000,  0.826300
  0.542000,  0.914020
  0.544000,  0.998140
  0.546000,  1.080650
  0.548000,  1.162700
  0.550000,  1.248050
  0.552000,  1.327300
  0.554000,  1.401400
  0.556000,  1.480220
  0.558000,  1.547710
  0.560000,  1.596700
  0.562000,  1.638550
  0.564000,  1.666480
  0.566000,  1.682260
  0.568000,  1.693210
  0.570000,  1.692500
  0.572000,  1.688430
  0.574000,  1.681710
  0.576000,  1.680700
  0.578000,  1.673910
  0.580000,  1.669070
  0.582000,  1.669400
  0.584000,  1.655130
  0.586000,  1.637340
  0.588000,  1.610310
  0.590000,  1.575040
  0.592000,  1.536870
  0.594000,  1.487830
  0.596000,  1.431160
  0.598000,  1.377120
  0.600000,  1.311840
  0.602000,  1.248890
  0.604000,  1.188800
  0.606000,  1.123480
  0.608000,  1.058170
  0.610000,  0.997870
  0.612000,  0.933240
  0.614000,  0.869590
  0.616000,  0.799490
  0.618000,  0.731380
  0.620000,  0.663580
  0.622000,  0.588900
  0.624000,  0.501870
  0.626000,  0.428210
  0.628000,  0.346850
  0.630000,  0.266770
  0.632000,  0.175290
  0.634000,  0.096410
  0.636000,  0.020000
  0.638000, -0.051670
  0.640000, -0.122800
  0.642000, -0.186180
  0.644000, -0.234970
  0.646000, -0.289150
  0.648000, -0.335440
  0.650000, -0.379590
  0.652000, -0.421380
  0.654000, -0.461480
  0.656000, -0.499700
  0.658000, -0.538340
  0.660000, -0.575320
  0.662000, -0.613320
  0.664000, -0.649230
  0.666000, -0.677680
  0.668000, -0.709260
  0.670000, -0.742250
  0.672000, -0.771970
  0.674000, -0.799990
  0.676000, -0.834080
  0.678000, -0.862420
  0.680000, -0.885230
  0.682000, -0.911440
  0.684000, -0.935180
  0.686000, -0.953980
  0.688000, -0.970650
  0.690000, -0.990810
  0.692000, -1.003710
  0.694000, -1.018150
  0.696000, -1.033000
  0.698000, -1.037970
  0.700000, -1.046660
  0.702000, -1.050140
  0.704000, -1.051900
  0.706000, -1.058250
  0.708000, -1.065490
  0.710000, -1.064950
  0.712000, -1.071450
  0.714000, -1.068440
  0.716000, -1.062560
  0.718000, -1.063370
  0.720000, -1.052180
  0.722000, -1.042240
  0.724000, -1.028390
  0.726000, -1.005340
  0.728000, -0.983460
  0.730000, -0.956050
  0.732000, -0.930740
  0.734000, -0.900000
  0.736000, -0.868900
  0.738000, -0.840610
  0.740000, -0.817670
  0.742000, -0.790960
  0.744000, -0.767150
  0.746000, -0.744170
  0.748000, -0.723200
  0.750000, -0.695850
  0.752000, -0.669830
  0.754000, -0.646530
  0.756000, -0.617020
  0.758000, -0.585210
  0.760000, -0.552410
  0.762000, -0.519650
  0.764000, -0.495300
  0.766000, -0.467190
  0.768000, -0.441430
  0.770000, -0.419990
  0.772000, -0.401650
  0.774000, -0.392980
  0.776000, -0.384500
  0.778000, -0.381590
  0.780000, -0.378270
  0.782000, -0.382970
  0.784000, -0.382810
  0.786000, -0.381760
  0.788000, -0.383080
  0.790000, -0.373310
  0.792000, -0.363580
  0.794000, -0.348280
  0.796000, -0.320270
  0.798000, -0.288690
  0.800000, -0.254500
  0.802000, -0.206630
  0.804000, -0.169070
  0.806000, -0.131040
  0.808000, -0.091450
  0.810000, -0.057740
  0.812000, -0.026030
  0.814000, -0.000600
  0.816000,  0.023570
  0.818000,  0.044660
  0.820000,  0.056470
  0.822000,  0.063950
  0.824000,  0.064260
  0.826000,  0.068780
  0.828000,  0.072800
  0.830000,  0.077890
  0.832000,  0.081110
  0.834000,  0.089100
  0.836000,  0.104890
  0.838000,  0.123420
  0.840000,  0.145120
  0.842000,  0.170200
  0.844000,  0.191200
  0.846000,  0.216720
  0.848000,  0.241100
  0.850000,  0.264570
  0.852000,  0.287010
  0.854000,  0.303310
  0.856000,  0.308450
  0.858000,  0.306650
  0.860000,  0.299220
  0.862000,  0.287770
  0.864000,  0.274420
  0.866000,  0.262320
  0.868000,  0.251990
  0.870000,  0.245330
  0.872000,  0.246810
  0.874000,  0.249150
  0.876000,  0.251810
  0.878000,  0.264580
  0.880000,  0.281240
  0.882000,  0.302910
  0.884000,  0.320380
  0.886000,  0.341100
  0.888000,  0.357690
  0.890000,  0.368890
  0.892000,  0.371970
  0.894000,  0.370300
  0.896000,  0.361400
  0.898000,  0.347640
  0.900000,  0.329810
  0.902000,  0.308710
  0.904000,  0.289990
  0.906000,  0.265970
  0.908000,  0.245910
  0.910000,  0.221080
  0.912000,  0.196010
  0.914000,  0.170760
  0.916000,  0.151540
  0.918000,  0.138290
  0.920000,  0.118700
  0.922000,  0.102620
  0.924000,  0.090340
  0.926000,  0.083260
  0.928000,  0.076280
  0.930000,  0.067850
  0.932000,  0.062450
  0.934000,  0.057020
  0.936000,  0.052140
  0.938000,  0.047810
  0.940000,  0.044060
  0.942000,  0.044600
  0.944000,  0.038560
  0.946000,  0.028470
  0.948000,  0.022730
  0.950000,  0.016810
  0.952000,  0.010110
  0.954000,  0.003810
  0.956000,  0.001060
  0.958000, -0.011770
  0.960000, -0.022520
  0.962000, -0.036690
  0.964000, -0.056100
  0.966000, -0.069520
  0.968000, -0.085060
  0.970000, -0.094180
  0.972000, -0.110770
  0.974000, -0.122990
  0.976000, -0.134530
  0.978000, -0.147950
  0.980000, -0.158330
  0.982000, -0.166390
  0.984000, -0.176180
  0.986000, -0.180960
  0.988000, -0.186920
  0.990000, -0.187850
  0.992000, -0.193330
  0.994000, -0.198190
  0.996000, -0.201040
  0.998000, -0.206340
  1.000000, -0.209340
