# z (nm)   (kJ/mol)
  0.074000,275.850140
  0.076000,273.436010
  0.078000,269.693740
  0.080000,267.071620
  0.082000,264.676500
  0.084000,262.237380
  0.086000,259.787670
  0.088000,257.355340
  0.090000,254.903920
  0.092000,252.429400
  0.094000,249.900140
  0.096000,247.316170
  0.098000,244.665240
  0.100000,241.934360
  0.102000,239.112650
  0.104000,236.181870
  0.106000,233.139170
  0.108000,229.971400
  0.110000,226.677210
  0.112000,223.252920
  0.114000,219.696760
  0.116000,216.010660
  0.118000,212.209380
  0.120000,208.296790
  0.122000,204.289320
  0.124000,200.213030
  0.126000,196.086550
  0.128000,191.937760
  0.130000,187.786530
  0.132000,183.669890
  0.134000,179.598020
  0.136000,175.583140
  0.138000,171.626970
  0.140000,167.728550
  0.142000,163.882400
  0.144000,160.079540
  0.146000,156.317730
  0.148000,152.600650
  0.150000,148.944910
  0.152000,145.368820
  0.154000,141.890050
  0.156000,138.513010
  0.158000,135.224950
  0.160000,131.999020
  0.162000,128.809210
  0.164000,125.640930
  0.166000,122.482480
  0.168000,119.340780
  0.170000,116.219720
  0.172000,113.129740
  0.174000,110.082870
  0.176000,107.090610
  0.178000,104.163760
  0.180000,101.307470
  0.182000, 98.521890
  0.184000, 95.801080
  0.186000, 93.135260
  0.188000, 90.511440
  0.190000, 87.916030
  0.192000, 85.354360
  0.194000, 82.814170
  0.196000, 80.302800
  0.198000, 77.827100
  0.200000, 75.402110
  0.202000, 73.025100
  0.204000, 70.696530
  0.206000, 68.424770
  0.208000, 66.196370
  0.210000, 64.018060
  0.212000, 61.883630
  0.214000, 59.782680
  0.216000, 57.721320
  0.218000, 55.693990
  0.220000, 53.712160
  0.222000, 51.764750
  0.224000, 49.853560
  0.226000, 47.985650
  0.228000, 46.147670
  0.230000, 44.360700
  0.232000, 42.606640
  0.234000, 40.893680
  0.236000, 39.216340
  0.238000, 37.581640
  0.240000, 35.990290
  0.242000, 34.449730
  0.244000, 32.949260
  0.246000, 31.493710
  0.248000, 30.078300
  0.250000, 28.693310
  0.252000, 27.341220
  0.254000, 26.026470
  0.256000, 24.744640
  0.258000, 23.494190
  0.260000, 22.289660
  0.262000, 21.121090
  0.264000, 19.998300
  0.266000, 18.919220
  0.268000, 17.877640
  0.270000, 16.871210
  0.272000, 15.901800
  0.274000, 14.960680
  0.276000, 14.049240
  0.278000, 13.165170
  0.280000, 12.313470
  0.282000, 11.493260
  0.284000, 10.699350
  0.286000,  9.933080
  0.288000,  9.213530
  0.290000,  8.532560
  0.292000,  7.899020
  0.294000,  7.302710
  0.296000,  6.740700
  0.298000,  6.217510
  0.300000,  5.739670
  0.302000,  5.274020
  0.304000,  4.829710
  0.306000,  4.403810
  0.308000,  3.995950
  0.310000,  3.598800
  0.312000,  3.210350
  0.314000,  2.840640
  0.316000,  2.481180
  0.318000,  2.148600
  0.320000,  1.839280
  0.322000,  1.550980
  0.324000,  1.287660
  0.326000,  1.051140
  0.328000,  0.834540
  0.330000,  0.641080
  0.332000,  0.463320
  0.334000,  0.288930
  0.336000,  0.121390
  0.338000, -0.043060
  0.340000, -0.201120
  0.342000, -0.349220
  0.344000, -0.493230
  0.346000, -0.624050
  0.348000, -0.742240
  0.350000, -0.835720
  0.352000, -0.918770
  0.354000, -0.990200
  0.356000, -1.051260
  0.358000, -1.106050
  0.360000, -1.156560
  0.362000, -1.213080
  0.364000, -1.274260
  0.366000, -1.352840
  0.368000, -1.429720
  0.370000, -1.510260
  0.372000, -1.579520
  0.374000, -1.644410
  0.376000, -1.692440
  0.378000, -1.716270
  0.380000, -1.732220
  0.382000, -1.738630
  0.384000, -1.730230
  0.386000, -1.715890
  0.388000, -1.706280
  0.390000, -1.695880
  0.392000, -1.688440
  0.394000, -1.695750
  0.396000, -1.705580
  0.398000, -1.719110
  0.400000, -1.739060
  0.402000, -1.756460
  0.404000, -1.775460
  0.406000, -1.796620
  0.408000, -1.817810
  0.410000, -1.842860
  0.412000, -1.866780
  0.414000, -1.894270
  0.416000, -1.931210
  0.418000, -1.977420
  0.420000, -2.029060
  0.422000, -2.081540
  0.424000, -2.134300
  0.426000, -2.193030
  0.428000, -2.258870
  0.430000, -2.320290
  0.432000, -2.376590
  0.434000, -2.438170
  0.436000, -2.496340
  0.438000, -2.559650
  0.440000, -2.618340
  0.442000, -2.671460
  0.444000, -2.726800
  0.446000, -2.779920
  0.448000, -2.819910
  0.450000, -2.849230
  0.452000, -2.866280
  0.454000, -2.860970
  0.456000, -2.850360
  0.458000, -2.822320
  0.460000, -2.777600
  0.462000, -2.719710
  0.464000, -2.649950
  0.466000, -2.577720
  0.468000, -2.497070
  0.470000, -2.414550
  0.472000, -2.332470
  0.474000, -2.248560
  0.476000, -2.163400
  0.478000, -2.070600
  0.480000, -1.968750
  0.482000, -1.850940
  0.484000, -1.715150
  0.486000, -1.559570
  0.488000, -1.390570
  0.490000, -1.198530
  0.492000, -1.009750
  0.494000, -0.815730
  0.496000, -0.622620
  0.498000, -0.443390
  0.500000, -0.278490
  0.502000, -0.133830
  0.504000, -0.000600
  0.506000,  0.111140
  0.508000,  0.213700
  0.510000,  0.307500
  0.512000,  0.407720
  0.514000,  0.515380
  0.516000,  0.627070
  0.518000,  0.749350
  0.520000,  0.888170
  0.522000,  1.031470
  0.524000,  1.177440
  0.526000,  1.321220
  0.528000,  1.450990
  0.530000,  1.564700
  0.532000,  1.654340
  0.534000,  1.726000
  0.536000,  1.765370
  0.538000,  1.780920
  0.540000,  1.767110
  0.542000,  1.745070
  0.544000,  1.703800
  0.546000,  1.657740
  0.548000,  1.618860
  0.550000,  1.571940
  0.552000,  1.530350
  0.554000,  1.494160
  0.556000,  1.464330
  0.558000,  1.428460
  0.560000,  1.392090
  0.562000,  1.349780
  0.564000,  1.297600
  0.566000,  1.232620
  0.568000,  1.161210
  0.570000,  1.077290
  0.572000,  0.990850
  0.574000,  0.899250
  0.576000,  0.813380
  0.578000,  0.724540
  0.580000,  0.645100
  0.582000,  0.570890
  0.584000,  0.504860
  0.586000,  0.449620
  0.588000,  0.395920
  0.590000,  0.349710
  0.592000,  0.305760
  0.594000,  0.264790
  0.596000,  0.231340
  0.598000,  0.196630
  0.600000,  0.162370
  0.602000,  0.131120
  0.604000,  0.094800
  0.606000,  0.055280
  0.608000,  0.010480
  0.610000, -0.032800
  0.612000, -0.075620
  0.614000, -0.129860
  0.616000, -0.178770
  0.618000, -0.219420
  0.620000, -0.258500
  0.622000, -0.289220
  0.624000, -0.314740
  0.626000, -0.332090
  0.628000, -0.344060
  0.630000, -0.352970
  0.632000, -0.358750
  0.634000, -0.359330
  0.636000, -0.361600
  0.638000, -0.369000
  0.640000, -0.374890
  0.642000, -0.377500
  0.644000, -0.378150
  0.646000, -0.379740
  0.648000, -0.380650
  0.650000, -0.381330
  0.652000, -0.387490
  0.654000, -0.385740
  0.656000, -0.387510
  0.658000, -0.386160
  0.660000, -0.382060
  0.662000, -0.374760
  0.664000, -0.364850
  0.666000, -0.348170
  0.668000, -0.334100
  0.670000, -0.316100
  0.672000, -0.289870
  0.674000, -0.269090
  0.676000, -0.241690
  0.678000, -0.203720
  0.680000, -0.166950
  0.682000, -0.133400
  0.684000, -0.111450
  0.686000, -0.085450
  0.688000, -0.077970
  0.690000, -0.082850
  0.692000, -0.097110
  0.694000, -0.121140
  0.696000, -0.151210
  0.698000, -0.180790
  0.700000, -0.200680
  0.702000, -0.212280
  0.704000, -0.207680
  0.706000, -0.182780
  0.708000, -0.138590
  0.710000, -0.079700
  0.712000, -0.016110
  0.714000,  0.051150
  0.716000,  0.100520
  0.718000,  0.133900
  0.720000,  0.150330
  0.722000,  0.145830
  0.724000,  0.133190
  0.726000,  0.106750
  0.728000,  0.070110
  0.730000,  0.032720
  0.732000, -0.006170
  0.734000, -0.033780
  0.736000, -0.055520
  0.738000, -0.057490
  0.740000, -0.048090
  0.742000, -0.032600
  0.744000, -0.003670
  0.746000,  0.031410
  0.748000,  0.070730
  0.750000,  0.114090
  0.752000,  0.158730
  0.754000,  0.185900
  0.756000,  0.206370
  0.758000,  0.213050
  0.760000,  0.207900
  0.762000,  0.194450
  0.764000,  0.175820
  0.766000,  0.146170
  0.768000,  0.113540
  0.770000,  0.078310
  0.772000,  0.051670
  0.774000,  0.020230
  0.776000,  0.004970
  0.778000, -0.003520
  0.780000,  0.003000
  0.782000,  0.015210
  0.784000,  0.023780
  0.786000,  0.036620
  0.788000,  0.044710
  0.790000,  0.052700
  0.792000,  0.054140
  0.794000,  0.046160
  0.796000,  0.035790
  0.798000,  0.025700
  0.800000,  0.011470
  0.802000,  0.000720
  0.804000, -0.007160
  0.806000, -0.006900
  0.808000, -0.000100
  0.810000,  0.008800
  0.812000,  0.020160
  0.814000,  0.030590
  0.816000,  0.042220
  0.818000,  0.047450
  0.820000,  0.049910
  0.822000,  0.043660
  0.824000,  0.023960
  0.826000, -0.005110
  0.828000, -0.034840
  0.830000, -0.063250
  0.832000, -0.087780
  0.834000, -0.103130
  0.836000, -0.107820
  0.838000, -0.107370
  0.840000, -0.102590
  0.842000, -0.086630
  0.844000, -0.067570
  0.846000, -0.054120
  0.848000, -0.042530
  0.850000, -0.043980
  0.852000, -0.041310
  0.854000, -0.047460
  0.856000, -0.052130
  0.858000, -0.059700
  0.860000, -0.065370
  0.862000, -0.068850
  0.864000, -0.068700
  0.866000, -0.069830
  0.868000, -0.068850
  0.870000, -0.068910
  0.872000, -0.069570
  0.874000, -0.070270
  0.876000, -0.068650
  0.878000, -0.061170
  0.880000, -0.057890
  0.882000, -0.055480
  0.884000, -0.049090
  0.886000, -0.043860
  0.888000, -0.036420
  0.890000, -0.030460
  0.892000, -0.030390
  0.894000, -0.028410
  0.896000, -0.025240
  0.898000, -0.025860
  0.900000, -0.015920
  0.902000, -0.014420
  0.904000, -0.022100
  0.906000, -0.027720
  0.908000, -0.029380
  0.910000, -0.036160
  0.912000, -0.044030
  0.914000, -0.049440
  0.916000, -0.052700
  0.918000, -0.048420
  0.920000, -0.034810
  0.922000, -0.017050
  0.924000,  0.001250
  0.926000,  0.027670
  0.928000,  0.047350
  0.930000,  0.066830
  0.932000,  0.081150
  0.934000,  0.090690
  0.936000,  0.090730
  0.938000,  0.090030
  0.940000,  0.085260
  0.942000,  0.079280
  0.944000,  0.064680
  0.946000,  0.055980
  0.948000,  0.049720
  0.950000,  0.045890
  0.952000,  0.043090
  0.954000,  0.043520
  0.956000,  0.046500
  0.958000,  0.049730
  0.960000,  0.056760
  0.962000,  0.060890
  0.964000,  0.066940
  0.966000,  0.067830
  0.968000,  0.059990
  0.970000,  0.044280
  0.972000,  0.037480
  0.974000,  0.022160
  0.976000, -0.002860
  0.978000, -0.031720
  0.980000, -0.065650
  0.982000, -0.093310
  0.984000, -0.113780
  0.986000, -0.130560
  0.988000, -0.131460
  0.990000, -0.124770
  0.992000, -0.112430
  0.994000, -0.096460
  0.996000, -0.077190
  0.998000, -0.063470
  1.000000, -0.055800
