# z (nm)   (kJ/mol)
  0.134000,276.062340
  0.136000,273.468530
  0.138000,270.232670
  0.140000,267.620650
  0.142000,264.771370
  0.144000,261.702430
  0.146000,258.898330
  0.148000,256.050320
  0.150000,253.192970
  0.152000,250.219210
  0.154000,247.165170
  0.156000,244.037730
  0.158000,240.810650
  0.160000,237.458620
  0.162000,233.979480
  0.164000,230.370710
  0.166000,226.621150
  0.168000,222.735720
  0.170000,218.721200
  0.172000,214.585970
  0.174000,210.345500
  0.176000,206.018860
  0.178000,201.631280
  0.180000,197.208600
  0.182000,192.775570
  0.184000,188.351330
  0.186000,183.968220
  0.188000,179.639270
  0.190000,175.381700
  0.192000,171.200450
  0.194000,167.110150
  0.196000,163.117440
  0.198000,159.219720
  0.200000,155.421450
  0.202000,151.722170
  0.204000,148.108780
  0.206000,144.575690
  0.208000,141.112830
  0.210000,137.709180
  0.212000,134.357690
  0.214000,131.052030
  0.216000,127.784380
  0.218000,124.556780
  0.220000,121.366110
  0.222000,118.221610
  0.224000,115.126930
  0.226000,112.091200
  0.228000,109.114140
  0.230000,106.184550
  0.232000,103.277920
  0.234000,100.367100
  0.236000, 97.435280
  0.238000, 94.469530
  0.240000, 91.477630
  0.242000, 88.491640
  0.244000, 85.540850
  0.246000, 82.655130
  0.248000, 79.851390
  0.250000, 77.160290
  0.252000, 74.571860
  0.254000, 72.070210
  0.256000, 69.632190
  0.258000, 67.238760
  0.260000, 64.868150
  0.262000, 62.515500
  0.264000, 60.193110
  0.266000, 57.908820
  0.268000, 55.667910
  0.270000, 53.484390
  0.272000, 51.367740
  0.274000, 49.314010
  0.276000, 47.319190
  0.278000, 45.366230
  0.280000, 43.450560
  0.282000, 41.571030
  0.284000, 39.711280
  0.286000, 37.886610
  0.288000, 36.102320
  0.290000, 34.356920
  0.292000, 32.660230
  0.294000, 31.019300
  0.296000, 29.436520
  0.298000, 27.917040
  0.300000, 26.441580
  0.302000, 25.007800
  0.304000, 23.609810
  0.306000, 22.220760
  0.308000, 20.852050
  0.310000, 19.501750
  0.312000, 18.170770
  0.314000, 16.869630
  0.316000, 15.617250
  0.318000, 14.414150
  0.320000, 13.268460
  0.322000, 12.186100
  0.324000, 11.143600
  0.326000, 10.136460
  0.328000,  9.154370
  0.330000,  8.196170
  0.332000,  7.261390
  0.334000,  6.362980
  0.336000,  5.496500
  0.338000,  4.674390
  0.340000,  3.894840
  0.342000,  3.148330
  0.344000,  2.435630
  0.346000,  1.740610
  0.348000,  1.058100
  0.350000,  0.380810
  0.352000, -0.294870
  0.354000, -0.953660
  0.356000, -1.590130
  0.358000, -2.197120
  0.360000, -2.766530
  0.362000, -3.285760
  0.364000, -3.758130
  0.366000, -4.167480
  0.368000, -4.518290
  0.370000, -4.825760
  0.372000, -5.097940
  0.374000, -5.340070
  0.376000, -5.572610
  0.378000, -5.817070
  0.380000, -6.062800
  0.382000, -6.316110
  0.384000, -6.579110
  0.386000, -6.842390
  0.388000, -7.091680
  0.390000, -7.305020
  0.392000, -7.497480
  0.394000, -7.643280
  0.396000, -7.738710
  0.398000, -7.782690
  0.400000, -7.778880
  0.402000, -7.746180
  0.404000, -7.683150
  0.406000, -7.607380
  0.408000, -7.530460
  0.410000, -7.474380
  0.412000, -7.426350
  0.414000, -7.400450
  0.416000, -7.387800
  0.418000, -7.384980
  0.420000, -7.381070
  0.422000, -7.361970
  0.424000, -7.325340
  0.426000, -7.261660
  0.428000, -7.180140
  0.430000, -7.072350
  0.432000, -6.944860
  0.434000, -6.805040
  0.436000, -6.653790
  0.438000, -6.498300
  0.440000, -6.340550
  0.442000, -6.172570
  0.444000, -6.008430
  0.446000, -5.843150
  0.448000, -5.680420
  0.450000, -5.522110
  0.452000, -5.381730
  0.454000, -5.245550
  0.456000, -5.120070
  0.458000, -4.999760
  0.460000, -4.885360
  0.462000, -4.769080
  0.464000, -4.652260
  0.466000, -4.525520
  0.468000, -4.393620
  0.470000, -4.248410
  0.472000, -4.099190
  0.474000, -3.947750
  0.476000, -3.782320
  0.478000, -3.617890
  0.480000, -3.449830
  0.482000, -3.277250
  0.484000, -3.112880
  0.486000, -2.961210
  0.488000, -2.816720
  0.490000, -2.685310
  0.492000, -2.569500
  0.494000, -2.458500
  0.496000, -2.346300
  0.498000, -2.230480
  0.500000, -2.111430
  0.502000, -1.977420
  0.504000, -1.824640
  0.506000, -1.656820
  0.508000, -1.479780
  0.510000, -1.297640
  0.512000, -1.110300
  0.514000, -0.933510
  0.516000, -0.769290
  0.518000, -0.617130
  0.520000, -0.474420
  0.522000, -0.341860
  0.524000, -0.218200
  0.526000, -0.099710
  0.528000,  0.016080
  0.530000,  0.130380
  0.532000,  0.247240
  0.534000,  0.366580
  0.536000,  0.482830
  0.538000,  0.607410
  0.540000,  0.724870
  0.542000,  0.840830
  0.544000,  0.949090
  0.546000,  1.052190
  0.548000,  1.150040
  0.550000,  1.245320
  0.552000,  1.327920
  0.554000,  1.405050
  0.556000,  1.484240
  0.558000,  1.548880
  0.560000,  1.608730
  0.562000,  1.650460
  0.564000,  1.694720
  0.566000,  1.732550
  0.568000,  1.768630
  0.570000,  1.800940
  0.572000,  1.829720
  0.574000,  1.856600
  0.576000,  1.875700
  0.578000,  1.888600
  0.580000,  1.897130
  0.582000,  1.900220
  0.584000,  1.889360
  0.586000,  1.868130
  0.588000,  1.835630
  0.590000,  1.795450
  0.592000,  1.753230
  0.594000,  1.697680
  0.596000,  1.640270
  0.598000,  1.581010
  0.600000,  1.520180
  0.602000,  1.459560
  0.604000,  1.400540
  0.606000,  1.338270
  0.608000,  1.274160
  0.610000,  1.216040
  0.612000,  1.143090
  0.614000,  1.061820
  0.616000,  0.983450
  0.618000,  0.894750
  0.620000,  0.800350
  0.622000,  0.697560
  0.624000,  0.589550
  0.626000,  0.483900
  0.628000,  0.378980
  0.630000,  0.272930
  0.632000,  0.171060
  0.634000,  0.074030
  0.636000, -0.018010
  0.638000, -0.108420
  0.640000, -0.190280
  0.642000, -0.277970
  0.644000, -0.371030
  0.646000, -0.467010
  0.648000, -0.555350
  0.650000, -0.654010
  0.652000, -0.748690
  0.654000, -0.842560
  0.656000, -0.939300
  0.658000, -1.033150
  0.660000, -1.127500
  0.662000, -1.220840
  0.664000, -1.318900
  0.666000, -1.419380
  0.668000, -1.516050
  0.670000, -1.612550
  0.672000, -1.705580
  0.674000, -1.794570
  0.676000, -1.870440
  0.678000, -1.943630
  0.680000, -2.010690
  0.682000, -2.066820
  0.684000, -2.113290
  0.686000, -2.151300
  0.688000, -2.182870
  0.690000, -2.213590
  0.692000, -2.252380
  0.694000, -2.283210
  0.696000, -2.319130
  0.698000, -2.358540
  0.700000, -2.391050
  0.702000, -2.422110
  0.704000, -2.442930
  0.706000, -2.460510
  0.708000, -2.476070
  0.710000, -2.486390
  0.712000, -2.493600
  0.714000, -2.501510
  0.716000, -2.494740
  0.718000, -2.487000
  0.720000, -2.475930
  0.722000, -2.460180
  0.724000, -2.440270
  0.726000, -2.410100
  0.728000, -2.373300
  0.730000, -2.331580
  0.732000, -2.285480
  0.734000, -2.231480
  0.736000, -2.173470
  0.738000, -2.122910
  0.740000, -2.073780
  0.742000, -2.027230
  0.744000, -1.988130
  0.746000, -1.954900
  0.748000, -1.930130
  0.750000, -1.909660
  0.752000, -1.883920
  0.754000, -1.859950
  0.756000, -1.840030
  0.758000, -1.814380
  0.760000, -1.778950
  0.762000, -1.729020
  0.764000, -1.674480
  0.766000, -1.611390
  0.768000, -1.543200
  0.770000, -1.469300
  0.772000, -1.399040
  0.774000, -1.337590
  0.776000, -1.283370
  0.778000, -1.239990
  0.780000, -1.206760
  0.782000, -1.185320
  0.784000, -1.155530
  0.786000, -1.135450
  0.788000, -1.105380
  0.790000, -1.061990
  0.792000, -1.008750
  0.794000, -0.944310
  0.796000, -0.868540
  0.798000, -0.788170
  0.800000, -0.704470
  0.802000, -0.626220
  0.804000, -0.548760
  0.806000, -0.473550
  0.808000, -0.410590
  0.810000, -0.354250
  0.812000, -0.304210
  0.814000, -0.258210
  0.816000, -0.220940
  0.818000, -0.178200
  0.820000, -0.140150
  0.822000, -0.101680
  0.824000, -0.054580
  0.826000, -0.010710
  0.828000,  0.034900
  0.830000,  0.073440
  0.832000,  0.113620
  0.834000,  0.153050
  0.836000,  0.187970
  0.838000,  0.218030
  0.840000,  0.247460
  0.842000,  0.272900
  0.844000,  0.304550
  0.846000,  0.327280
  0.848000,  0.353750
  0.850000,  0.383140
  0.852000,  0.411480
  0.854000,  0.437630
  0.856000,  0.463570
  0.858000,  0.482080
  0.860000,  0.501960
  0.862000,  0.512130
  0.864000,  0.519830
  0.866000,  0.520340
  0.868000,  0.512840
  0.870000,  0.504710
  0.872000,  0.491830
  0.874000,  0.483330
  0.876000,  0.473600
  0.878000,  0.463320
  0.880000,  0.455920
  0.882000,  0.455800
  0.884000,  0.464030
  0.886000,  0.478820
  0.888000,  0.496820
  0.890000,  0.517750
  0.892000,  0.540980
  0.894000,  0.559000
  0.896000,  0.570100
  0.898000,  0.582030
  0.900000,  0.579060
  0.902000,  0.569840
  0.904000,  0.553380
  0.906000,  0.525390
  0.908000,  0.492600
  0.910000,  0.457960
  0.912000,  0.421370
  0.914000,  0.388850
  0.916000,  0.354950
  0.918000,  0.323910
  0.920000,  0.297600
  0.922000,  0.279950
  0.924000,  0.265280
  0.926000,  0.252960
  0.928000,  0.245680
  0.930000,  0.234130
  0.932000,  0.224550
  0.934000,  0.212710
  0.936000,  0.196390
  0.938000,  0.185740
  0.940000,  0.161310
  0.942000,  0.137150
  0.944000,  0.112930
  0.946000,  0.092950
  0.948000,  0.075260
  0.950000,  0.055010
  0.952000,  0.036850
  0.954000,  0.012440
  0.956000, -0.017800
  0.958000, -0.043960
  0.960000, -0.074190
  0.962000, -0.101200
  0.964000, -0.133440
  0.966000, -0.167700
  0.968000, -0.199040
  0.970000, -0.228160
  0.972000, -0.263500
  0.974000, -0.295050
  0.976000, -0.330130
  0.978000, -0.365990
  0.980000, -0.397710
  0.982000, -0.424650
  0.984000, -0.441370
  0.986000, -0.458990
  0.988000, -0.469710
  0.990000, -0.471500
  0.992000, -0.470660
  0.994000, -0.463280
  0.996000, -0.453220
  0.998000, -0.446500
  1.000000, -0.449390
