# z (nm)   (kJ/mol)
  0.064000,282.861350
  0.066000,279.667370
  0.068000,276.393090
  0.070000,273.514640
  0.072000,270.749410
  0.074000,267.804640
  0.076000,264.904800
  0.078000,262.034730
  0.080000,259.154270
  0.082000,256.233020
  0.084000,253.267720
  0.086000,250.244790
  0.088000,247.163600
  0.090000,244.022480
  0.092000,240.810930
  0.094000,237.518210
  0.096000,234.144730
  0.098000,230.674360
  0.100000,227.122900
  0.102000,223.477600
  0.104000,219.741980
  0.106000,215.920050
  0.108000,212.010310
  0.110000,208.037200
  0.112000,204.009320
  0.114000,199.934630
  0.116000,195.836530
  0.118000,191.731740
  0.120000,187.629380
  0.122000,183.539750
  0.124000,179.475770
  0.126000,175.447720
  0.128000,171.461900
  0.130000,167.525760
  0.132000,163.643630
  0.134000,159.827850
  0.136000,156.089470
  0.138000,152.429460
  0.140000,148.857450
  0.142000,145.372080
  0.144000,141.976490
  0.146000,138.661920
  0.148000,135.419090
  0.150000,132.237840
  0.152000,129.112550
  0.154000,126.024490
  0.156000,122.981040
  0.158000,119.974720
  0.160000,117.003480
  0.162000,114.075470
  0.164000,111.175690
  0.166000,108.310760
  0.168000,105.468550
  0.170000,102.652600
  0.172000, 99.850580
  0.174000, 97.063770
  0.176000, 94.295460
  0.178000, 91.545590
  0.180000, 88.821790
  0.182000, 86.131490
  0.184000, 83.480370
  0.186000, 80.874240
  0.188000, 78.314140
  0.190000, 75.806480
  0.192000, 73.350090
  0.194000, 70.943710
  0.196000, 68.575180
  0.198000, 66.246980
  0.200000, 63.942800
  0.202000, 61.669330
  0.204000, 59.420430
  0.206000, 57.199920
  0.208000, 55.007120
  0.210000, 52.847740
  0.212000, 50.732640
  0.214000, 48.671400
  0.216000, 46.673200
  0.218000, 44.745150
  0.220000, 42.889710
  0.222000, 41.106390
  0.224000, 39.382240
  0.226000, 37.707740
  0.228000, 36.065070
  0.230000, 34.435350
  0.232000, 32.810460
  0.234000, 31.165200
  0.236000, 29.511840
  0.238000, 27.855360
  0.240000, 26.228330
  0.242000, 24.654130
  0.244000, 23.170510
  0.246000, 21.786610
  0.248000, 20.496730
  0.250000, 19.292460
  0.252000, 18.130670
  0.254000, 16.987170
  0.256000, 15.829860
  0.258000, 14.658730
  0.260000, 13.464940
  0.262000, 12.272020
  0.264000, 11.106580
  0.266000, 10.000500
  0.268000,  8.955100
  0.270000,  7.988050
  0.272000,  7.104900
  0.274000,  6.300040
  0.276000,  5.557500
  0.278000,  4.844000
  0.280000,  4.154930
  0.282000,  3.473860
  0.284000,  2.796530
  0.286000,  2.123120
  0.288000,  1.453970
  0.290000,  0.798710
  0.292000,  0.163650
  0.294000, -0.442930
  0.296000, -1.009600
  0.298000, -1.533600
  0.300000, -2.019440
  0.302000, -2.462370
  0.304000, -2.864850
  0.306000, -3.232310
  0.308000, -3.568140
  0.310000, -3.879660
  0.312000, -4.174130
  0.314000, -4.461910
  0.316000, -4.734650
  0.318000, -5.003490
  0.320000, -5.260810
  0.322000, -5.495210
  0.324000, -5.711120
  0.326000, -5.903330
  0.328000, -6.068150
  0.330000, -6.209990
  0.332000, -6.322690
  0.334000, -6.417770
  0.336000, -6.484950
  0.338000, -6.540160
  0.340000, -6.584290
  0.342000, -6.613520
  0.344000, -6.636580
  0.346000, -6.649240
  0.348000, -6.658150
  0.350000, -6.655280
  0.352000, -6.653950
  0.354000, -6.647450
  0.356000, -6.629280
  0.358000, -6.603970
  0.360000, -6.565220
  0.362000, -6.516390
  0.364000, -6.458760
  0.366000, -6.388020
  0.368000, -6.313880
  0.370000, -6.230990
  0.372000, -6.143680
  0.374000, -6.050550
  0.376000, -5.954790
  0.378000, -5.862340
  0.380000, -5.765000
  0.382000, -5.670840
  0.384000, -5.582420
  0.386000, -5.497650
  0.388000, -5.408220
  0.390000, -5.322360
  0.392000, -5.236960
  0.394000, -5.145890
  0.396000, -5.056460
  0.398000, -4.969030
  0.400000, -4.875150
  0.402000, -4.782820
  0.404000, -4.700070
  0.406000, -4.612600
  0.408000, -4.521750
  0.410000, -4.439460
  0.412000, -4.362280
  0.414000, -4.292640
  0.416000, -4.225460
  0.418000, -4.163230
  0.420000, -4.104790
  0.422000, -4.048380
  0.424000, -4.003390
  0.426000, -3.957100
  0.428000, -3.909400
  0.430000, -3.864000
  0.432000, -3.817750
  0.434000, -3.771340
  0.436000, -3.718320
  0.438000, -3.659450
  0.440000, -3.590130
  0.442000, -3.512790
  0.444000, -3.423100
  0.446000, -3.322680
  0.448000, -3.218240
  0.450000, -3.102640
  0.452000, -2.980950
  0.454000, -2.851400
  0.456000, -2.713540
  0.458000, -2.577810
  0.460000, -2.442050
  0.462000, -2.297020
  0.464000, -2.158150
  0.466000, -2.015080
  0.468000, -1.873330
  0.470000, -1.730970
  0.472000, -1.585230
  0.474000, -1.430520
  0.476000, -1.284570
  0.478000, -1.134140
  0.480000, -0.983420
  0.482000, -0.827460
  0.484000, -0.669330
  0.486000, -0.516330
  0.488000, -0.366540
  0.490000, -0.214440
  0.492000, -0.066710
  0.494000,  0.082310
  0.496000,  0.229150
  0.498000,  0.371000
  0.500000,  0.514240
  0.502000,  0.654240
  0.504000,  0.787440
  0.506000,  0.917800
  0.508000,  1.041030
  0.510000,  1.156470
  0.512000,  1.265530
  0.514000,  1.373650
  0.516000,  1.468660
  0.518000,  1.560590
  0.520000,  1.644970
  0.522000,  1.720250
  0.524000,  1.793780
  0.526000,  1.868540
  0.528000,  1.937870
  0.530000,  2.007340
  0.532000,  2.071900
  0.534000,  2.126910
  0.536000,  2.186890
  0.538000,  2.240470
  0.540000,  2.290640
  0.542000,  2.336460
  0.544000,  2.368810
  0.546000,  2.399160
  0.548000,  2.419640
  0.550000,  2.430760
  0.552000,  2.433470
  0.554000,  2.429680
  0.556000,  2.414650
  0.558000,  2.396610
  0.560000,  2.377380
  0.562000,  2.354110
  0.564000,  2.335860
  0.566000,  2.315720
  0.568000,  2.288560
  0.570000,  2.257410
  0.572000,  2.222370
  0.574000,  2.185700
  0.576000,  2.145030
  0.578000,  2.094990
  0.580000,  2.040300
  0.582000,  1.980650
  0.584000,  1.911690
  0.586000,  1.837510
  0.588000,  1.761310
  0.590000,  1.679750
  0.592000,  1.599990
  0.594000,  1.516660
  0.596000,  1.430060
  0.598000,  1.352560
  0.600000,  1.274550
  0.602000,  1.199860
  0.604000,  1.127640
  0.606000,  1.060100
  0.608000,  0.993890
  0.610000,  0.934370
  0.612000,  0.871780
  0.614000,  0.810390
  0.616000,  0.744520
  0.618000,  0.679550
  0.620000,  0.614040
  0.622000,  0.547350
  0.624000,  0.478120
  0.626000,  0.404520
  0.628000,  0.322570
  0.630000,  0.246450
  0.632000,  0.174900
  0.634000,  0.096020
  0.636000,  0.024820
  0.638000, -0.041260
  0.640000, -0.103800
  0.642000, -0.158500
  0.644000, -0.203750
  0.646000, -0.240550
  0.648000, -0.262980
  0.650000, -0.287450
  0.652000, -0.303560
  0.654000, -0.310010
  0.656000, -0.316390
  0.658000, -0.322030
  0.660000, -0.322570
  0.662000, -0.327160
  0.664000, -0.327800
  0.666000, -0.327850
  0.668000, -0.336110
  0.670000, -0.346110
  0.672000, -0.358040
  0.674000, -0.373150
  0.676000, -0.389000
  0.678000, -0.402170
  0.680000, -0.423830
  0.682000, -0.439080
  0.684000, -0.466210
  0.686000, -0.487960
  0.688000, -0.503070
  0.690000, -0.523780
  0.692000, -0.543820
  0.694000, -0.557720
  0.696000, -0.563550
  0.698000, -0.568720
  0.700000, -0.565950
  0.702000, -0.559130
  0.704000, -0.549690
  0.706000, -0.532930
  0.708000, -0.512960
  0.710000, -0.486720
  0.712000, -0.464900
  0.714000, -0.447390
  0.716000, -0.428690
  0.718000, -0.413590
  0.720000, -0.396320
  0.722000, -0.381110
  0.724000, -0.373550
  0.726000, -0.364260
  0.728000, -0.356760
  0.730000, -0.344510
  0.732000, -0.331050
  0.734000, -0.317260
  0.736000, -0.299190
  0.738000, -0.274520
  0.740000, -0.255990
  0.742000, -0.229300
  0.744000, -0.202850
  0.746000, -0.177750
  0.748000, -0.149820
  0.750000, -0.124750
  0.752000, -0.094300
  0.754000, -0.061480
  0.756000, -0.029080
  0.758000,  0.000580
  0.760000,  0.032400
  0.762000,  0.063960
  0.764000,  0.097900
  0.766000,  0.129630
  0.768000,  0.162740
  0.770000,  0.196010
  0.772000,  0.225120
  0.774000,  0.256200
  0.776000,  0.285800
  0.778000,  0.314670
  0.780000,  0.343710
  0.782000,  0.364110
  0.784000,  0.385580
  0.786000,  0.400170
  0.788000,  0.411870
  0.790000,  0.416890
  0.792000,  0.418400
  0.794000,  0.421020
  0.796000,  0.423020
  0.798000,  0.421530
  0.800000,  0.418650
  0.802000,  0.416610
  0.804000,  0.419450
  0.806000,  0.425570
  0.808000,  0.439760
  0.810000,  0.455250
  0.812000,  0.471850
  0.814000,  0.492050
  0.816000,  0.513570
  0.818000,  0.541840
  0.820000,  0.577370
  0.822000,  0.605000
  0.824000,  0.633470
  0.826000,  0.659600
  0.828000,  0.682730
  0.830000,  0.706800
  0.832000,  0.720800
  0.834000,  0.729620
  0.836000,  0.731930
  0.838000,  0.726400
  0.840000,  0.720140
  0.842000,  0.705220
  0.844000,  0.691330
  0.846000,  0.673270
  0.848000,  0.658850
  0.850000,  0.646970
  0.852000,  0.636560
  0.854000,  0.631050
  0.856000,  0.633660
  0.858000,  0.638400
  0.860000,  0.647260
  0.862000,  0.658300
  0.864000,  0.672050
  0.866000,  0.685000
  0.868000,  0.695280
  0.870000,  0.699530
  0.872000,  0.700070
  0.874000,  0.694620
  0.876000,  0.685560
  0.878000,  0.664290
  0.880000,  0.645100
  0.882000,  0.626120
  0.884000,  0.603640
  0.886000,  0.573340
  0.888000,  0.541730
  0.890000,  0.520220
  0.892000,  0.493460
  0.894000,  0.472090
  0.896000,  0.454360
  0.898000,  0.429550
  0.900000,  0.409640
  0.902000,  0.391290
  0.904000,  0.374540
  0.906000,  0.357470
  0.908000,  0.339980
  0.910000,  0.325150
  0.912000,  0.316980
  0.914000,  0.301210
  0.916000,  0.292570
  0.918000,  0.284540
  0.920000,  0.270640
  0.922000,  0.259780
  0.924000,  0.252480
  0.926000,  0.241880
  0.928000,  0.225320
  0.930000,  0.210610
  0.932000,  0.192380
  0.934000,  0.172260
  0.936000,  0.161680
  0.938000,  0.143110
  0.940000,  0.126350
  0.942000,  0.107940
  0.944000,  0.093720
  0.946000,  0.080760
  0.948000,  0.067530
  0.950000,  0.052380
  0.952000,  0.032550
  0.954000,  0.009190
  0.956000, -0.020500
  0.958000, -0.049890
  0.960000, -0.081250
  0.962000, -0.110800
  0.964000, -0.140400
  0.966000, -0.162440
  0.968000, -0.172690
  0.970000, -0.187410
  0.972000, -0.207160
  0.974000, -0.226030
  0.976000, -0.240150
  0.978000, -0.261610
  0.980000, -0.283790
  0.982000, -0.308870
  0.984000, -0.331340
  0.986000, -0.353580
  0.988000, -0.367400
  0.990000, -0.373880
  0.992000, -0.376150
  0.994000, -0.372470
  0.996000, -0.365520
  0.998000, -0.352780
  1.000000, -0.338180
