# z (nm)   (kJ/mol)
  0.122000,264.694040
  0.124000,261.587830
  0.126000,259.898900
  0.128000,257.147360
  0.130000,258.583340
  0.132000,256.107260
  0.134000,253.523780
  0.136000,251.020430
  0.138000,250.191900
  0.140000,247.803430
  0.142000,245.347840
  0.144000,252.426930
  0.146000,249.460440
  0.148000,246.838560
  0.150000,244.382390
  0.152000,241.852910
  0.154000,239.210710
  0.156000,236.493800
  0.158000,233.666690
  0.160000,230.695000
  0.162000,227.592270
  0.164000,224.354880
  0.166000,220.991730
  0.168000,217.514300
  0.170000,213.920160
  0.172000,210.183080
  0.174000,206.269260
  0.176000,202.164020
  0.178000,197.886000
  0.180000,193.518320
  0.182000,189.157140
  0.184000,184.883240
  0.186000,180.714070
  0.188000,176.588940
  0.190000,172.438480
  0.192000,168.220860
  0.194000,163.967910
  0.196000,159.768850
  0.198000,155.733830
  0.200000,151.932040
  0.202000,148.355750
  0.204000,144.927660
  0.206000,141.550960
  0.208000,138.147050
  0.210000,134.691580
  0.212000,131.230650
  0.214000,127.835980
  0.216000,124.567100
  0.218000,121.428540
  0.220000,118.383380
  0.222000,115.374160
  0.224000,112.355360
  0.226000,109.315760
  0.228000,106.257340
  0.230000,103.197060
  0.232000,100.173530
  0.234000, 97.212640
  0.236000, 94.356930
  0.238000, 91.605390
  0.240000, 88.951190
  0.242000, 86.350040
  0.244000, 83.765840
  0.246000, 81.162470
  0.248000, 78.509090
  0.250000, 75.813740
  0.252000, 73.114120
  0.254000, 70.465030
  0.256000, 67.939400
  0.258000, 65.571850
  0.260000, 63.341010
  0.262000, 61.161470
  0.264000, 58.962480
  0.266000, 56.673110
  0.268000, 54.309740
  0.270000, 51.934480
  0.272000, 49.624690
  0.274000, 47.449580
  0.276000, 45.427210
  0.278000, 43.521930
  0.280000, 41.659900
  0.282000, 39.778100
  0.284000, 37.833590
  0.286000, 35.847280
  0.288000, 33.856790
  0.290000, 31.931390
  0.292000, 30.099420
  0.294000, 28.393240
  0.296000, 26.797000
  0.298000, 25.277280
  0.300000, 23.796450
  0.302000, 22.321470
  0.304000, 20.846680
  0.306000, 19.364070
  0.308000, 17.896090
  0.310000, 16.460050
  0.312000, 15.080880
  0.314000, 13.750490
  0.316000, 12.476400
  0.318000, 11.246570
  0.320000, 10.051960
  0.322000,  8.896680
  0.324000,  7.776760
  0.326000,  6.709690
  0.328000,  5.708020
  0.330000,  4.763260
  0.332000,  3.856230
  0.334000,  2.967110
  0.336000,  2.076390
  0.338000,  1.161830
  0.340000,  0.238110
  0.342000, -0.682750
  0.344000, -1.576270
  0.346000, -2.425680
  0.348000, -3.220490
  0.350000, -3.972470
  0.352000, -4.688130
  0.354000, -5.369030
  0.356000, -6.018810
  0.358000, -6.634070
  0.360000, -7.223060
  0.362000, -7.798700
  0.364000, -8.378740
  0.366000, -8.959270
  0.368000, -9.539800
  0.370000,-10.106080
  0.372000,-10.631040
  0.374000,-11.112710
  0.376000,-11.538560
  0.378000,-11.929640
  0.380000,-12.282490
  0.382000,-12.612930
  0.384000,-12.936780
  0.386000,-13.256200
  0.388000,-13.558490
  0.390000,-13.838910
  0.392000,-14.107180
  0.394000,-14.351600
  0.396000,-14.577830
  0.398000,-14.779200
  0.400000,-14.957540
  0.402000,-15.111300
  0.404000,-15.235800
  0.406000,-15.345400
  0.408000,-15.465430
  0.410000,-15.601990
  0.412000,-15.726690
  0.414000,-15.816420
  0.416000,-15.856850
  0.418000,-15.857750
  0.420000,-15.871350
  0.422000,-15.916770
  0.424000,-15.997890
  0.426000,-16.090120
  0.428000,-16.164090
  0.430000,-16.199500
  0.432000,-16.191140
  0.434000,-16.157030
  0.436000,-16.110550
  0.438000,-16.082040
  0.440000,-16.075780
  0.442000,-16.090110
  0.444000,-16.117470
  0.446000,-16.145060
  0.448000,-16.167960
  0.450000,-16.171290
  0.452000,-16.150180
  0.454000,-16.097260
  0.456000,-16.014960
  0.458000,-15.918030
  0.460000,-15.805050
  0.462000,-15.689870
  0.464000,-15.585490
  0.466000,-15.490890
  0.468000,-15.416940
  0.470000,-15.356130
  0.472000,-15.293750
  0.474000,-15.227860
  0.476000,-15.134150
  0.478000,-15.027020
  0.480000,-14.893190
  0.482000,-14.734670
  0.484000,-14.563570
  0.486000,-14.389300
  0.488000,-14.223220
  0.490000,-14.060700
  0.492000,-13.902460
  0.494000,-13.730350
  0.496000,-13.557810
  0.498000,-13.364360
  0.500000,-13.160690
  0.502000,-12.953200
  0.504000,-12.753100
  0.506000,-12.552050
  0.508000,-12.357980
  0.510000,-12.157730
  0.512000,-11.954450
  0.514000,-11.752530
  0.516000,-11.532260
  0.518000,-11.307200
  0.520000,-11.081140
  0.522000,-10.854760
  0.524000,-10.633920
  0.526000,-10.427240
  0.528000,-10.218300
  0.530000,-10.022960
  0.532000, -9.821990
  0.534000, -9.618620
  0.536000, -9.410910
  0.538000, -9.194120
  0.540000, -8.985350
  0.542000, -8.784270
  0.544000, -8.593330
  0.546000, -8.426810
  0.548000, -8.280830
  0.550000, -8.132970
  0.552000, -7.985630
  0.554000, -7.832680
  0.556000, -7.666920
  0.558000, -7.495930
  0.560000, -7.312180
  0.562000, -7.130160
  0.564000, -6.949680
  0.566000, -6.777230
  0.568000, -6.617080
  0.570000, -6.466890
  0.572000, -6.325060
  0.574000, -6.184650
  0.576000, -6.044300
  0.578000, -5.904890
  0.580000, -5.766910
  0.582000, -5.613990
  0.584000, -5.452710
  0.586000, -5.285330
  0.588000, -5.129590
  0.590000, -4.993770
  0.592000, -4.884850
  0.594000, -4.772500
  0.596000, -4.659590
  0.598000, -4.533690
  0.600000, -4.395750
  0.602000, -4.249220
  0.604000, -4.110570
  0.606000, -3.973230
  0.608000, -3.835930
  0.610000, -3.711460
  0.612000, -3.607900
  0.614000, -3.521570
  0.616000, -3.445160
  0.618000, -3.367610
  0.620000, -3.280730
  0.622000, -3.157820
  0.624000, -3.014880
  0.626000, -2.845530
  0.628000, -2.667180
  0.630000, -2.489790
  0.632000, -2.342890
  0.634000, -2.224510
  0.636000, -2.148280
  0.638000, -2.097530
  0.640000, -2.075170
  0.642000, -2.059390
  0.644000, -2.037870
  0.646000, -1.998040
  0.648000, -1.936200
  0.650000, -1.844050
  0.652000, -1.739990
  0.654000, -1.622960
  0.656000, -1.509270
  0.658000, -1.410160
  0.660000, -1.334910
  0.662000, -1.288570
  0.664000, -1.270880
  0.666000, -1.282440
  0.668000, -1.301810
  0.670000, -1.322080
  0.672000, -1.331210
  0.674000, -1.313070
  0.676000, -1.263090
  0.678000, -1.192860
  0.680000, -1.114970
  0.682000, -1.038980
  0.684000, -0.977900
  0.686000, -0.944580
  0.688000, -0.934770
  0.690000, -0.949250
  0.692000, -0.978870
  0.694000, -1.014170
  0.696000, -1.047990
  0.698000, -1.071380
  0.700000, -1.081310
  0.702000, -1.077580
  0.704000, -1.067050
  0.706000, -1.047060
  0.708000, -1.040960
  0.710000, -1.032100
  0.712000, -1.025270
  0.714000, -1.006530
  0.716000, -0.979270
  0.718000, -0.937080
  0.720000, -0.902390
  0.722000, -0.887550
  0.724000, -0.931740
  0.726000, -1.043960
  0.728000, -1.222670
  0.730000, -1.423250
  0.732000, -1.583980
  0.734000, -1.655880
  0.736000, -1.609090
  0.738000, -1.480970
  0.740000, -1.325990
  0.742000, -1.218250
  0.744000, -1.184600
  0.746000, -1.231400
  0.748000, -1.331540
  0.750000, -1.450790
  0.752000, -1.565660
  0.754000, -1.646090
  0.756000, -1.703950
  0.758000, -1.717970
  0.760000, -1.696220
  0.762000, -1.646970
  0.764000, -1.583400
  0.766000, -1.514020
  0.768000, -1.463590
  0.770000, -1.438710
  0.772000, -1.442060
  0.774000, -1.477310
  0.776000, -1.528800
  0.778000, -1.583620
  0.780000, -1.631820
  0.782000, -1.657850
  0.784000, -1.666350
  0.786000, -1.661930
  0.788000, -1.639860
  0.790000, -1.610140
  0.792000, -1.584640
  0.794000, -1.562420
  0.796000, -1.550470
  0.798000, -1.537320
  0.800000, -1.531830
  0.802000, -1.521500
  0.804000, -1.501760
  0.806000, -1.470350
  0.808000, -1.436350
  0.810000, -1.387970
  0.812000, -1.341140
  0.814000, -1.300340
  0.816000, -1.264650
  0.818000, -1.240090
  0.820000, -1.228510
  0.822000, -1.217420
  0.824000, -1.211290
  0.826000, -1.200370
  0.828000, -1.182130
  0.830000, -1.154490
  0.832000, -1.120010
  0.834000, -1.082520
  0.836000, -1.055470
  0.838000, -1.029780
  0.840000, -1.013530
  0.842000, -1.017910
  0.844000, -1.022370
  0.846000, -1.009140
  0.848000, -0.980930
  0.850000, -0.939610
  0.852000, -0.888800
  0.854000, -0.832390
  0.856000, -0.782840
  0.858000, -0.726930
  0.860000, -0.689720
  0.862000, -0.673590
  0.864000, -0.665160
  0.866000, -0.661950
  0.868000, -0.676860
  0.870000, -0.697890
  0.872000, -0.705720
  0.874000, -0.708650
  0.876000, -0.705110
  0.878000, -0.684830
  0.880000, -0.659760
  0.882000, -0.627430
  0.884000, -0.590590
  0.886000, -0.559510
  0.888000, -0.538700
  0.890000, -0.516690
  0.892000, -0.490820
  0.894000, -0.462760
  0.896000, -0.432490
  0.898000, -0.409490
  0.900000, -0.387300
  0.902000, -0.360800
  0.904000, -0.335190
  0.906000, -0.307040
  0.908000, -0.278700
  0.910000, -0.258930
  0.912000, -0.239900
  0.914000, -0.236710
  0.916000, -0.245910
  0.918000, -0.255660
  0.920000, -0.254450
  0.922000, -0.227560
  0.924000, -0.193310
  0.926000, -0.137310
  0.928000, -0.076190
  0.930000, -0.022670
  0.932000,  0.013520
  0.934000,  0.006670
  0.936000, -0.031110
  0.938000, -0.089620
  0.940000, -0.137690
  0.942000, -0.160200
  0.944000, -0.141820
  0.946000, -0.085400
  0.948000, -0.007310
  0.950000,  0.073720
  0.952000,  0.141330
  0.954000,  0.187370
  0.956000,  0.210440
  0.958000,  0.205030
  0.960000,  0.186720
  0.962000,  0.160620
  0.964000,  0.139650
  0.966000,  0.120150
  0.968000,  0.102790
  0.970000,  0.101090
  0.972000,  0.098810
  0.974000,  0.107550
  0.976000,  0.121980
  0.978000,  0.143080
  0.980000,  0.159150
  0.982000,  0.174170
  0.984000,  0.181250
  0.986000,  0.182740
  0.988000,  0.175650
  0.990000,  0.174900
  0.992000,  0.176830
  0.994000,  0.176540
  0.996000,  0.177600
  0.998000,  0.186850
  1.000000,  0.197320
