# z (nm)   (kJ/mol)
  0.070000,276.590210
  0.072000,274.176670
  0.074000,271.800620
  0.076000,269.108310
  0.078000,266.740630
  0.080000,264.065630
  0.082000,261.450510
  0.084000,258.953590
  0.086000,256.380360
  0.088000,253.742200
  0.090000,251.076070
  0.092000,248.320500
  0.094000,245.486600
  0.096000,242.533400
  0.098000,239.467570
  0.100000,236.278710
  0.102000,232.957150
  0.104000,229.496560
  0.106000,225.890590
  0.108000,222.142760
  0.110000,218.250630
  0.112000,214.217320
  0.114000,210.061630
  0.116000,205.792190
  0.118000,201.425270
  0.120000,196.981170
  0.122000,192.479820
  0.124000,187.949190
  0.126000,183.427970
  0.128000,178.944240
  0.130000,174.527000
  0.132000,170.205250
  0.134000,165.994630
  0.136000,161.911120
  0.138000,157.949380
  0.140000,154.107490
  0.142000,150.376150
  0.144000,146.743660
  0.146000,143.194530
  0.148000,139.702080
  0.150000,136.238890
  0.152000,132.774090
  0.154000,129.290960
  0.156000,125.771710
  0.158000,122.248700
  0.160000,118.745240
  0.162000,115.314050
  0.164000,111.982490
  0.166000,108.751700
  0.168000,105.604380
  0.170000,102.503120
  0.172000, 99.420640
  0.174000, 96.339990
  0.176000, 93.270110
  0.178000, 90.235130
  0.180000, 87.259020
  0.182000, 84.333240
  0.184000, 81.456890
  0.186000, 78.613690
  0.188000, 75.787680
  0.190000, 72.973240
  0.192000, 70.176780
  0.194000, 67.421750
  0.196000, 64.723900
  0.198000, 62.109020
  0.200000, 59.577780
  0.202000, 57.124140
  0.204000, 54.741830
  0.206000, 52.418110
  0.208000, 50.133900
  0.210000, 47.868760
  0.212000, 45.628070
  0.214000, 43.414640
  0.216000, 41.221610
  0.218000, 39.064980
  0.220000, 36.951770
  0.222000, 34.897930
  0.224000, 32.910790
  0.226000, 30.986620
  0.228000, 29.118820
  0.230000, 27.318370
  0.232000, 25.555940
  0.234000, 23.832890
  0.236000, 22.141220
  0.238000, 20.479990
  0.240000, 18.843990
  0.242000, 17.244070
  0.244000, 15.683270
  0.246000, 14.164000
  0.248000, 12.689910
  0.250000, 11.263830
  0.252000,  9.895380
  0.254000,  8.576130
  0.256000,  7.298220
  0.258000,  6.064710
  0.260000,  4.883280
  0.262000,  3.743480
  0.264000,  2.640550
  0.266000,  1.582680
  0.268000,  0.563300
  0.270000, -0.421830
  0.272000, -1.373620
  0.274000, -2.280050
  0.276000, -3.148960
  0.278000, -3.981160
  0.280000, -4.778570
  0.282000, -5.541170
  0.284000, -6.267460
  0.286000, -6.955940
  0.288000, -7.607310
  0.290000, -8.221700
  0.292000, -8.803090
  0.294000, -9.348760
  0.296000, -9.865280
  0.298000,-10.348940
  0.300000,-10.803020
  0.302000,-11.230630
  0.304000,-11.635430
  0.306000,-12.007420
  0.308000,-12.345620
  0.310000,-12.653890
  0.312000,-12.919900
  0.314000,-13.149900
  0.316000,-13.345220
  0.318000,-13.512640
  0.320000,-13.643890
  0.322000,-13.755370
  0.324000,-13.847330
  0.326000,-13.926870
  0.328000,-13.993660
  0.330000,-14.044270
  0.332000,-14.078630
  0.334000,-14.098180
  0.336000,-14.106760
  0.338000,-14.101070
  0.340000,-14.080860
  0.342000,-14.054890
  0.344000,-14.013450
  0.346000,-13.974230
  0.348000,-13.912500
  0.350000,-13.843210
  0.352000,-13.760290
  0.354000,-13.653890
  0.356000,-13.537850
  0.358000,-13.398470
  0.360000,-13.244270
  0.362000,-13.078690
  0.364000,-12.900470
  0.366000,-12.719790
  0.368000,-12.537250
  0.370000,-12.360280
  0.372000,-12.189960
  0.374000,-12.026820
  0.376000,-11.874770
  0.378000,-11.725260
  0.380000,-11.572910
  0.382000,-11.412240
  0.384000,-11.245750
  0.386000,-11.061010
  0.388000,-10.876520
  0.390000,-10.682820
  0.392000,-10.483640
  0.394000,-10.285070
  0.396000,-10.085490
  0.398000, -9.884110
  0.400000, -9.688860
  0.402000, -9.498710
  0.404000, -9.312500
  0.406000, -9.124810
  0.408000, -8.940010
  0.410000, -8.765610
  0.412000, -8.592020
  0.414000, -8.427100
  0.416000, -8.281460
  0.418000, -8.135910
  0.420000, -7.994640
  0.422000, -7.863600
  0.424000, -7.737650
  0.426000, -7.615600
  0.428000, -7.487760
  0.430000, -7.353140
  0.432000, -7.218220
  0.434000, -7.068430
  0.436000, -6.921930
  0.438000, -6.774750
  0.440000, -6.623420
  0.442000, -6.482970
  0.444000, -6.352260
  0.446000, -6.233440
  0.448000, -6.123970
  0.450000, -6.031760
  0.452000, -5.944910
  0.454000, -5.864210
  0.456000, -5.782560
  0.458000, -5.697210
  0.460000, -5.604440
  0.462000, -5.514130
  0.464000, -5.428180
  0.466000, -5.345650
  0.468000, -5.263890
  0.470000, -5.192790
  0.472000, -5.128080
  0.474000, -5.066980
  0.476000, -5.020510
  0.478000, -4.985480
  0.480000, -4.951180
  0.482000, -4.925170
  0.484000, -4.901230
  0.486000, -4.882250
  0.488000, -4.857660
  0.490000, -4.826660
  0.492000, -4.791560
  0.494000, -4.749150
  0.496000, -4.704990
  0.498000, -4.653820
  0.500000, -4.603130
  0.502000, -4.544510
  0.504000, -4.484310
  0.506000, -4.417300
  0.508000, -4.349520
  0.510000, -4.272410
  0.512000, -4.191880
  0.514000, -4.108370
  0.516000, -4.017890
  0.518000, -3.918470
  0.520000, -3.814000
  0.522000, -3.702740
  0.524000, -3.576950
  0.526000, -3.439350
  0.528000, -3.286270
  0.530000, -3.123400
  0.532000, -2.954350
  0.534000, -2.780940
  0.536000, -2.606230
  0.538000, -2.428000
  0.540000, -2.250270
  0.542000, -2.076110
  0.544000, -1.898340
  0.546000, -1.722860
  0.548000, -1.540260
  0.550000, -1.351090
  0.552000, -1.168170
  0.554000, -0.993750
  0.556000, -0.820930
  0.558000, -0.655090
  0.560000, -0.500200
  0.562000, -0.348280
  0.564000, -0.206320
  0.566000, -0.078070
  0.568000,  0.053240
  0.570000,  0.177580
  0.572000,  0.300620
  0.574000,  0.423890
  0.576000,  0.545020
  0.578000,  0.668580
  0.580000,  0.787970
  0.582000,  0.895270
  0.584000,  0.988870
  0.586000,  1.073410
  0.588000,  1.148760
  0.590000,  1.208500
  0.592000,  1.255870
  0.594000,  1.298810
  0.596000,  1.342940
  0.598000,  1.376800
  0.600000,  1.401900
  0.602000,  1.421750
  0.604000,  1.427590
  0.606000,  1.433990
  0.608000,  1.422190
  0.610000,  1.401610
  0.612000,  1.374820
  0.614000,  1.337860
  0.616000,  1.296440
  0.618000,  1.248520
  0.620000,  1.202300
  0.622000,  1.156670
  0.624000,  1.112890
  0.626000,  1.072080
  0.628000,  1.024840
  0.630000,  0.978970
  0.632000,  0.931200
  0.634000,  0.880320
  0.636000,  0.827910
  0.638000,  0.768040
  0.640000,  0.702880
  0.642000,  0.638950
  0.644000,  0.571660
  0.646000,  0.507320
  0.648000,  0.446340
  0.650000,  0.389150
  0.652000,  0.332200
  0.654000,  0.280640
  0.656000,  0.239280
  0.658000,  0.201730
  0.660000,  0.170510
  0.662000,  0.136750
  0.664000,  0.106920
  0.666000,  0.081010
  0.668000,  0.046090
  0.670000,  0.019520
  0.672000, -0.015010
  0.674000, -0.047840
  0.676000, -0.075420
  0.678000, -0.107860
  0.680000, -0.138660
  0.682000, -0.167670
  0.684000, -0.195250
  0.686000, -0.219170
  0.688000, -0.244320
  0.690000, -0.266290
  0.692000, -0.290950
  0.694000, -0.308130
  0.696000, -0.330740
  0.698000, -0.352760
  0.700000, -0.373520
  0.702000, -0.397770
  0.704000, -0.415300
  0.706000, -0.427950
  0.708000, -0.443830
  0.710000, -0.446080
  0.712000, -0.448690
  0.714000, -0.443110
  0.716000, -0.432030
  0.718000, -0.422610
  0.720000, -0.405720
  0.722000, -0.388350
  0.724000, -0.373860
  0.726000, -0.357780
  0.728000, -0.353770
  0.730000, -0.354660
  0.732000, -0.365180
  0.734000, -0.381000
  0.736000, -0.404360
  0.738000, -0.431730
  0.740000, -0.460890
  0.742000, -0.486100
  0.744000, -0.505640
  0.746000, -0.521500
  0.748000, -0.532980
  0.750000, -0.535560
  0.752000, -0.528440
  0.754000, -0.511870
  0.756000, -0.502870
  0.758000, -0.490730
  0.760000, -0.481020
  0.762000, -0.475630
  0.764000, -0.470080
  0.766000, -0.465060
  0.768000, -0.467570
  0.770000, -0.472610
  0.772000, -0.480250
  0.774000, -0.488940
  0.776000, -0.498610
  0.778000, -0.507660
  0.780000, -0.511940
  0.782000, -0.516660
  0.784000, -0.524600
  0.786000, -0.530110
  0.788000, -0.538500
  0.790000, -0.547460
  0.792000, -0.551760
  0.794000, -0.553210
  0.796000, -0.546910
  0.798000, -0.532090
  0.800000, -0.523290
  0.802000, -0.513870
  0.804000, -0.503730
  0.806000, -0.493190
  0.808000, -0.489380
  0.810000, -0.490400
  0.812000, -0.495630
  0.814000, -0.498860
  0.816000, -0.500670
  0.818000, -0.506500
  0.820000, -0.516120
  0.822000, -0.524740
  0.824000, -0.525140
  0.826000, -0.521090
  0.828000, -0.508110
  0.830000, -0.492570
  0.832000, -0.474810
  0.834000, -0.451440
  0.836000, -0.421480
  0.838000, -0.390650
  0.840000, -0.357480
  0.842000, -0.325950
  0.844000, -0.297370
  0.846000, -0.274930
  0.848000, -0.254390
  0.850000, -0.236190
  0.852000, -0.223240
  0.854000, -0.212580
  0.856000, -0.204870
  0.858000, -0.206280
  0.860000, -0.205350
  0.862000, -0.204400
  0.864000, -0.204020
  0.866000, -0.201260
  0.868000, -0.199560
  0.870000, -0.189410
  0.872000, -0.182180
  0.874000, -0.164290
  0.876000, -0.140670
  0.878000, -0.115270
  0.880000, -0.082300
  0.882000, -0.047020
  0.884000, -0.014280
  0.886000,  0.014170
  0.888000,  0.043430
  0.890000,  0.071120
  0.892000,  0.086750
  0.894000,  0.096400
  0.896000,  0.093600
  0.898000,  0.090690
  0.900000,  0.074370
  0.902000,  0.063910
  0.904000,  0.049350
  0.906000,  0.036690
  0.908000,  0.028240
  0.910000,  0.024890
  0.912000,  0.026700
  0.914000,  0.034880
  0.916000,  0.038180
  0.918000,  0.050740
  0.920000,  0.059260
  0.922000,  0.065550
  0.924000,  0.068610
  0.926000,  0.067350
  0.928000,  0.062370
  0.930000,  0.053980
  0.932000,  0.045690
  0.934000,  0.034700
  0.936000,  0.019780
  0.938000,  0.010820
  0.940000,  0.001250
  0.942000, -0.007430
  0.944000, -0.013250
  0.946000, -0.014620
  0.948000, -0.015600
  0.950000, -0.009840
  0.952000, -0.006470
  0.954000, -0.001920
  0.956000,  0.005850
  0.958000,  0.020910
  0.960000,  0.034340
  0.962000,  0.050500
  0.964000,  0.062170
  0.966000,  0.072210
  0.968000,  0.084080
  0.970000,  0.085110
  0.972000,  0.083270
  0.974000,  0.070280
  0.976000,  0.047500
  0.978000,  0.024710
  0.980000, -0.007110
  0.982000, -0.044530
  0.984000, -0.083180
  0.986000, -0.112680
  0.988000, -0.140650
  0.990000, -0.167250
  0.992000, -0.181570
  0.994000, -0.186910
  0.996000, -0.177920
  0.998000, -0.166500
  1.000000, -0.146430
