# z (nm)   (kJ/mol)
  0.088000,270.945440
  0.090000,267.753910
  0.092000,264.618010
  0.094000,261.751080
  0.096000,258.898000
  0.098000,256.036380
  0.100000,253.118060
  0.102000,250.195830
  0.104000,247.238490
  0.106000,244.172550
  0.108000,241.052210
  0.110000,237.834940
  0.112000,234.526660
  0.114000,231.109270
  0.116000,227.587370
  0.118000,223.955460
  0.120000,220.214580
  0.122000,216.357970
  0.124000,212.400520
  0.126000,208.338460
  0.128000,204.179490
  0.130000,199.923350
  0.132000,195.583470
  0.134000,191.169270
  0.136000,186.694810
  0.138000,182.175830
  0.140000,177.642620
  0.142000,173.120370
  0.144000,168.645490
  0.146000,164.254570
  0.148000,159.979030
  0.150000,155.839760
  0.152000,151.852870
  0.154000,148.020700
  0.156000,144.330270
  0.158000,140.755650
  0.160000,137.272020
  0.162000,133.843390
  0.164000,130.441300
  0.166000,127.047620
  0.168000,123.651950
  0.170000,120.251430
  0.172000,116.854830
  0.174000,113.474320
  0.176000,110.130000
  0.178000,106.838740
  0.180000,103.623620
  0.182000,100.499940
  0.184000, 97.484520
  0.186000, 94.578140
  0.188000, 91.760320
  0.190000, 89.017450
  0.192000, 86.309530
  0.194000, 83.615790
  0.196000, 80.905820
  0.198000, 78.167900
  0.200000, 75.416580
  0.202000, 72.658270
  0.204000, 69.916980
  0.206000, 67.217640
  0.208000, 64.576000
  0.210000, 61.998200
  0.212000, 59.503940
  0.214000, 57.090650
  0.216000, 54.749020
  0.218000, 52.485000
  0.220000, 50.294670
  0.222000, 48.165080
  0.224000, 46.086830
  0.226000, 44.046490
  0.228000, 42.038780
  0.230000, 40.050070
  0.232000, 38.081290
  0.234000, 36.138870
  0.236000, 34.225560
  0.238000, 32.359400
  0.240000, 30.553320
  0.242000, 28.800980
  0.244000, 27.122930
  0.246000, 25.509000
  0.248000, 23.941010
  0.250000, 22.423330
  0.252000, 20.948120
  0.254000, 19.495260
  0.256000, 18.073420
  0.258000, 16.683890
  0.260000, 15.331440
  0.262000, 14.023950
  0.264000, 12.766040
  0.266000, 11.546760
  0.268000, 10.389210
  0.270000,  9.264220
  0.272000,  8.188870
  0.274000,  7.147020
  0.276000,  6.130780
  0.278000,  5.143590
  0.280000,  4.182180
  0.282000,  3.252800
  0.284000,  2.353900
  0.286000,  1.494920
  0.288000,  0.688480
  0.290000, -0.063480
  0.292000, -0.769650
  0.294000, -1.432700
  0.296000, -2.062190
  0.298000, -2.672750
  0.300000, -3.266800
  0.302000, -3.847000
  0.304000, -4.416480
  0.306000, -4.956300
  0.308000, -5.474180
  0.310000, -5.962480
  0.312000, -6.406220
  0.314000, -6.803650
  0.316000, -7.160460
  0.318000, -7.477460
  0.320000, -7.774550
  0.322000, -8.045940
  0.324000, -8.308130
  0.326000, -8.556710
  0.328000, -8.792960
  0.330000, -9.014630
  0.332000, -9.224100
  0.334000, -9.414800
  0.336000, -9.587870
  0.338000, -9.740750
  0.340000, -9.871500
  0.342000, -9.976290
  0.344000,-10.062310
  0.346000,-10.134270
  0.348000,-10.193530
  0.350000,-10.239000
  0.352000,-10.273500
  0.354000,-10.301420
  0.356000,-10.329150
  0.358000,-10.348890
  0.360000,-10.348120
  0.362000,-10.331910
  0.364000,-10.308900
  0.366000,-10.260670
  0.368000,-10.191480
  0.370000,-10.119010
  0.372000,-10.019440
  0.374000, -9.909650
  0.376000, -9.791500
  0.378000, -9.660500
  0.380000, -9.532390
  0.382000, -9.406890
  0.384000, -9.277490
  0.386000, -9.155940
  0.388000, -9.037070
  0.390000, -8.909180
  0.392000, -8.776500
  0.394000, -8.640700
  0.396000, -8.499470
  0.398000, -8.348240
  0.400000, -8.187400
  0.402000, -8.031110
  0.404000, -7.880090
  0.406000, -7.735630
  0.408000, -7.601750
  0.410000, -7.472560
  0.412000, -7.350690
  0.414000, -7.236500
  0.416000, -7.121760
  0.418000, -7.007420
  0.420000, -6.898220
  0.422000, -6.799270
  0.424000, -6.693460
  0.426000, -6.601380
  0.428000, -6.510880
  0.430000, -6.429180
  0.432000, -6.347270
  0.434000, -6.268520
  0.436000, -6.188430
  0.438000, -6.106900
  0.440000, -6.023090
  0.442000, -5.930630
  0.444000, -5.838410
  0.446000, -5.738430
  0.448000, -5.630660
  0.450000, -5.528510
  0.452000, -5.416240
  0.454000, -5.303620
  0.456000, -5.189780
  0.458000, -5.079100
  0.460000, -4.966730
  0.462000, -4.850650
  0.464000, -4.746140
  0.466000, -4.639060
  0.468000, -4.542910
  0.470000, -4.443610
  0.472000, -4.344050
  0.474000, -4.241870
  0.476000, -4.147760
  0.478000, -4.058410
  0.480000, -3.966610
  0.482000, -3.874200
  0.484000, -3.782620
  0.486000, -3.689040
  0.488000, -3.596550
  0.490000, -3.496270
  0.492000, -3.394870
  0.494000, -3.302210
  0.496000, -3.199020
  0.498000, -3.102420
  0.500000, -3.012840
  0.502000, -2.922440
  0.504000, -2.835070
  0.506000, -2.758170
  0.508000, -2.684950
  0.510000, -2.617480
  0.512000, -2.554070
  0.514000, -2.484610
  0.516000, -2.412800
  0.518000, -2.333710
  0.520000, -2.254010
  0.522000, -2.160160
  0.524000, -2.048370
  0.526000, -1.931240
  0.528000, -1.806120
  0.530000, -1.669750
  0.532000, -1.532520
  0.534000, -1.398190
  0.536000, -1.260020
  0.538000, -1.130780
  0.540000, -1.000110
  0.542000, -0.875050
  0.544000, -0.759210
  0.546000, -0.643460
  0.548000, -0.523180
  0.550000, -0.400330
  0.552000, -0.275750
  0.554000, -0.146170
  0.556000, -0.012080
  0.558000,  0.125370
  0.560000,  0.271650
  0.562000,  0.419190
  0.564000,  0.571920
  0.566000,  0.721200
  0.568000,  0.862530
  0.570000,  0.998600
  0.572000,  1.123860
  0.574000,  1.243090
  0.576000,  1.355580
  0.578000,  1.462150
  0.580000,  1.560580
  0.582000,  1.649100
  0.584000,  1.725720
  0.586000,  1.790420
  0.588000,  1.834800
  0.590000,  1.869060
  0.592000,  1.895040
  0.594000,  1.901250
  0.596000,  1.902450
  0.598000,  1.892050
  0.600000,  1.876080
  0.602000,  1.863470
  0.604000,  1.845530
  0.606000,  1.822860
  0.608000,  1.797690
  0.610000,  1.761390
  0.612000,  1.719070
  0.614000,  1.681160
  0.616000,  1.645290
  0.618000,  1.605230
  0.620000,  1.561260
  0.622000,  1.519680
  0.624000,  1.478810
  0.626000,  1.432490
  0.628000,  1.388010
  0.630000,  1.342320
  0.632000,  1.286980
  0.634000,  1.225680
  0.636000,  1.153440
  0.638000,  1.070210
  0.640000,  0.990120
  0.642000,  0.906210
  0.644000,  0.822070
  0.646000,  0.740280
  0.648000,  0.656310
  0.650000,  0.581330
  0.652000,  0.516080
  0.654000,  0.449860
  0.656000,  0.387800
  0.658000,  0.331930
  0.660000,  0.280860
  0.662000,  0.232080
  0.664000,  0.187020
  0.666000,  0.141370
  0.668000,  0.097000
  0.670000,  0.053000
  0.672000,  0.006240
  0.674000, -0.043410
  0.676000, -0.093250
  0.678000, -0.145850
  0.680000, -0.196250
  0.682000, -0.251920
  0.684000, -0.297460
  0.686000, -0.338340
  0.688000, -0.369810
  0.690000, -0.393910
  0.692000, -0.416860
  0.694000, -0.425940
  0.696000, -0.436050
  0.698000, -0.436540
  0.700000, -0.442690
  0.702000, -0.441870
  0.704000, -0.438340
  0.706000, -0.441260
  0.708000, -0.445290
  0.710000, -0.448610
  0.712000, -0.464130
  0.714000, -0.477710
  0.716000, -0.493990
  0.718000, -0.510560
  0.720000, -0.527490
  0.722000, -0.538750
  0.724000, -0.547060
  0.726000, -0.549240
  0.728000, -0.541040
  0.730000, -0.530020
  0.732000, -0.505650
  0.734000, -0.483770
  0.736000, -0.460810
  0.738000, -0.442040
  0.740000, -0.414920
  0.742000, -0.401310
  0.744000, -0.394310
  0.746000, -0.388580
  0.748000, -0.390340
  0.750000, -0.392750
  0.752000, -0.400800
  0.754000, -0.410040
  0.756000, -0.417870
  0.758000, -0.419700
  0.760000, -0.420430
  0.762000, -0.413070
  0.764000, -0.412570
  0.766000, -0.402950
  0.768000, -0.385010
  0.770000, -0.376060
  0.772000, -0.348510
  0.774000, -0.325050
  0.776000, -0.304200
  0.778000, -0.282040
  0.780000, -0.265860
  0.782000, -0.243800
  0.784000, -0.231980
  0.786000, -0.226830
  0.788000, -0.229940
  0.790000, -0.241780
  0.792000, -0.256300
  0.794000, -0.269200
  0.796000, -0.279960
  0.798000, -0.285210
  0.800000, -0.284460
  0.802000, -0.272380
  0.804000, -0.253990
  0.806000, -0.230760
  0.808000, -0.196030
  0.810000, -0.154270
  0.812000, -0.112190
  0.814000, -0.078860
  0.816000, -0.051010
  0.818000, -0.033640
  0.820000, -0.022480
  0.822000, -0.016920
  0.824000, -0.012170
  0.826000, -0.016360
  0.828000, -0.031400
  0.830000, -0.042680
  0.832000, -0.052630
  0.834000, -0.054370
  0.836000, -0.054150
  0.838000, -0.048940
  0.840000, -0.037540
  0.842000, -0.012770
  0.844000,  0.018270
  0.846000,  0.048270
  0.848000,  0.077430
  0.850000,  0.100140
  0.852000,  0.124790
  0.854000,  0.144300
  0.856000,  0.159200
  0.858000,  0.170630
  0.860000,  0.180210
  0.862000,  0.186980
  0.864000,  0.195710
  0.866000,  0.206710
  0.868000,  0.217640
  0.870000,  0.235470
  0.872000,  0.248690
  0.874000,  0.259480
  0.876000,  0.276400
  0.878000,  0.292120
  0.880000,  0.306800
  0.882000,  0.310680
  0.884000,  0.314330
  0.886000,  0.303290
  0.888000,  0.295450
  0.890000,  0.279460
  0.892000,  0.257090
  0.894000,  0.231610
  0.896000,  0.211150
  0.898000,  0.195800
  0.900000,  0.184050
  0.902000,  0.174180
  0.904000,  0.171540
  0.906000,  0.170340
  0.908000,  0.179760
  0.910000,  0.184110
  0.912000,  0.186850
  0.914000,  0.179160
  0.916000,  0.172570
  0.918000,  0.147660
  0.920000,  0.127890
  0.922000,  0.104640
  0.924000,  0.085140
  0.926000,  0.062890
  0.928000,  0.052670
  0.930000,  0.043800
  0.932000,  0.044040
  0.934000,  0.049190
  0.936000,  0.059520
  0.938000,  0.064960
  0.940000,  0.066910
  0.942000,  0.065160
  0.944000,  0.061850
  0.946000,  0.059480
  0.948000,  0.049990
  0.950000,  0.038470
  0.952000,  0.032710
  0.954000,  0.027020
  0.956000,  0.017650
  0.958000,  0.005090
  0.960000, -0.004530
  0.962000, -0.017260
  0.964000, -0.030130
  0.966000, -0.039030
  0.968000, -0.055800
  0.970000, -0.077400
  0.972000, -0.098440
  0.974000, -0.119620
  0.976000, -0.136170
  0.978000, -0.157420
  0.980000, -0.172500
  0.982000, -0.181060
  0.984000, -0.187410
  0.986000, -0.186570
  0.988000, -0.188490
  0.990000, -0.183270
  0.992000, -0.176920
  0.994000, -0.168600
  0.996000, -0.166520
  0.998000, -0.165640
  1.000000, -0.172470
