# z (nm)   (kJ/mol)
  0.076000,272.389700
  0.078000,269.873150
  0.080000,266.094880
  0.082000,263.276100
  0.084000,260.694310
  0.086000,258.025440
  0.088000,255.269600
  0.090000,252.503990
  0.092000,249.698780
  0.094000,246.867380
  0.096000,243.953420
  0.098000,240.957710
  0.100000,237.865940
  0.102000,234.669080
  0.104000,231.367330
  0.106000,227.955890
  0.108000,224.429560
  0.110000,220.797100
  0.112000,217.062170
  0.114000,213.229600
  0.116000,209.306290
  0.118000,205.306900
  0.120000,201.234770
  0.122000,197.111370
  0.124000,192.946140
  0.126000,188.753710
  0.128000,184.541960
  0.130000,180.316930
  0.132000,176.092340
  0.134000,171.872380
  0.136000,167.658370
  0.138000,163.462170
  0.140000,159.298640
  0.142000,155.182490
  0.144000,151.136220
  0.146000,147.180190
  0.148000,143.331940
  0.150000,139.595040
  0.152000,135.976380
  0.154000,132.467780
  0.156000,129.051020
  0.158000,125.709200
  0.160000,122.436530
  0.162000,119.210310
  0.164000,116.024350
  0.166000,112.868020
  0.168000,109.729910
  0.170000,106.608900
  0.172000,103.498710
  0.174000,100.393070
  0.176000, 97.302370
  0.178000, 94.226990
  0.180000, 91.183280
  0.182000, 88.168710
  0.184000, 85.192870
  0.186000, 82.259820
  0.188000, 79.360790
  0.190000, 76.500510
  0.192000, 73.671020
  0.194000, 70.887360
  0.196000, 68.151550
  0.198000, 65.478430
  0.200000, 62.870270
  0.202000, 60.337450
  0.204000, 57.855390
  0.206000, 55.419930
  0.208000, 53.013800
  0.210000, 50.614510
  0.212000, 48.228230
  0.214000, 45.865590
  0.216000, 43.548610
  0.218000, 41.317700
  0.220000, 39.186180
  0.222000, 37.170370
  0.224000, 35.259500
  0.226000, 33.424320
  0.228000, 31.622160
  0.230000, 29.819660
  0.232000, 27.996920
  0.234000, 26.144920
  0.236000, 24.290990
  0.238000, 22.457840
  0.240000, 20.682850
  0.242000, 18.996510
  0.244000, 17.394860
  0.246000, 15.879360
  0.248000, 14.442940
  0.250000, 13.050080
  0.252000, 11.689160
  0.254000, 10.349050
  0.256000,  9.013880
  0.258000,  7.692400
  0.260000,  6.400460
  0.262000,  5.146820
  0.264000,  3.947990
  0.266000,  2.804890
  0.268000,  1.733320
  0.270000,  0.711370
  0.272000, -0.251440
  0.274000, -1.180140
  0.276000, -2.076200
  0.278000, -2.957550
  0.280000, -3.818380
  0.282000, -4.658580
  0.284000, -5.477710
  0.286000, -6.257240
  0.288000, -6.990280
  0.290000, -7.674860
  0.292000, -8.307140
  0.294000, -8.896790
  0.296000, -9.446460
  0.298000, -9.946420
  0.300000,-10.409530
  0.302000,-10.842840
  0.304000,-11.257380
  0.306000,-11.648700
  0.308000,-12.012500
  0.310000,-12.348820
  0.312000,-12.656570
  0.314000,-12.928840
  0.316000,-13.165300
  0.318000,-13.371190
  0.320000,-13.554670
  0.322000,-13.707490
  0.324000,-13.844840
  0.326000,-13.965040
  0.328000,-14.075470
  0.330000,-14.158340
  0.332000,-14.219560
  0.334000,-14.253150
  0.336000,-14.259900
  0.338000,-14.238650
  0.340000,-14.194260
  0.342000,-14.127550
  0.344000,-14.049470
  0.346000,-13.966540
  0.348000,-13.876510
  0.350000,-13.778810
  0.352000,-13.675780
  0.354000,-13.549570
  0.356000,-13.409840
  0.358000,-13.246810
  0.360000,-13.071390
  0.362000,-12.878410
  0.364000,-12.680270
  0.366000,-12.468250
  0.368000,-12.272200
  0.370000,-12.079590
  0.372000,-11.883390
  0.374000,-11.689350
  0.376000,-11.491700
  0.378000,-11.285440
  0.380000,-11.067350
  0.382000,-10.835750
  0.384000,-10.592620
  0.386000,-10.338380
  0.388000,-10.075100
  0.390000, -9.822170
  0.392000, -9.573430
  0.394000, -9.338910
  0.396000, -9.118580
  0.398000, -8.909630
  0.400000, -8.722680
  0.402000, -8.547070
  0.404000, -8.389230
  0.406000, -8.232060
  0.408000, -8.079480
  0.410000, -7.933320
  0.412000, -7.789600
  0.414000, -7.645340
  0.416000, -7.504280
  0.418000, -7.367230
  0.420000, -7.245320
  0.422000, -7.133300
  0.424000, -7.027760
  0.426000, -6.933940
  0.428000, -6.852790
  0.430000, -6.772980
  0.432000, -6.691110
  0.434000, -6.614100
  0.436000, -6.538430
  0.438000, -6.458550
  0.440000, -6.376670
  0.442000, -6.291110
  0.444000, -6.208930
  0.446000, -6.130030
  0.448000, -6.049280
  0.450000, -5.974940
  0.452000, -5.902150
  0.454000, -5.826130
  0.456000, -5.751480
  0.458000, -5.686710
  0.460000, -5.624240
  0.462000, -5.559110
  0.464000, -5.499700
  0.466000, -5.439500
  0.468000, -5.369310
  0.470000, -5.299340
  0.472000, -5.217970
  0.474000, -5.123470
  0.476000, -5.010040
  0.478000, -4.894690
  0.480000, -4.777350
  0.482000, -4.661420
  0.484000, -4.559850
  0.486000, -4.470620
  0.488000, -4.396590
  0.490000, -4.340030
  0.492000, -4.300970
  0.494000, -4.266990
  0.496000, -4.233190
  0.498000, -4.188750
  0.500000, -4.129060
  0.502000, -4.047260
  0.504000, -3.945100
  0.506000, -3.820480
  0.508000, -3.699230
  0.510000, -3.581230
  0.512000, -3.470820
  0.514000, -3.378830
  0.516000, -3.305640
  0.518000, -3.243600
  0.520000, -3.187060
  0.522000, -3.127300
  0.524000, -3.071900
  0.526000, -3.011000
  0.528000, -2.952070
  0.530000, -2.905560
  0.532000, -2.858360
  0.534000, -2.819200
  0.536000, -2.794490
  0.538000, -2.766800
  0.540000, -2.736290
  0.542000, -2.686540
  0.544000, -2.621510
  0.546000, -2.533310
  0.548000, -2.427330
  0.550000, -2.302760
  0.552000, -2.166930
  0.554000, -2.026220
  0.556000, -1.881230
  0.558000, -1.742250
  0.560000, -1.608890
  0.562000, -1.487760
  0.564000, -1.374060
  0.566000, -1.262250
  0.568000, -1.147750
  0.570000, -1.026860
  0.572000, -0.896010
  0.574000, -0.752060
  0.576000, -0.602600
  0.578000, -0.446280
  0.580000, -0.280720
  0.582000, -0.115500
  0.584000,  0.047670
  0.586000,  0.206420
  0.588000,  0.347030
  0.590000,  0.474080
  0.592000,  0.579670
  0.594000,  0.670020
  0.596000,  0.731810
  0.598000,  0.785640
  0.600000,  0.831830
  0.602000,  0.870110
  0.604000,  0.908770
  0.606000,  0.944500
  0.608000,  0.988150
  0.610000,  1.024470
  0.612000,  1.060450
  0.614000,  1.091410
  0.616000,  1.123060
  0.618000,  1.139320
  0.620000,  1.144670
  0.622000,  1.148800
  0.624000,  1.144570
  0.626000,  1.135890
  0.628000,  1.115040
  0.630000,  1.090820
  0.632000,  1.065670
  0.634000,  1.036350
  0.636000,  1.001770
  0.638000,  0.958660
  0.640000,  0.912260
  0.642000,  0.861500
  0.644000,  0.814510
  0.646000,  0.759300
  0.648000,  0.703200
  0.650000,  0.648970
  0.652000,  0.594580
  0.654000,  0.546610
  0.656000,  0.495800
  0.658000,  0.447950
  0.660000,  0.411440
  0.662000,  0.373510
  0.664000,  0.344410
  0.666000,  0.315950
  0.668000,  0.289160
  0.670000,  0.267850
  0.672000,  0.234360
  0.674000,  0.195630
  0.676000,  0.151440
  0.678000,  0.093530
  0.680000,  0.034280
  0.682000, -0.020340
  0.684000, -0.069600
  0.686000, -0.105620
  0.688000, -0.122880
  0.690000, -0.136750
  0.692000, -0.135090
  0.694000, -0.127650
  0.696000, -0.116540
  0.698000, -0.104260
  0.700000, -0.102430
  0.702000, -0.108180
  0.704000, -0.132940
  0.706000, -0.167810
  0.708000, -0.207490
  0.710000, -0.253130
  0.712000, -0.297310
  0.714000, -0.325440
  0.716000, -0.344410
  0.718000, -0.336130
  0.720000, -0.311010
  0.722000, -0.263150
  0.724000, -0.212960
  0.726000, -0.162040
  0.728000, -0.121510
  0.730000, -0.089320
  0.732000, -0.066870
  0.734000, -0.064360
  0.736000, -0.070270
  0.738000, -0.093300
  0.740000, -0.125160
  0.742000, -0.162690
  0.744000, -0.202050
  0.746000, -0.236780
  0.748000, -0.270890
  0.750000, -0.297690
  0.752000, -0.314540
  0.754000, -0.329920
  0.756000, -0.341460
  0.758000, -0.340360
  0.760000, -0.340850
  0.762000, -0.337680
  0.764000, -0.322530
  0.766000, -0.306780
  0.768000, -0.281360
  0.770000, -0.254180
  0.772000, -0.224650
  0.774000, -0.197870
  0.776000, -0.174930
  0.778000, -0.158630
  0.780000, -0.149460
  0.782000, -0.150650
  0.784000, -0.156270
  0.786000, -0.168900
  0.788000, -0.188030
  0.790000, -0.205210
  0.792000, -0.226930
  0.794000, -0.240090
  0.796000, -0.247870
  0.798000, -0.251680
  0.800000, -0.247650
  0.802000, -0.233830
  0.804000, -0.212920
  0.806000, -0.184900
  0.808000, -0.151770
  0.810000, -0.124690
  0.812000, -0.097840
  0.814000, -0.069980
  0.816000, -0.056310
  0.818000, -0.041610
  0.820000, -0.036940
  0.822000, -0.034450
  0.824000, -0.028210
  0.826000, -0.023260
  0.828000, -0.010180
  0.830000,  0.002240
  0.832000,  0.017000
  0.834000,  0.031510
  0.836000,  0.044890
  0.838000,  0.059060
  0.840000,  0.078460
  0.842000,  0.089150
  0.844000,  0.102260
  0.846000,  0.110800
  0.848000,  0.119060
  0.850000,  0.126210
  0.852000,  0.137270
  0.854000,  0.150870
  0.856000,  0.166580
  0.858000,  0.188340
  0.860000,  0.206220
  0.862000,  0.218060
  0.864000,  0.236780
  0.866000,  0.253500
  0.868000,  0.272750
  0.870000,  0.297350
  0.872000,  0.315160
  0.874000,  0.337970
  0.876000,  0.360570
  0.878000,  0.384150
  0.880000,  0.405760
  0.882000,  0.418840
  0.884000,  0.431560
  0.886000,  0.431020
  0.888000,  0.416760
  0.890000,  0.400060
  0.892000,  0.372710
  0.894000,  0.337120
  0.896000,  0.299500
  0.898000,  0.263670
  0.900000,  0.228490
  0.902000,  0.196580
  0.904000,  0.172160
  0.906000,  0.155860
  0.908000,  0.155160
  0.910000,  0.156820
  0.912000,  0.162030
  0.914000,  0.176050
  0.916000,  0.190560
  0.918000,  0.202150
  0.920000,  0.208990
  0.922000,  0.207890
  0.924000,  0.209430
  0.926000,  0.208500
  0.928000,  0.203420
  0.930000,  0.184710
  0.932000,  0.167130
  0.934000,  0.153600
  0.936000,  0.136460
  0.938000,  0.127130
  0.940000,  0.115390
  0.942000,  0.104230
  0.944000,  0.097590
  0.946000,  0.088090
  0.948000,  0.079820
  0.950000,  0.066470
  0.952000,  0.048390
  0.954000,  0.029350
  0.956000,  0.009960
  0.958000, -0.013960
  0.960000, -0.041330
  0.962000, -0.070770
  0.964000, -0.098650
  0.966000, -0.118400
  0.968000, -0.140270
  0.970000, -0.150640
  0.972000, -0.161930
  0.974000, -0.170800
  0.976000, -0.169750
  0.978000, -0.169110
  0.980000, -0.167870
  0.982000, -0.177000
  0.984000, -0.186440
  0.986000, -0.193300
  0.988000, -0.206130
  0.990000, -0.226960
  0.992000, -0.257700
  0.994000, -0.280980
  0.996000, -0.310730
  0.998000, -0.340440
  1.000000, -0.360770
