# z (nm)   (kJ/mol)
  0.078000,271.329540
  0.080000,266.611090
  0.082000,263.238870
  0.084000,260.358530
  0.086000,257.591520
  0.088000,254.799300
  0.090000,251.946500
  0.092000,249.096910
  0.094000,246.217510
  0.096000,243.281090
  0.098000,240.272810
  0.100000,237.176280
  0.102000,233.977740
  0.104000,230.656510
  0.106000,227.194470
  0.108000,223.579070
  0.110000,219.789100
  0.112000,215.809660
  0.114000,211.634720
  0.116000,207.272290
  0.118000,202.751100
  0.120000,198.123900
  0.122000,193.451690
  0.124000,188.810610
  0.126000,184.257520
  0.128000,179.812620
  0.130000,175.469610
  0.132000,171.196730
  0.134000,166.956150
  0.136000,162.732620
  0.138000,158.513750
  0.140000,154.326920
  0.142000,150.202990
  0.144000,146.186560
  0.146000,142.303050
  0.148000,138.564630
  0.150000,134.963890
  0.152000,131.479190
  0.154000,128.079780
  0.156000,124.742290
  0.158000,121.421430
  0.160000,118.102670
  0.162000,114.767750
  0.164000,111.418280
  0.166000,108.075330
  0.168000,104.760410
  0.170000,101.495310
  0.172000, 98.288740
  0.174000, 95.147150
  0.176000, 92.053690
  0.178000, 88.993450
  0.180000, 85.962360
  0.182000, 82.955130
  0.184000, 79.978440
  0.186000, 77.040150
  0.188000, 74.161320
  0.190000, 71.342700
  0.192000, 68.588740
  0.194000, 65.890640
  0.196000, 63.241500
  0.198000, 60.633120
  0.200000, 58.065000
  0.202000, 55.535500
  0.204000, 53.053480
  0.206000, 50.627280
  0.208000, 48.269540
  0.210000, 45.985630
  0.212000, 43.765780
  0.214000, 41.602520
  0.216000, 39.470830
  0.218000, 37.361590
  0.220000, 35.271210
  0.222000, 33.200540
  0.224000, 31.165220
  0.226000, 29.170620
  0.228000, 27.226150
  0.230000, 25.330470
  0.232000, 23.479750
  0.234000, 21.676300
  0.236000, 19.913280
  0.238000, 18.196930
  0.240000, 16.521750
  0.242000, 14.890180
  0.244000, 13.317460
  0.246000, 11.791630
  0.248000, 10.309230
  0.250000,  8.871800
  0.252000,  7.461370
  0.254000,  6.076710
  0.256000,  4.716860
  0.258000,  3.383870
  0.260000,  2.080030
  0.262000,  0.834970
  0.264000, -0.343850
  0.266000, -1.449170
  0.268000, -2.477150
  0.270000, -3.442540
  0.272000, -4.362590
  0.274000, -5.254800
  0.276000, -6.145010
  0.278000, -7.030760
  0.280000, -7.912390
  0.282000, -8.765470
  0.284000, -9.579120
  0.286000,-10.334320
  0.288000,-11.017520
  0.290000,-11.634390
  0.292000,-12.178580
  0.294000,-12.680450
  0.296000,-13.144640
  0.298000,-13.574750
  0.300000,-13.985660
  0.302000,-14.380520
  0.304000,-14.748390
  0.306000,-15.097110
  0.308000,-15.422800
  0.310000,-15.729000
  0.312000,-16.004950
  0.314000,-16.239730
  0.316000,-16.444100
  0.318000,-16.599670
  0.320000,-16.711470
  0.322000,-16.777890
  0.324000,-16.804740
  0.326000,-16.809330
  0.328000,-16.797280
  0.330000,-16.768190
  0.332000,-16.727620
  0.334000,-16.670510
  0.336000,-16.594550
  0.338000,-16.508630
  0.340000,-16.394360
  0.342000,-16.263330
  0.344000,-16.113400
  0.346000,-15.946100
  0.348000,-15.766700
  0.350000,-15.579420
  0.352000,-15.368900
  0.354000,-15.148550
  0.356000,-14.910420
  0.358000,-14.665080
  0.360000,-14.393330
  0.362000,-14.100810
  0.364000,-13.797640
  0.366000,-13.486550
  0.368000,-13.169900
  0.370000,-12.850370
  0.372000,-12.527780
  0.374000,-12.213820
  0.376000,-11.909930
  0.378000,-11.615280
  0.380000,-11.326720
  0.382000,-11.045180
  0.384000,-10.759320
  0.386000,-10.470090
  0.388000,-10.188610
  0.390000, -9.901630
  0.392000, -9.616660
  0.394000, -9.328720
  0.396000, -9.039350
  0.398000, -8.748620
  0.400000, -8.457830
  0.402000, -8.165560
  0.404000, -7.869960
  0.406000, -7.584510
  0.408000, -7.306540
  0.410000, -7.047030
  0.412000, -6.807930
  0.414000, -6.586760
  0.416000, -6.387160
  0.418000, -6.198390
  0.420000, -6.023280
  0.422000, -5.847770
  0.424000, -5.671860
  0.426000, -5.500260
  0.428000, -5.325180
  0.430000, -5.147270
  0.432000, -4.973020
  0.434000, -4.802550
  0.436000, -4.640110
  0.438000, -4.474800
  0.440000, -4.322460
  0.442000, -4.179600
  0.444000, -4.043680
  0.446000, -3.913970
  0.448000, -3.793780
  0.450000, -3.680430
  0.452000, -3.574230
  0.454000, -3.459240
  0.456000, -3.332410
  0.458000, -3.214930
  0.460000, -3.089390
  0.462000, -2.962430
  0.464000, -2.846950
  0.466000, -2.728080
  0.468000, -2.616330
  0.470000, -2.520010
  0.472000, -2.436800
  0.474000, -2.363600
  0.476000, -2.293990
  0.478000, -2.222110
  0.480000, -2.148160
  0.482000, -2.061040
  0.484000, -1.959390
  0.486000, -1.852880
  0.488000, -1.750560
  0.490000, -1.666050
  0.492000, -1.597670
  0.494000, -1.565380
  0.496000, -1.573310
  0.498000, -1.609720
  0.500000, -1.669750
  0.502000, -1.739040
  0.504000, -1.811900
  0.506000, -1.879740
  0.508000, -1.930470
  0.510000, -1.968010
  0.512000, -1.986880
  0.514000, -1.990110
  0.516000, -1.979320
  0.518000, -1.952640
  0.520000, -1.922570
  0.522000, -1.898180
  0.524000, -1.869020
  0.526000, -1.843580
  0.528000, -1.818230
  0.530000, -1.795970
  0.532000, -1.771010
  0.534000, -1.743780
  0.536000, -1.717760
  0.538000, -1.680500
  0.540000, -1.636080
  0.542000, -1.588330
  0.544000, -1.535860
  0.546000, -1.477450
  0.548000, -1.416570
  0.550000, -1.338320
  0.552000, -1.250750
  0.554000, -1.149720
  0.556000, -1.043880
  0.558000, -0.928540
  0.560000, -0.806570
  0.562000, -0.680610
  0.564000, -0.548720
  0.566000, -0.417830
  0.568000, -0.292970
  0.570000, -0.173100
  0.572000, -0.058690
  0.574000,  0.049610
  0.576000,  0.150230
  0.578000,  0.236780
  0.580000,  0.321300
  0.582000,  0.389160
  0.584000,  0.452240
  0.586000,  0.503580
  0.588000,  0.544340
  0.590000,  0.588530
  0.592000,  0.628000
  0.594000,  0.663100
  0.596000,  0.700730
  0.598000,  0.740670
  0.600000,  0.779700
  0.602000,  0.818310
  0.604000,  0.858000
  0.606000,  0.885680
  0.608000,  0.908560
  0.610000,  0.926250
  0.612000,  0.922030
  0.614000,  0.896340
  0.616000,  0.871070
  0.618000,  0.825610
  0.620000,  0.769440
  0.622000,  0.704270
  0.624000,  0.639860
  0.626000,  0.578170
  0.628000,  0.517490
  0.630000,  0.464200
  0.632000,  0.400660
  0.634000,  0.339570
  0.636000,  0.275860
  0.638000,  0.201930
  0.640000,  0.119930
  0.642000,  0.039200
  0.644000, -0.049420
  0.646000, -0.134690
  0.648000, -0.210410
  0.650000, -0.274610
  0.652000, -0.320340
  0.654000, -0.351360
  0.656000, -0.370540
  0.658000, -0.380780
  0.660000, -0.398630
  0.662000, -0.413960
  0.664000, -0.441440
  0.666000, -0.488720
  0.668000, -0.544900
  0.670000, -0.615500
  0.672000, -0.687930
  0.674000, -0.750510
  0.676000, -0.821090
  0.678000, -0.871820
  0.680000, -0.901170
  0.682000, -0.921040
  0.684000, -0.928210
  0.686000, -0.924640
  0.688000, -0.910940
  0.690000, -0.906400
  0.692000, -0.894550
  0.694000, -0.884490
  0.696000, -0.880650
  0.698000, -0.876630
  0.700000, -0.885770
  0.702000, -0.897930
  0.704000, -0.912320
  0.706000, -0.941420
  0.708000, -0.970450
  0.710000, -0.999600
  0.712000, -1.022370
  0.714000, -1.046730
  0.716000, -1.066470
  0.718000, -1.084290
  0.720000, -1.098670
  0.722000, -1.100690
  0.724000, -1.095600
  0.726000, -1.079820
  0.728000, -1.053500
  0.730000, -1.024050
  0.732000, -0.987790
  0.734000, -0.947400
  0.736000, -0.908630
  0.738000, -0.873210
  0.740000, -0.843670
  0.742000, -0.814510
  0.744000, -0.792820
  0.746000, -0.778050
  0.748000, -0.767450
  0.750000, -0.768180
  0.752000, -0.764760
  0.754000, -0.767520
  0.756000, -0.765760
  0.758000, -0.766350
  0.760000, -0.760880
  0.762000, -0.747570
  0.764000, -0.724340
  0.766000, -0.700540
  0.768000, -0.664920
  0.770000, -0.624550
  0.772000, -0.581590
  0.774000, -0.536740
  0.776000, -0.497770
  0.778000, -0.465590
  0.780000, -0.437690
  0.782000, -0.423890
  0.784000, -0.408720
  0.786000, -0.398850
  0.788000, -0.389300
  0.790000, -0.378760
  0.792000, -0.363700
  0.794000, -0.344780
  0.796000, -0.321260
  0.798000, -0.294740
  0.800000, -0.270590
  0.802000, -0.249640
  0.804000, -0.234650
  0.806000, -0.221660
  0.808000, -0.216440
  0.810000, -0.219800
  0.812000, -0.223510
  0.814000, -0.226510
  0.816000, -0.227160
  0.818000, -0.223620
  0.820000, -0.213010
  0.822000, -0.201230
  0.824000, -0.182520
  0.826000, -0.169060
  0.828000, -0.154470
  0.830000, -0.147660
  0.832000, -0.141560
  0.834000, -0.144950
  0.836000, -0.155140
  0.838000, -0.165450
  0.840000, -0.167680
  0.842000, -0.171240
  0.844000, -0.170240
  0.846000, -0.157150
  0.848000, -0.135920
  0.850000, -0.107340
  0.852000, -0.071960
  0.854000, -0.027100
  0.856000,  0.015490
  0.858000,  0.050470
  0.860000,  0.085340
  0.862000,  0.099060
  0.864000,  0.105930
  0.866000,  0.101190
  0.868000,  0.090990
  0.870000,  0.075300
  0.872000,  0.066240
  0.874000,  0.063600
  0.876000,  0.056190
  0.878000,  0.066210
  0.880000,  0.070630
  0.882000,  0.079650
  0.884000,  0.091180
  0.886000,  0.107850
  0.888000,  0.115690
  0.890000,  0.123600
  0.892000,  0.126670
  0.894000,  0.122260
  0.896000,  0.113380
  0.898000,  0.110800
  0.900000,  0.102310
  0.902000,  0.086220
  0.904000,  0.073350
  0.906000,  0.060760
  0.908000,  0.051270
  0.910000,  0.043670
  0.912000,  0.034340
  0.914000,  0.033700
  0.916000,  0.034710
  0.918000,  0.041940
  0.920000,  0.047100
  0.922000,  0.055190
  0.924000,  0.065750
  0.926000,  0.065840
  0.928000,  0.071100
  0.930000,  0.073440
  0.932000,  0.068440
  0.934000,  0.065820
  0.936000,  0.066570
  0.938000,  0.070950
  0.940000,  0.072540
  0.942000,  0.073610
  0.944000,  0.072990
  0.946000,  0.069640
  0.948000,  0.058290
  0.950000,  0.046320
  0.952000,  0.031300
  0.954000,  0.003130
  0.956000, -0.021460
  0.958000, -0.049570
  0.960000, -0.078700
  0.962000, -0.097190
  0.964000, -0.107890
  0.966000, -0.108770
  0.968000, -0.100740
  0.970000, -0.086510
  0.972000, -0.073200
  0.974000, -0.059330
  0.976000, -0.045600
  0.978000, -0.036960
  0.980000, -0.031840
  0.982000, -0.032130
  0.984000, -0.033660
  0.986000, -0.038760
  0.988000, -0.050460
  0.990000, -0.058590
  0.992000, -0.069820
  0.994000, -0.078570
  0.996000, -0.085560
  0.998000, -0.093360
  1.000000, -0.099290
