# z (nm)   (kJ/mol)
  0.070000,274.156010
  0.072000,271.626150
  0.074000,267.317060
  0.076000,264.178210
  0.078000,261.546670
  0.080000,258.907390
  0.082000,256.230610
  0.084000,253.548490
  0.086000,250.856220
  0.088000,248.088710
  0.090000,245.262390
  0.092000,242.341590
  0.094000,239.307930
  0.096000,236.138950
  0.098000,232.822470
  0.100000,229.354650
  0.102000,225.733580
  0.104000,221.969800
  0.106000,218.066720
  0.108000,214.041050
  0.110000,209.906870
  0.112000,205.676830
  0.114000,201.361540
  0.116000,196.982780
  0.118000,192.558160
  0.120000,188.119810
  0.122000,183.682760
  0.124000,179.292320
  0.126000,174.965280
  0.128000,170.716970
  0.130000,166.558640
  0.132000,162.498690
  0.134000,158.533450
  0.136000,154.658200
  0.138000,150.871790
  0.140000,147.172510
  0.142000,143.555790
  0.144000,140.017520
  0.146000,136.560850
  0.148000,133.182160
  0.150000,129.862330
  0.152000,126.585890
  0.154000,123.334630
  0.156000,120.082640
  0.158000,116.826370
  0.160000,113.562230
  0.162000,110.292550
  0.164000,107.049730
  0.166000,103.846610
  0.168000,100.695230
  0.170000, 97.607580
  0.172000, 94.574660
  0.174000, 91.587030
  0.176000, 88.639260
  0.178000, 85.725970
  0.180000, 82.840990
  0.182000, 80.006440
  0.184000, 77.221280
  0.186000, 74.508810
  0.188000, 71.881310
  0.190000, 69.342630
  0.192000, 66.890310
  0.194000, 64.511450
  0.196000, 62.182510
  0.198000, 59.888310
  0.200000, 57.597290
  0.202000, 55.290150
  0.204000, 52.969010
  0.206000, 50.634740
  0.208000, 48.313380
  0.210000, 46.050480
  0.212000, 43.898000
  0.214000, 41.876700
  0.216000, 39.998200
  0.218000, 38.244660
  0.220000, 36.562830
  0.222000, 34.906210
  0.224000, 33.241480
  0.226000, 31.543350
  0.228000, 29.824020
  0.230000, 28.100610
  0.232000, 26.397450
  0.234000, 24.742530
  0.236000, 23.143130
  0.238000, 21.617940
  0.240000, 20.162090
  0.242000, 18.776730
  0.244000, 17.460080
  0.246000, 16.205490
  0.248000, 14.992430
  0.250000, 13.819210
  0.252000, 12.669500
  0.254000, 11.542140
  0.256000, 10.424350
  0.258000,  9.314950
  0.260000,  8.211710
  0.262000,  7.121780
  0.264000,  6.063340
  0.266000,  5.053470
  0.268000,  4.103920
  0.270000,  3.219260
  0.272000,  2.405020
  0.274000,  1.645890
  0.276000,  0.944200
  0.278000,  0.282530
  0.280000, -0.357350
  0.282000, -0.975460
  0.284000, -1.589510
  0.286000, -2.200020
  0.288000, -2.797020
  0.290000, -3.388620
  0.292000, -3.950460
  0.294000, -4.484250
  0.296000, -4.974450
  0.298000, -5.415610
  0.300000, -5.810590
  0.302000, -6.168550
  0.304000, -6.492850
  0.306000, -6.795120
  0.308000, -7.072530
  0.310000, -7.340100
  0.312000, -7.587910
  0.314000, -7.815870
  0.316000, -8.018220
  0.318000, -8.193160
  0.320000, -8.343050
  0.322000, -8.476590
  0.324000, -8.588530
  0.326000, -8.684500
  0.328000, -8.768340
  0.330000, -8.837670
  0.332000, -8.902650
  0.334000, -8.959320
  0.336000, -9.013210
  0.338000, -9.049130
  0.340000, -9.079500
  0.342000, -9.093570
  0.344000, -9.084990
  0.346000, -9.061450
  0.348000, -9.014810
  0.350000, -8.954920
  0.352000, -8.889950
  0.354000, -8.811020
  0.356000, -8.739470
  0.358000, -8.670860
  0.360000, -8.608630
  0.362000, -8.553030
  0.364000, -8.495350
  0.366000, -8.439550
  0.368000, -8.376440
  0.370000, -8.320530
  0.372000, -8.258390
  0.374000, -8.192370
  0.376000, -8.114260
  0.378000, -8.035730
  0.380000, -7.938750
  0.382000, -7.824070
  0.384000, -7.695780
  0.386000, -7.567490
  0.388000, -7.431750
  0.390000, -7.304450
  0.392000, -7.170700
  0.394000, -7.047710
  0.396000, -6.932060
  0.398000, -6.829960
  0.400000, -6.742350
  0.402000, -6.651980
  0.404000, -6.560530
  0.406000, -6.462570
  0.408000, -6.360770
  0.410000, -6.251290
  0.412000, -6.125380
  0.414000, -5.987110
  0.416000, -5.840880
  0.418000, -5.689510
  0.420000, -5.534200
  0.422000, -5.378050
  0.424000, -5.207570
  0.426000, -5.046550
  0.428000, -4.879260
  0.430000, -4.725860
  0.432000, -4.574880
  0.434000, -4.442600
  0.436000, -4.317110
  0.438000, -4.207520
  0.440000, -4.098320
  0.442000, -3.999460
  0.444000, -3.899950
  0.446000, -3.796010
  0.448000, -3.670600
  0.450000, -3.533630
  0.452000, -3.383570
  0.454000, -3.211490
  0.456000, -3.037460
  0.458000, -2.862910
  0.460000, -2.693390
  0.462000, -2.531150
  0.464000, -2.383030
  0.466000, -2.246810
  0.468000, -2.123490
  0.470000, -2.003000
  0.472000, -1.886750
  0.474000, -1.778130
  0.476000, -1.660450
  0.478000, -1.544960
  0.480000, -1.420910
  0.482000, -1.286830
  0.484000, -1.149000
  0.486000, -1.002290
  0.488000, -0.860900
  0.490000, -0.727330
  0.492000, -0.592990
  0.494000, -0.474640
  0.496000, -0.365180
  0.498000, -0.268650
  0.500000, -0.185170
  0.502000, -0.110920
  0.504000, -0.041500
  0.506000,  0.024950
  0.508000,  0.080340
  0.510000,  0.144850
  0.512000,  0.215440
  0.514000,  0.293890
  0.516000,  0.385630
  0.518000,  0.467770
  0.520000,  0.553660
  0.522000,  0.642800
  0.524000,  0.731530
  0.526000,  0.817900
  0.528000,  0.906730
  0.530000,  0.983590
  0.532000,  1.056970
  0.534000,  1.135710
  0.536000,  1.211380
  0.538000,  1.281630
  0.540000,  1.350130
  0.542000,  1.412580
  0.544000,  1.473470
  0.546000,  1.527160
  0.548000,  1.572740
  0.550000,  1.612740
  0.552000,  1.647810
  0.554000,  1.667810
  0.556000,  1.690640
  0.558000,  1.703910
  0.560000,  1.714840
  0.562000,  1.723910
  0.564000,  1.734010
  0.566000,  1.749550
  0.568000,  1.764230
  0.570000,  1.785140
  0.572000,  1.810700
  0.574000,  1.827410
  0.576000,  1.834060
  0.578000,  1.835120
  0.580000,  1.827480
  0.582000,  1.815110
  0.584000,  1.795620
  0.586000,  1.774350
  0.588000,  1.747340
  0.590000,  1.721580
  0.592000,  1.689680
  0.594000,  1.660800
  0.596000,  1.624310
  0.598000,  1.582140
  0.600000,  1.532930
  0.602000,  1.472380
  0.604000,  1.406550
  0.606000,  1.332070
  0.608000,  1.250500
  0.610000,  1.167120
  0.612000,  1.092940
  0.614000,  1.020310
  0.616000,  0.961090
  0.618000,  0.908030
  0.620000,  0.864270
  0.622000,  0.827300
  0.624000,  0.786160
  0.626000,  0.733500
  0.628000,  0.671450
  0.630000,  0.603930
  0.632000,  0.541730
  0.634000,  0.475890
  0.636000,  0.419730
  0.638000,  0.361550
  0.640000,  0.317730
  0.642000,  0.283660
  0.644000,  0.252150
  0.646000,  0.219540
  0.648000,  0.185350
  0.650000,  0.148910
  0.652000,  0.112290
  0.654000,  0.071320
  0.656000,  0.025260
  0.658000, -0.019840
  0.660000, -0.057150
  0.662000, -0.097250
  0.664000, -0.136570
  0.666000, -0.174950
  0.668000, -0.219420
  0.670000, -0.266630
  0.672000, -0.311860
  0.674000, -0.356100
  0.676000, -0.392970
  0.678000, -0.422730
  0.680000, -0.448900
  0.682000, -0.477270
  0.684000, -0.498850
  0.686000, -0.517980
  0.688000, -0.540290
  0.690000, -0.571820
  0.692000, -0.600150
  0.694000, -0.631730
  0.696000, -0.659580
  0.698000, -0.688490
  0.700000, -0.714230
  0.702000, -0.734980
  0.704000, -0.750660
  0.706000, -0.764870
  0.708000, -0.766210
  0.710000, -0.763420
  0.712000, -0.757820
  0.714000, -0.749860
  0.716000, -0.742930
  0.718000, -0.735500
  0.720000, -0.737090
  0.722000, -0.745420
  0.724000, -0.751310
  0.726000, -0.763930
  0.728000, -0.774630
  0.730000, -0.774160
  0.732000, -0.768800
  0.734000, -0.755680
  0.736000, -0.737460
  0.738000, -0.710210
  0.740000, -0.686680
  0.742000, -0.669730
  0.744000, -0.654990
  0.746000, -0.646080
  0.748000, -0.635970
  0.750000, -0.627230
  0.752000, -0.619350
  0.754000, -0.603820
  0.756000, -0.582080
  0.758000, -0.545770
  0.760000, -0.507190
  0.762000, -0.460330
  0.764000, -0.417450
  0.766000, -0.382070
  0.768000, -0.347330
  0.770000, -0.327250
  0.772000, -0.311430
  0.774000, -0.305130
  0.776000, -0.303480
  0.778000, -0.302920
  0.780000, -0.293500
  0.782000, -0.282430
  0.784000, -0.259260
  0.786000, -0.217610
  0.788000, -0.170410
  0.790000, -0.110280
  0.792000, -0.049040
  0.794000,  0.013840
  0.796000,  0.075590
  0.798000,  0.124440
  0.800000,  0.160120
  0.802000,  0.188890
  0.804000,  0.211840
  0.806000,  0.220140
  0.808000,  0.219530
  0.810000,  0.219390
  0.812000,  0.212690
  0.814000,  0.212610
  0.816000,  0.218420
  0.818000,  0.228860
  0.820000,  0.236180
  0.822000,  0.247760
  0.824000,  0.266800
  0.826000,  0.291990
  0.828000,  0.320130
  0.830000,  0.353690
  0.832000,  0.385960
  0.834000,  0.415400
  0.836000,  0.444310
  0.838000,  0.470450
  0.840000,  0.484690
  0.842000,  0.489590
  0.844000,  0.490880
  0.846000,  0.481110
  0.848000,  0.469350
  0.850000,  0.457440
  0.852000,  0.445660
  0.854000,  0.438410
  0.856000,  0.429180
  0.858000,  0.424150
  0.860000,  0.429900
  0.862000,  0.427870
  0.864000,  0.432880
  0.866000,  0.434080
  0.868000,  0.438480
  0.870000,  0.441050
  0.872000,  0.443060
  0.874000,  0.434300
  0.876000,  0.414330
  0.878000,  0.394070
  0.880000,  0.359500
  0.882000,  0.327360
  0.884000,  0.291730
  0.886000,  0.257350
  0.888000,  0.227460
  0.890000,  0.213250
  0.892000,  0.197990
  0.894000,  0.185180
  0.896000,  0.182880
  0.898000,  0.180880
  0.900000,  0.188390
  0.902000,  0.192190
  0.904000,  0.193570
  0.906000,  0.195440
  0.908000,  0.191540
  0.910000,  0.183680
  0.912000,  0.186560
  0.914000,  0.180700
  0.916000,  0.169820
  0.918000,  0.163640
  0.920000,  0.154350
  0.922000,  0.149780
  0.924000,  0.142990
  0.926000,  0.124350
  0.928000,  0.111480
  0.930000,  0.098210
  0.932000,  0.091490
  0.934000,  0.087750
  0.936000,  0.083540
  0.938000,  0.090720
  0.940000,  0.101560
  0.942000,  0.113470
  0.944000,  0.123940
  0.946000,  0.117750
  0.948000,  0.109560
  0.950000,  0.088190
  0.952000,  0.058740
  0.954000,  0.020900
  0.956000, -0.011900
  0.958000, -0.050290
  0.960000, -0.087350
  0.962000, -0.125800
  0.964000, -0.146480
  0.966000, -0.166450
  0.968000, -0.175760
  0.970000, -0.181370
  0.972000, -0.183440
  0.974000, -0.183640
  0.976000, -0.188690
  0.978000, -0.187480
  0.980000, -0.188500
  0.982000, -0.187130
  0.984000, -0.180970
  0.986000, -0.172470
  0.988000, -0.165380
  0.990000, -0.160670
  0.992000, -0.153440
  0.994000, -0.148750
  0.996000, -0.152200
  0.998000, -0.158130
  1.000000, -0.169600
