# z (nm)   (kJ/mol)
  0.118000,270.815700
  0.120000,268.546780
  0.122000,266.313350
  0.124000,263.722030
  0.126000,261.099240
  0.128000,258.767540
  0.130000,256.424710
  0.132000,254.013760
  0.134000,251.569500
  0.136000,249.080660
  0.138000,246.518900
  0.140000,243.890270
  0.142000,241.158500
  0.144000,238.339160
  0.146000,235.413790
  0.148000,232.380970
  0.150000,229.229780
  0.152000,225.970280
  0.154000,222.596570
  0.156000,219.106440
  0.158000,215.500570
  0.160000,211.785150
  0.162000,207.967020
  0.164000,204.053500
  0.166000,200.075740
  0.168000,196.052230
  0.170000,191.998360
  0.172000,187.938030
  0.174000,183.885630
  0.176000,179.852790
  0.178000,175.850010
  0.180000,171.886310
  0.182000,167.972030
  0.184000,164.138490
  0.186000,160.409150
  0.188000,156.806930
  0.190000,153.336540
  0.192000,149.988810
  0.194000,146.727630
  0.196000,143.500130
  0.198000,140.265820
  0.200000,137.008710
  0.202000,133.739490
  0.204000,130.486550
  0.206000,127.283560
  0.208000,124.171760
  0.210000,121.159910
  0.212000,118.236220
  0.214000,115.382050
  0.216000,112.561350
  0.218000,109.753560
  0.220000,106.940750
  0.222000,104.123070
  0.224000,101.290760
  0.226000, 98.456890
  0.228000, 95.626990
  0.230000, 92.817930
  0.232000, 90.043450
  0.234000, 87.335980
  0.236000, 84.706890
  0.238000, 82.171150
  0.240000, 79.718720
  0.242000, 77.340460
  0.244000, 75.009700
  0.246000, 72.712450
  0.248000, 70.450300
  0.250000, 68.204010
  0.252000, 65.979700
  0.254000, 63.779040
  0.256000, 61.614380
  0.258000, 59.499880
  0.260000, 57.444140
  0.262000, 55.465210
  0.264000, 53.574230
  0.266000, 51.768370
  0.268000, 50.013330
  0.270000, 48.272020
  0.272000, 46.529900
  0.274000, 44.768550
  0.276000, 43.008290
  0.278000, 41.265110
  0.280000, 39.591700
  0.282000, 37.995750
  0.284000, 36.487360
  0.286000, 35.042740
  0.288000, 33.620190
  0.290000, 32.218290
  0.292000, 30.825900
  0.294000, 29.456030
  0.296000, 28.117900
  0.298000, 26.807170
  0.300000, 25.520270
  0.302000, 24.255140
  0.304000, 23.022940
  0.306000, 21.825700
  0.308000, 20.678040
  0.310000, 19.580240
  0.312000, 18.539980
  0.314000, 17.548170
  0.316000, 16.584250
  0.318000, 15.632920
  0.320000, 14.687680
  0.322000, 13.727020
  0.324000, 12.752020
  0.326000, 11.786180
  0.328000, 10.852530
  0.330000,  9.958170
  0.332000,  9.120470
  0.334000,  8.330170
  0.336000,  7.584270
  0.338000,  6.878930
  0.340000,  6.188670
  0.342000,  5.497000
  0.344000,  4.801030
  0.346000,  4.094810
  0.348000,  3.395230
  0.350000,  2.721650
  0.352000,  2.078970
  0.354000,  1.470130
  0.356000,  0.896970
  0.358000,  0.351950
  0.360000, -0.165940
  0.362000, -0.665470
  0.364000, -1.160930
  0.366000, -1.634160
  0.368000, -2.085280
  0.370000, -2.514710
  0.372000, -2.909570
  0.374000, -3.263220
  0.376000, -3.580070
  0.378000, -3.859020
  0.380000, -4.104520
  0.382000, -4.327160
  0.384000, -4.529790
  0.386000, -4.740650
  0.388000, -4.949500
  0.390000, -5.159900
  0.392000, -5.361800
  0.394000, -5.543890
  0.396000, -5.704530
  0.398000, -5.833870
  0.400000, -5.934300
  0.402000, -6.017730
  0.404000, -6.097660
  0.406000, -6.169100
  0.408000, -6.246520
  0.410000, -6.322530
  0.412000, -6.395730
  0.414000, -6.453980
  0.416000, -6.508860
  0.418000, -6.542440
  0.420000, -6.556500
  0.422000, -6.565820
  0.424000, -6.567790
  0.426000, -6.570750
  0.428000, -6.574420
  0.430000, -6.597010
  0.432000, -6.621430
  0.434000, -6.646560
  0.436000, -6.675210
  0.438000, -6.695740
  0.440000, -6.699980
  0.442000, -6.706470
  0.444000, -6.699170
  0.446000, -6.682630
  0.448000, -6.666240
  0.450000, -6.657950
  0.452000, -6.654450
  0.454000, -6.657400
  0.456000, -6.672600
  0.458000, -6.680940
  0.460000, -6.691320
  0.462000, -6.675290
  0.464000, -6.636540
  0.466000, -6.579710
  0.468000, -6.505770
  0.470000, -6.422200
  0.472000, -6.339100
  0.474000, -6.261430
  0.476000, -6.190960
  0.478000, -6.122410
  0.480000, -6.067690
  0.482000, -6.007810
  0.484000, -5.957100
  0.486000, -5.909760
  0.488000, -5.858260
  0.490000, -5.808650
  0.492000, -5.762550
  0.494000, -5.707270
  0.496000, -5.654560
  0.498000, -5.605190
  0.500000, -5.566120
  0.502000, -5.539680
  0.504000, -5.528840
  0.506000, -5.535650
  0.508000, -5.554760
  0.510000, -5.581920
  0.512000, -5.618170
  0.514000, -5.664350
  0.516000, -5.715890
  0.518000, -5.762370
  0.520000, -5.806190
  0.522000, -5.846130
  0.524000, -5.864230
  0.526000, -5.874770
  0.528000, -5.862220
  0.530000, -5.842390
  0.532000, -5.808460
  0.534000, -5.760420
  0.536000, -5.718720
  0.538000, -5.687160
  0.540000, -5.671200
  0.542000, -5.661280
  0.544000, -5.664230
  0.546000, -5.667490
  0.548000, -5.669610
  0.550000, -5.659830
  0.552000, -5.636310
  0.554000, -5.593770
  0.556000, -5.534040
  0.558000, -5.468580
  0.560000, -5.374890
  0.562000, -5.273340
  0.564000, -5.163710
  0.566000, -5.046300
  0.568000, -4.930920
  0.570000, -4.822070
  0.572000, -4.717940
  0.574000, -4.617610
  0.576000, -4.529810
  0.578000, -4.443080
  0.580000, -4.357920
  0.582000, -4.263420
  0.584000, -4.158040
  0.586000, -4.031200
  0.588000, -3.892470
  0.590000, -3.738160
  0.592000, -3.570400
  0.594000, -3.387120
  0.596000, -3.189130
  0.598000, -2.995480
  0.600000, -2.808010
  0.602000, -2.636980
  0.604000, -2.485270
  0.606000, -2.356500
  0.608000, -2.242040
  0.610000, -2.134250
  0.612000, -2.034970
  0.614000, -1.932400
  0.616000, -1.828930
  0.618000, -1.731460
  0.620000, -1.632670
  0.622000, -1.549250
  0.624000, -1.490370
  0.626000, -1.437550
  0.628000, -1.391110
  0.630000, -1.343440
  0.632000, -1.294820
  0.634000, -1.235970
  0.636000, -1.157960
  0.638000, -1.069520
  0.640000, -0.972610
  0.642000, -0.879460
  0.644000, -0.805530
  0.646000, -0.755060
  0.648000, -0.733480
  0.650000, -0.737910
  0.652000, -0.760320
  0.654000, -0.791590
  0.656000, -0.830290
  0.658000, -0.846460
  0.660000, -0.857260
  0.662000, -0.839680
  0.664000, -0.803180
  0.666000, -0.753340
  0.668000, -0.711560
  0.670000, -0.679990
  0.672000, -0.640420
  0.674000, -0.609530
  0.676000, -0.587570
  0.678000, -0.562400
  0.680000, -0.549120
  0.682000, -0.525250
  0.684000, -0.502290
  0.686000, -0.480230
  0.688000, -0.457140
  0.690000, -0.430020
  0.692000, -0.394640
  0.694000, -0.383920
  0.696000, -0.373600
  0.698000, -0.374030
  0.700000, -0.382480
  0.702000, -0.395670
  0.704000, -0.415170
  0.706000, -0.426970
  0.708000, -0.426820
  0.710000, -0.418760
  0.712000, -0.396830
  0.714000, -0.367210
  0.716000, -0.339630
  0.718000, -0.304880
  0.720000, -0.269150
  0.722000, -0.241570
  0.724000, -0.219910
  0.726000, -0.204590
  0.728000, -0.197660
  0.730000, -0.197990
  0.732000, -0.198560
  0.734000, -0.191690
  0.736000, -0.180370
  0.738000, -0.159900
  0.740000, -0.134750
  0.742000, -0.111190
  0.744000, -0.088670
  0.746000, -0.071850
  0.748000, -0.064160
  0.750000, -0.076710
  0.752000, -0.095800
  0.754000, -0.125500
  0.756000, -0.150940
  0.758000, -0.178510
  0.760000, -0.199770
  0.762000, -0.213860
  0.764000, -0.223280
  0.766000, -0.220520
  0.768000, -0.217940
  0.770000, -0.213590
  0.772000, -0.206120
  0.774000, -0.196060
  0.776000, -0.190100
  0.778000, -0.188340
  0.780000, -0.184090
  0.782000, -0.172480
  0.784000, -0.157520
  0.786000, -0.140150
  0.788000, -0.126000
  0.790000, -0.109860
  0.792000, -0.101810
  0.794000, -0.112830
  0.796000, -0.136030
  0.798000, -0.175340
  0.800000, -0.224030
  0.802000, -0.287350
  0.804000, -0.345660
  0.806000, -0.397110
  0.808000, -0.432200
  0.810000, -0.437240
  0.812000, -0.410970
  0.814000, -0.355160
  0.816000, -0.287910
  0.818000, -0.219360
  0.820000, -0.165730
  0.822000, -0.150560
  0.824000, -0.184770
  0.826000, -0.271630
  0.828000, -0.398100
  0.830000, -0.535050
  0.832000, -0.642200
  0.834000, -0.688450
  0.836000, -0.668490
  0.838000, -0.592590
  0.840000, -0.494890
  0.842000, -0.410600
  0.844000, -0.357760
  0.846000, -0.347750
  0.848000, -0.370670
  0.850000, -0.418260
  0.852000, -0.478270
  0.854000, -0.537440
  0.856000, -0.590270
  0.858000, -0.633310
  0.860000, -0.650930
  0.862000, -0.651940
  0.864000, -0.637900
  0.866000, -0.612400
  0.868000, -0.578020
  0.870000, -0.544050
  0.872000, -0.510520
  0.874000, -0.475440
  0.876000, -0.452440
  0.878000, -0.440460
  0.880000, -0.435540
  0.882000, -0.440070
  0.884000, -0.446210
  0.886000, -0.452790
  0.888000, -0.455140
  0.890000, -0.452700
  0.892000, -0.433520
  0.894000, -0.404290
  0.896000, -0.358480
  0.898000, -0.308660
  0.900000, -0.246680
  0.902000, -0.184430
  0.904000, -0.129320
  0.906000, -0.088810
  0.908000, -0.073580
  0.910000, -0.080150
  0.912000, -0.109020
  0.914000, -0.146390
  0.916000, -0.196040
  0.918000, -0.231160
  0.920000, -0.258540
  0.922000, -0.262110
  0.924000, -0.249000
  0.926000, -0.209730
  0.928000, -0.166640
  0.930000, -0.121000
  0.932000, -0.082820
  0.934000, -0.049340
  0.936000, -0.033290
  0.938000, -0.026540
  0.940000, -0.030790
  0.942000, -0.044160
  0.944000, -0.056430
  0.946000, -0.073150
  0.948000, -0.080800
  0.950000, -0.077830
  0.952000, -0.077780
  0.954000, -0.070870
  0.956000, -0.052760
  0.958000, -0.030810
  0.960000, -0.000910
  0.962000,  0.048530
  0.964000,  0.084570
  0.966000,  0.116600
  0.968000,  0.134970
  0.970000,  0.142110
  0.972000,  0.138090
  0.974000,  0.119940
  0.976000,  0.090450
  0.978000,  0.063330
  0.980000,  0.036990
  0.982000,  0.022690
  0.984000,  0.037210
  0.986000,  0.065160
  0.988000,  0.117440
  0.990000,  0.185160
  0.992000,  0.261410
  0.994000,  0.338110
  0.996000,  0.397130
  0.998000,  0.436930
  1.000000,  0.457380
