# z (nm)   (kJ/mol)
  0.078000,273.275830
  0.080000,269.916330
  0.082000,267.148020
  0.084000,264.192930
  0.086000,261.269500
  0.088000,258.335910
  0.090000,255.434630
  0.092000,252.488570
  0.094000,249.518120
  0.096000,246.495530
  0.098000,243.408480
  0.100000,240.243800
  0.102000,236.979340
  0.104000,233.604990
  0.106000,230.098050
  0.108000,226.443050
  0.110000,222.644840
  0.112000,218.704740
  0.114000,214.647440
  0.116000,210.497360
  0.118000,206.288550
  0.120000,202.047730
  0.122000,197.803830
  0.124000,193.574310
  0.126000,189.377860
  0.128000,185.229560
  0.130000,181.140010
  0.132000,177.124730
  0.134000,173.182830
  0.136000,169.313640
  0.138000,165.518390
  0.140000,161.790050
  0.142000,158.121960
  0.144000,154.513030
  0.146000,150.957270
  0.148000,147.447160
  0.150000,143.983470
  0.152000,140.560290
  0.154000,137.180680
  0.156000,133.847130
  0.158000,130.568830
  0.160000,127.349960
  0.162000,124.202490
  0.164000,121.120860
  0.166000,118.107850
  0.168000,115.154620
  0.170000,112.246310
  0.172000,109.386750
  0.174000,106.554100
  0.176000,103.757530
  0.178000,100.979200
  0.180000, 98.219940
  0.182000, 95.473960
  0.184000, 92.728720
  0.186000, 89.989230
  0.188000, 87.250990
  0.190000, 84.522510
  0.192000, 81.823910
  0.194000, 79.152860
  0.196000, 76.550370
  0.198000, 74.015390
  0.200000, 71.550610
  0.202000, 69.165300
  0.204000, 66.850880
  0.206000, 64.588220
  0.208000, 62.373260
  0.210000, 60.190810
  0.212000, 58.031700
  0.214000, 55.902910
  0.216000, 53.792410
  0.218000, 51.712600
  0.220000, 49.662700
  0.222000, 47.650740
  0.224000, 45.676550
  0.226000, 43.744130
  0.228000, 41.862510
  0.230000, 40.030830
  0.232000, 38.258440
  0.234000, 36.540210
  0.236000, 34.874260
  0.238000, 33.259000
  0.240000, 31.678740
  0.242000, 30.136180
  0.244000, 28.606520
  0.246000, 27.085860
  0.248000, 25.573130
  0.250000, 24.074950
  0.252000, 22.590460
  0.254000, 21.145880
  0.256000, 19.757100
  0.258000, 18.433330
  0.260000, 17.192050
  0.262000, 16.031260
  0.264000, 14.939570
  0.266000, 13.907780
  0.268000, 12.908780
  0.270000, 11.921940
  0.272000, 10.944790
  0.274000,  9.961990
  0.276000,  8.969730
  0.278000,  7.989870
  0.280000,  7.024390
  0.282000,  6.091540
  0.284000,  5.210400
  0.286000,  4.389300
  0.288000,  3.631420
  0.290000,  2.941430
  0.292000,  2.312400
  0.294000,  1.735820
  0.296000,  1.188880
  0.298000,  0.662800
  0.300000,  0.156500
  0.302000, -0.339120
  0.304000, -0.828890
  0.306000, -1.307810
  0.308000, -1.775570
  0.310000, -2.227250
  0.312000, -2.661860
  0.314000, -3.068850
  0.316000, -3.445430
  0.318000, -3.797870
  0.320000, -4.116370
  0.322000, -4.408280
  0.324000, -4.675300
  0.326000, -4.906960
  0.328000, -5.112490
  0.330000, -5.299460
  0.332000, -5.473530
  0.334000, -5.634280
  0.336000, -5.786540
  0.338000, -5.927230
  0.340000, -6.073120
  0.342000, -6.209310
  0.344000, -6.343380
  0.346000, -6.467130
  0.348000, -6.580890
  0.350000, -6.695600
  0.352000, -6.801680
  0.354000, -6.892670
  0.356000, -6.971270
  0.358000, -7.046250
  0.360000, -7.104430
  0.362000, -7.157340
  0.364000, -7.192220
  0.366000, -7.219610
  0.368000, -7.235830
  0.370000, -7.245490
  0.372000, -7.245500
  0.374000, -7.238500
  0.376000, -7.226490
  0.378000, -7.211350
  0.380000, -7.185520
  0.382000, -7.158190
  0.384000, -7.133190
  0.386000, -7.089010
  0.388000, -7.044540
  0.390000, -6.987680
  0.392000, -6.915980
  0.394000, -6.838460
  0.396000, -6.756910
  0.398000, -6.663530
  0.400000, -6.560060
  0.402000, -6.448180
  0.404000, -6.325930
  0.406000, -6.197920
  0.408000, -6.066190
  0.410000, -5.931080
  0.412000, -5.793400
  0.414000, -5.659190
  0.416000, -5.530180
  0.418000, -5.404380
  0.420000, -5.283200
  0.422000, -5.167830
  0.424000, -5.048700
  0.426000, -4.937580
  0.428000, -4.827050
  0.430000, -4.717650
  0.432000, -4.606000
  0.434000, -4.500160
  0.436000, -4.400090
  0.438000, -4.293400
  0.440000, -4.193570
  0.442000, -4.090330
  0.444000, -3.985460
  0.446000, -3.882860
  0.448000, -3.782700
  0.450000, -3.673450
  0.452000, -3.563280
  0.454000, -3.444000
  0.456000, -3.322140
  0.458000, -3.196840
  0.460000, -3.064590
  0.462000, -2.931410
  0.464000, -2.801060
  0.466000, -2.663660
  0.468000, -2.524570
  0.470000, -2.382220
  0.472000, -2.240110
  0.474000, -2.093960
  0.476000, -1.946640
  0.478000, -1.789750
  0.480000, -1.634110
  0.482000, -1.475320
  0.484000, -1.315000
  0.486000, -1.154190
  0.488000, -0.994870
  0.490000, -0.837970
  0.492000, -0.687880
  0.494000, -0.541210
  0.496000, -0.395130
  0.498000, -0.262290
  0.500000, -0.131700
  0.502000, -0.002480
  0.504000,  0.126320
  0.506000,  0.255850
  0.508000,  0.387070
  0.510000,  0.513850
  0.512000,  0.639270
  0.514000,  0.763140
  0.516000,  0.882470
  0.518000,  0.997710
  0.520000,  1.105380
  0.522000,  1.207680
  0.524000,  1.297070
  0.526000,  1.377780
  0.528000,  1.455300
  0.530000,  1.533940
  0.532000,  1.610770
  0.534000,  1.693290
  0.536000,  1.775380
  0.538000,  1.855050
  0.540000,  1.924860
  0.542000,  1.999910
  0.544000,  2.060550
  0.546000,  2.107780
  0.548000,  2.144340
  0.550000,  2.170820
  0.552000,  2.184690
  0.554000,  2.186450
  0.556000,  2.187690
  0.558000,  2.170830
  0.560000,  2.151380
  0.562000,  2.138570
  0.564000,  2.122340
  0.566000,  2.098590
  0.568000,  2.078060
  0.570000,  2.059800
  0.572000,  2.045550
  0.574000,  2.033650
  0.576000,  2.017820
  0.578000,  2.004960
  0.580000,  1.990210
  0.582000,  1.968990
  0.584000,  1.950920
  0.586000,  1.928930
  0.588000,  1.899860
  0.590000,  1.871920
  0.592000,  1.835300
  0.594000,  1.790140
  0.596000,  1.744270
  0.598000,  1.689090
  0.600000,  1.631080
  0.602000,  1.576550
  0.604000,  1.508830
  0.606000,  1.440130
  0.608000,  1.364230
  0.610000,  1.289810
  0.612000,  1.219020
  0.614000,  1.148920
  0.616000,  1.081110
  0.618000,  1.011530
  0.620000,  0.940980
  0.622000,  0.877140
  0.624000,  0.810710
  0.626000,  0.742960
  0.628000,  0.675510
  0.630000,  0.612150
  0.632000,  0.546480
  0.634000,  0.481720
  0.636000,  0.412880
  0.638000,  0.344560
  0.640000,  0.277620
  0.642000,  0.215590
  0.644000,  0.154810
  0.646000,  0.105210
  0.648000,  0.062240
  0.650000,  0.023270
  0.652000, -0.017810
  0.654000, -0.051440
  0.656000, -0.085210
  0.658000, -0.115320
  0.660000, -0.152860
  0.662000, -0.190460
  0.664000, -0.226700
  0.666000, -0.259830
  0.668000, -0.293610
  0.670000, -0.317880
  0.672000, -0.343980
  0.674000, -0.364170
  0.676000, -0.387830
  0.678000, -0.407570
  0.680000, -0.418150
  0.682000, -0.435360
  0.684000, -0.454880
  0.686000, -0.473870
  0.688000, -0.496830
  0.690000, -0.516710
  0.692000, -0.542350
  0.694000, -0.568330
  0.696000, -0.598400
  0.698000, -0.628080
  0.700000, -0.659930
  0.702000, -0.694710
  0.704000, -0.723990
  0.706000, -0.754050
  0.708000, -0.779810
  0.710000, -0.801800
  0.712000, -0.826320
  0.714000, -0.852950
  0.716000, -0.870350
  0.718000, -0.884160
  0.720000, -0.891600
  0.722000, -0.897470
  0.724000, -0.898210
  0.726000, -0.893220
  0.728000, -0.886560
  0.730000, -0.880320
  0.732000, -0.868060
  0.734000, -0.864300
  0.736000, -0.859630
  0.738000, -0.858730
  0.740000, -0.863170
  0.742000, -0.861610
  0.744000, -0.867500
  0.746000, -0.875250
  0.748000, -0.879440
  0.750000, -0.881570
  0.752000, -0.880380
  0.754000, -0.876930
  0.756000, -0.864580
  0.758000, -0.851030
  0.760000, -0.824230
  0.762000, -0.790860
  0.764000, -0.760780
  0.766000, -0.725550
  0.768000, -0.684060
  0.770000, -0.645690
  0.772000, -0.604790
  0.774000, -0.567060
  0.776000, -0.534140
  0.778000, -0.504220
  0.780000, -0.478370
  0.782000, -0.453250
  0.784000, -0.437940
  0.786000, -0.430860
  0.788000, -0.424350
  0.790000, -0.413710
  0.792000, -0.407490
  0.794000, -0.392790
  0.796000, -0.377690
  0.798000, -0.356650
  0.800000, -0.336670
  0.802000, -0.310440
  0.804000, -0.277010
  0.806000, -0.241820
  0.808000, -0.210850
  0.810000, -0.177570
  0.812000, -0.148350
  0.814000, -0.124450
  0.816000, -0.100960
  0.818000, -0.080910
  0.820000, -0.071220
  0.822000, -0.069230
  0.824000, -0.065400
  0.826000, -0.073260
  0.828000, -0.081660
  0.830000, -0.088060
  0.832000, -0.090050
  0.834000, -0.087700
  0.836000, -0.074970
  0.838000, -0.048860
  0.840000, -0.015500
  0.842000,  0.031080
  0.844000,  0.080250
  0.846000,  0.131190
  0.848000,  0.169130
  0.850000,  0.201590
  0.852000,  0.225870
  0.854000,  0.243570
  0.856000,  0.248100
  0.858000,  0.250290
  0.860000,  0.242300
  0.862000,  0.228640
  0.864000,  0.210410
  0.866000,  0.192680
  0.868000,  0.170630
  0.870000,  0.155600
  0.872000,  0.141360
  0.874000,  0.135820
  0.876000,  0.133960
  0.878000,  0.142580
  0.880000,  0.152350
  0.882000,  0.166850
  0.884000,  0.185690
  0.886000,  0.207680
  0.888000,  0.226040
  0.890000,  0.244700
  0.892000,  0.255630
  0.894000,  0.254970
  0.896000,  0.253720
  0.898000,  0.251560
  0.900000,  0.239430
  0.902000,  0.229340
  0.904000,  0.211130
  0.906000,  0.195730
  0.908000,  0.182760
  0.910000,  0.165610
  0.912000,  0.145890
  0.914000,  0.127510
  0.916000,  0.111440
  0.918000,  0.095000
  0.920000,  0.083640
  0.922000,  0.076540
  0.924000,  0.069050
  0.926000,  0.062220
  0.928000,  0.062160
  0.930000,  0.061450
  0.932000,  0.064900
  0.934000,  0.075010
  0.936000,  0.075490
  0.938000,  0.082510
  0.940000,  0.081020
  0.942000,  0.076780
  0.944000,  0.076040
  0.946000,  0.072100
  0.948000,  0.071600
  0.950000,  0.069920
  0.952000,  0.068660
  0.954000,  0.063080
  0.956000,  0.050690
  0.958000,  0.037310
  0.960000,  0.016300
  0.962000, -0.012320
  0.964000, -0.039790
  0.966000, -0.068110
  0.968000, -0.095280
  0.970000, -0.125840
  0.972000, -0.148640
  0.974000, -0.165500
  0.976000, -0.183410
  0.978000, -0.198010
  0.980000, -0.205230
  0.982000, -0.202830
  0.984000, -0.197280
  0.986000, -0.189010
  0.988000, -0.180120
  0.990000, -0.165660
  0.992000, -0.151850
  0.994000, -0.142890
  0.996000, -0.134150
  0.998000, -0.128970
  1.000000, -0.125970
