# z (nm)   (kJ/mol)
  0.084000,267.091930
  0.086000,262.013200
  0.088000,258.739370
  0.090000,255.779780
  0.092000,252.647640
  0.094000,249.773920
  0.096000,246.835510
  0.098000,243.867810
  0.100000,240.841030
  0.102000,237.733900
  0.104000,234.542330
  0.106000,231.241360
  0.108000,227.829250
  0.110000,224.282960
  0.112000,220.606500
  0.114000,216.782800
  0.116000,212.822170
  0.118000,208.722230
  0.120000,204.495920
  0.122000,200.154630
  0.124000,195.715270
  0.126000,191.205840
  0.128000,186.654760
  0.130000,182.088670
  0.132000,177.536240
  0.134000,173.024360
  0.136000,168.574810
  0.138000,164.209310
  0.140000,159.932590
  0.142000,155.742630
  0.144000,151.623760
  0.146000,147.549600
  0.148000,143.485590
  0.150000,139.416770
  0.152000,135.346890
  0.154000,131.331240
  0.156000,127.419810
  0.158000,123.685530
  0.160000,120.149910
  0.162000,116.792070
  0.164000,113.562430
  0.166000,110.379430
  0.168000,107.196290
  0.170000,103.988530
  0.172000,100.761700
  0.174000, 97.539480
  0.176000, 94.344400
  0.178000, 91.181650
  0.180000, 88.043380
  0.182000, 84.912770
  0.184000, 81.778460
  0.186000, 78.653040
  0.188000, 75.551620
  0.190000, 72.495130
  0.192000, 69.491040
  0.194000, 66.569070
  0.196000, 63.726900
  0.198000, 60.964080
  0.200000, 58.272960
  0.202000, 55.634940
  0.204000, 53.029760
  0.206000, 50.452660
  0.208000, 47.902400
  0.210000, 45.395250
  0.212000, 42.945320
  0.214000, 40.581800
  0.216000, 38.293260
  0.218000, 36.081230
  0.220000, 33.932140
  0.222000, 31.833220
  0.224000, 29.766870
  0.226000, 27.729850
  0.228000, 25.705330
  0.230000, 23.706830
  0.232000, 21.742040
  0.234000, 19.810510
  0.236000, 17.941430
  0.238000, 16.143710
  0.240000, 14.436810
  0.242000, 12.805390
  0.244000, 11.242810
  0.246000,  9.742580
  0.248000,  8.273540
  0.250000,  6.831060
  0.252000,  5.402920
  0.254000,  3.993650
  0.256000,  2.614420
  0.258000,  1.275070
  0.260000, -0.018450
  0.262000, -1.257380
  0.264000, -2.436650
  0.266000, -3.569830
  0.268000, -4.651720
  0.270000, -5.679670
  0.272000, -6.664810
  0.274000, -7.602550
  0.276000, -8.492720
  0.278000, -9.335710
  0.280000,-10.145700
  0.282000,-10.913640
  0.284000,-11.656090
  0.286000,-12.362360
  0.288000,-13.035190
  0.290000,-13.667680
  0.292000,-14.261420
  0.294000,-14.811490
  0.296000,-15.316420
  0.298000,-15.778270
  0.300000,-16.200510
  0.302000,-16.584310
  0.304000,-16.938160
  0.306000,-17.256220
  0.308000,-17.545230
  0.310000,-17.809520
  0.312000,-18.041950
  0.314000,-18.243990
  0.316000,-18.414050
  0.318000,-18.560580
  0.320000,-18.672340
  0.322000,-18.752470
  0.324000,-18.804160
  0.326000,-18.827760
  0.328000,-18.830890
  0.330000,-18.810500
  0.332000,-18.773390
  0.334000,-18.715750
  0.336000,-18.631890
  0.338000,-18.523980
  0.340000,-18.392520
  0.342000,-18.239100
  0.344000,-18.065160
  0.346000,-17.875210
  0.348000,-17.667090
  0.350000,-17.444990
  0.352000,-17.224270
  0.354000,-16.984890
  0.356000,-16.737990
  0.358000,-16.481650
  0.360000,-16.218450
  0.362000,-15.947650
  0.364000,-15.680950
  0.366000,-15.418830
  0.368000,-15.155420
  0.370000,-14.883510
  0.372000,-14.613070
  0.374000,-14.333040
  0.376000,-14.058670
  0.378000,-13.781010
  0.380000,-13.499590
  0.382000,-13.226620
  0.384000,-12.955180
  0.386000,-12.690670
  0.388000,-12.440510
  0.390000,-12.201360
  0.392000,-11.969540
  0.394000,-11.747870
  0.396000,-11.550140
  0.398000,-11.349500
  0.400000,-11.153510
  0.402000,-10.952350
  0.404000,-10.760550
  0.406000,-10.565990
  0.408000,-10.380870
  0.410000,-10.207980
  0.412000,-10.062500
  0.414000, -9.931270
  0.416000, -9.818660
  0.418000, -9.712490
  0.420000, -9.615310
  0.422000, -9.509580
  0.424000, -9.401150
  0.426000, -9.290330
  0.428000, -9.184230
  0.430000, -9.082340
  0.432000, -8.987360
  0.434000, -8.894430
  0.436000, -8.805690
  0.438000, -8.720860
  0.440000, -8.643610
  0.442000, -8.558950
  0.444000, -8.478740
  0.446000, -8.401700
  0.448000, -8.324630
  0.450000, -8.244350
  0.452000, -8.182210
  0.454000, -8.119990
  0.456000, -8.057090
  0.458000, -8.005300
  0.460000, -7.945670
  0.462000, -7.887870
  0.464000, -7.808850
  0.466000, -7.723590
  0.468000, -7.628600
  0.470000, -7.526360
  0.472000, -7.423150
  0.474000, -7.326880
  0.476000, -7.226660
  0.478000, -7.143470
  0.480000, -7.062270
  0.482000, -6.988060
  0.484000, -6.906530
  0.486000, -6.835860
  0.488000, -6.759840
  0.490000, -6.662190
  0.492000, -6.546420
  0.494000, -6.407780
  0.496000, -6.264250
  0.498000, -6.118420
  0.500000, -5.975310
  0.502000, -5.830980
  0.504000, -5.701250
  0.506000, -5.586130
  0.508000, -5.473760
  0.510000, -5.368840
  0.512000, -5.264220
  0.514000, -5.154610
  0.516000, -5.040790
  0.518000, -4.923940
  0.520000, -4.803490
  0.522000, -4.685420
  0.524000, -4.575990
  0.526000, -4.467420
  0.528000, -4.360230
  0.530000, -4.260180
  0.532000, -4.170230
  0.534000, -4.084150
  0.536000, -4.001340
  0.538000, -3.911050
  0.540000, -3.821260
  0.542000, -3.723250
  0.544000, -3.626360
  0.546000, -3.528370
  0.548000, -3.426680
  0.550000, -3.329920
  0.552000, -3.239030
  0.554000, -3.158040
  0.556000, -3.080560
  0.558000, -3.005520
  0.560000, -2.937570
  0.562000, -2.871610
  0.564000, -2.804160
  0.566000, -2.740590
  0.568000, -2.678880
  0.570000, -2.622040
  0.572000, -2.567890
  0.574000, -2.524190
  0.576000, -2.474580
  0.578000, -2.430220
  0.580000, -2.397360
  0.582000, -2.357760
  0.584000, -2.330640
  0.586000, -2.302170
  0.588000, -2.278830
  0.590000, -2.256520
  0.592000, -2.237690
  0.594000, -2.218870
  0.596000, -2.199050
  0.598000, -2.171850
  0.600000, -2.138550
  0.602000, -2.095660
  0.604000, -2.042870
  0.606000, -1.972130
  0.608000, -1.893280
  0.610000, -1.806910
  0.612000, -1.726680
  0.614000, -1.644680
  0.616000, -1.566640
  0.618000, -1.498890
  0.620000, -1.430990
  0.622000, -1.362390
  0.624000, -1.297870
  0.626000, -1.229190
  0.628000, -1.159460
  0.630000, -1.087970
  0.632000, -1.008640
  0.634000, -0.929310
  0.636000, -0.850120
  0.638000, -0.771450
  0.640000, -0.678070
  0.642000, -0.585490
  0.644000, -0.488980
  0.646000, -0.396140
  0.648000, -0.304230
  0.650000, -0.213180
  0.652000, -0.127690
  0.654000, -0.051640
  0.656000,  0.023900
  0.658000,  0.086530
  0.660000,  0.152610
  0.662000,  0.220930
  0.664000,  0.288510
  0.666000,  0.355050
  0.668000,  0.410480
  0.670000,  0.459720
  0.672000,  0.492500
  0.674000,  0.510070
  0.676000,  0.521080
  0.678000,  0.527240
  0.680000,  0.533440
  0.682000,  0.547740
  0.684000,  0.559920
  0.686000,  0.585210
  0.688000,  0.609890
  0.690000,  0.632630
  0.692000,  0.654440
  0.694000,  0.661020
  0.696000,  0.669780
  0.698000,  0.660800
  0.700000,  0.644880
  0.702000,  0.625030
  0.704000,  0.605750
  0.706000,  0.587180
  0.708000,  0.566120
  0.710000,  0.534860
  0.712000,  0.514550
  0.714000,  0.488010
  0.716000,  0.467910
  0.718000,  0.443510
  0.720000,  0.417310
  0.722000,  0.376380
  0.724000,  0.346710
  0.726000,  0.316210
  0.728000,  0.277130
  0.730000,  0.236340
  0.732000,  0.195370
  0.734000,  0.152940
  0.736000,  0.101300
  0.738000,  0.051180
  0.740000, -0.002600
  0.742000, -0.060850
  0.744000, -0.117580
  0.746000, -0.165420
  0.748000, -0.208780
  0.750000, -0.236860
  0.752000, -0.257540
  0.754000, -0.271960
  0.756000, -0.286450
  0.758000, -0.295360
  0.760000, -0.300100
  0.762000, -0.308590
  0.764000, -0.315940
  0.766000, -0.319000
  0.768000, -0.322930
  0.770000, -0.320360
  0.772000, -0.317570
  0.774000, -0.322000
  0.776000, -0.331320
  0.778000, -0.336120
  0.780000, -0.359310
  0.782000, -0.392340
  0.784000, -0.417490
  0.786000, -0.437760
  0.788000, -0.457490
  0.790000, -0.469230
  0.792000, -0.473790
  0.794000, -0.474610
  0.796000, -0.472880
  0.798000, -0.473640
  0.800000, -0.471670
  0.802000, -0.475870
  0.804000, -0.479770
  0.806000, -0.488110
  0.808000, -0.493930
  0.810000, -0.499410
  0.812000, -0.499550
  0.814000, -0.496030
  0.816000, -0.481020
  0.818000, -0.465730
  0.820000, -0.440820
  0.822000, -0.414250
  0.824000, -0.383090
  0.826000, -0.352420
  0.828000, -0.320310
  0.830000, -0.285990
  0.832000, -0.253330
  0.834000, -0.224950
  0.836000, -0.205050
  0.838000, -0.188970
  0.840000, -0.183850
  0.842000, -0.186270
  0.844000, -0.202350
  0.846000, -0.227340
  0.848000, -0.251680
  0.850000, -0.269600
  0.852000, -0.272710
  0.854000, -0.262040
  0.856000, -0.245790
  0.858000, -0.213390
  0.860000, -0.174910
  0.862000, -0.130500
  0.864000, -0.088140
  0.866000, -0.064490
  0.868000, -0.055950
  0.870000, -0.060920
  0.872000, -0.071980
  0.874000, -0.098940
  0.876000, -0.127130
  0.878000, -0.153940
  0.880000, -0.168780
  0.882000, -0.184400
  0.884000, -0.201310
  0.886000, -0.211170
  0.888000, -0.215280
  0.890000, -0.215250
  0.892000, -0.211240
  0.894000, -0.205560
  0.896000, -0.191420
  0.898000, -0.180190
  0.900000, -0.158320
  0.902000, -0.147870
  0.904000, -0.135250
  0.906000, -0.126220
  0.908000, -0.119510
  0.910000, -0.116850
  0.912000, -0.112340
  0.914000, -0.109440
  0.916000, -0.100780
  0.918000, -0.091740
  0.920000, -0.077370
  0.922000, -0.061740
  0.924000, -0.042240
  0.926000, -0.026000
  0.928000, -0.014250
  0.930000, -0.010880
  0.932000, -0.006710
  0.934000, -0.000740
  0.936000, -0.000570
  0.938000, -0.001480
  0.940000,  0.007390
  0.942000,  0.016580
  0.944000,  0.031990
  0.946000,  0.043710
  0.948000,  0.050200
  0.950000,  0.060080
  0.952000,  0.069870
  0.954000,  0.082550
  0.956000,  0.090520
  0.958000,  0.097730
  0.960000,  0.102500
  0.962000,  0.113490
  0.964000,  0.120540
  0.966000,  0.128120
  0.968000,  0.129970
  0.970000,  0.126230
  0.972000,  0.123880
  0.974000,  0.104610
  0.976000,  0.079950
  0.978000,  0.057090
  0.980000,  0.031190
  0.982000,  0.001630
  0.984000, -0.022050
  0.986000, -0.032690
  0.988000, -0.038470
  0.990000, -0.045850
  0.992000, -0.044480
  0.994000, -0.043160
  0.996000, -0.043290
  0.998000, -0.046130
  1.000000, -0.051730
