# z (nm)   (kJ/mol)
  0.0520  264.23610
  0.0540  261.96052
  0.0560  259.29839
  0.0580  256.75459
  0.0600  254.05543
  0.0620  251.72960
  0.0640  249.39447
  0.0660  247.01938
  0.0680  244.59105
  0.0700  242.15957
  0.0720  239.66128
  0.0740  237.07351
  0.0760  234.38764
  0.0780  231.57924
  0.0800  228.63926
  0.0820  225.56098
  0.0840  222.33484
  0.0860  218.96775
  0.0880  215.46440
  0.0900  211.83135
  0.0920  208.09013
  0.0940  204.24521
  0.0960  200.31685
  0.0980  196.29853
  0.1000  192.19345
  0.1020  188.00582
  0.1040  183.74003
  0.1060  179.40645
  0.1080  175.03867
  0.1100  170.67419
  0.1120  166.36814
  0.1140  162.17211
  0.1160  158.13070
  0.1180  154.26220
  0.1200  150.56661
  0.1220  147.02951
  0.1240  143.61741
  0.1260  140.30007
  0.1280  137.04585
  0.1300  133.82098
  0.1320  130.61812
  0.1340  127.42054
  0.1360  124.22829
  0.1380  121.05087
  0.1400  117.89740
  0.1420  114.78337
  0.1440  111.70575
  0.1460  108.68180
  0.1480  105.70579
  0.1500  102.77452
  0.1520   99.87549
  0.1540   96.99428
  0.1560   94.12417
  0.1580   91.27066
  0.1600   88.44062
  0.1620   85.65602
  0.1640   82.93364
  0.1660   80.29109
  0.1680   77.72632
  0.1700   75.22459
  0.1720   72.76628
  0.1740   70.32851
  0.1760   67.88659
  0.1780   65.43414
  0.1800   62.97882
  0.1820   60.53665
  0.1840   58.11897
  0.1860   55.76285
  0.1880   53.49495
  0.1900   51.32144
  0.1920   49.24528
  0.1940   47.24408
  0.1960   45.29548
  0.1980   43.36617
  0.2000   41.42380
  0.2020   39.48723
  0.2040   37.56881
  0.2060   35.69589
  0.2080   33.87414
  0.2100   32.13001
  0.2120   30.45093
  0.2140   28.81388
  0.2160   27.20926
  0.2180   25.61232
  0.2200   24.02765
  0.2220   22.44343
  0.2240   20.88020
  0.2260   19.35468
  0.2280   17.89151
  0.2300   16.49097
  0.2320   15.17168
  0.2340   13.92492
  0.2360   12.72196
  0.2380   11.55530
  0.2400   10.40367
  0.2420    9.25715
  0.2440    8.10323
  0.2460    6.96128
  0.2480    5.84635
  0.2500    4.76883
  0.2520    3.75663
  0.2540    2.81560
  0.2560    1.93789
  0.2580    1.11720
  0.2600    0.34385
  0.2620   -0.38359
  0.2640   -1.07584
  0.2660   -1.74152
  0.2680   -2.38077
  0.2700   -2.98818
  0.2720   -3.58653
  0.2740   -4.16046
  0.2760   -4.71235
  0.2780   -5.24817
  0.2800   -5.75497
  0.2820   -6.23303
  0.2840   -6.68657
  0.2860   -7.09396
  0.2880   -7.46951
  0.2900   -7.81670
  0.2920   -8.12029
  0.2940   -8.39615
  0.2960   -8.64549
  0.2980   -8.87303
  0.3000   -9.08885
  0.3020   -9.29208
  0.3040   -9.48797
  0.3060   -9.67552
  0.3080   -9.85015
  0.3100  -10.00309
  0.3120  -10.13197
  0.3140  -10.23912
  0.3160  -10.31935
  0.3180  -10.37182
  0.3200  -10.41307
  0.3220  -10.43179
  0.3240  -10.43971
  0.3260  -10.44033
  0.3280  -10.42980
  0.3300  -10.40857
  0.3320  -10.36885
  0.3340  -10.31348
  0.3360  -10.24070
  0.3380  -10.16343
  0.3400  -10.07613
  0.3420   -9.99480
  0.3440   -9.92508
  0.3460   -9.86488
  0.3480   -9.80778
  0.3500   -9.75141
  0.3520   -9.69031
  0.3540   -9.60797
  0.3560   -9.50868
  0.3580   -9.38961
  0.3600   -9.24722
  0.3620   -9.08761
  0.3640   -8.90709
  0.3660   -8.71654
  0.3680   -8.50493
  0.3700   -8.29542
  0.3720   -8.07830
  0.3740   -7.85388
  0.3760   -7.62566
  0.3780   -7.38323
  0.3800   -7.13798
  0.3820   -6.87883
  0.3840   -6.60522
  0.3860   -6.31901
  0.3880   -6.01563
  0.3900   -5.71127
  0.3920   -5.40693
  0.3940   -5.09794
  0.3960   -4.78758
  0.3980   -4.48237
  0.4000   -4.18911
  0.4020   -3.90831
  0.4040   -3.62957
  0.4060   -3.36644
  0.4080   -3.10933
  0.4100   -2.85934
  0.4120   -2.61504
  0.4140   -2.38425
  0.4160   -2.15638
  0.4180   -1.92862
  0.4200   -1.70096
  0.4220   -1.47904
  0.4240   -1.25249
  0.4260   -1.03491
  0.4280   -0.81640
  0.4300   -0.60193
  0.4320   -0.38805
  0.4340   -0.17282
  0.4360    0.03714
  0.4380    0.24486
  0.4400    0.44978
  0.4420    0.64233
  0.4440    0.82738
  0.4460    0.99499
  0.4480    1.14992
  0.4500    1.29263
  0.4520    1.41443
  0.4540    1.52075
  0.4560    1.62038
  0.4580    1.71135
  0.4600    1.79217
  0.4620    1.86749
  0.4640    1.93740
  0.4660    1.98882
  0.4680    2.03401
  0.4700    2.06402
  0.4720    2.07605
  0.4740    2.07399
  0.4760    2.05067
  0.4780    2.00823
  0.4800    1.94726
  0.4820    1.87396
  0.4840    1.79720
  0.4860    1.70943
  0.4880    1.61606
  0.4900    1.52104
  0.4920    1.42746
  0.4940    1.34322
  0.4960    1.25822
  0.4980    1.17981
  0.5000    1.10579
  0.5020    1.02899
  0.5040    0.95301
  0.5060    0.88388
  0.5080    0.80147
  0.5100    0.72476
  0.5120    0.64317
  0.5140    0.55102
  0.5160    0.46241
  0.5180    0.36845
  0.5200    0.27311
  0.5220    0.18055
  0.5240    0.09200
  0.5260    0.00928
  0.5280   -0.06003
  0.5300   -0.13396
  0.5320   -0.18867
  0.5340   -0.23838
  0.5360   -0.28110
  0.5380   -0.32339
  0.5400   -0.35670
  0.5420   -0.38857
  0.5440   -0.41784
  0.5460   -0.45807
  0.5480   -0.49859
  0.5500   -0.54575
  0.5520   -0.59535
  0.5540   -0.64965
  0.5560   -0.70543
  0.5580   -0.76227
  0.5600   -0.81044
  0.5620   -0.86071
  0.5640   -0.89126
  0.5660   -0.91807
  0.5680   -0.92898
  0.5700   -0.93393
  0.5720   -0.93167
  0.5740   -0.92422
  0.5760   -0.91220
  0.5780   -0.90792
  0.5800   -0.90284
  0.5820   -0.89577
  0.5840   -0.89897
  0.5860   -0.90308
  0.5880   -0.90606
  0.5900   -0.91259
  0.5920   -0.91102
  0.5940   -0.90269
  0.5960   -0.88348
  0.5980   -0.86076
  0.6000   -0.82879
  0.6020   -0.79558
  0.6040   -0.75723
  0.6060   -0.72355
  0.6080   -0.70267
  0.6100   -0.67840
  0.6120   -0.66274
  0.6140   -0.65503
  0.6160   -0.64728
  0.6180   -0.63814
  0.6200   -0.62683
  0.6220   -0.61113
  0.6240   -0.59278
  0.6260   -0.57254
  0.6280   -0.53468
  0.6300   -0.49516
  0.6320   -0.45092
  0.6340   -0.39609
  0.6360   -0.34467
  0.6380   -0.28664
  0.6400   -0.22834
  0.6420   -0.17438
  0.6440   -0.12281
  0.6460   -0.07476
  0.6480   -0.02523
  0.6500    0.01561
  0.6520    0.05403
  0.6540    0.08580
  0.6560    0.11359
  0.6580    0.13464
  0.6600    0.15298
  0.6620    0.16959
  0.6640    0.18610
  0.6660    0.20928
  0.6680    0.22329
  0.6700    0.23568
  0.6720    0.25581
  0.6740    0.27834
  0.6760    0.30026
  0.6780    0.32308
  0.6800    0.34903
  0.6820    0.37638
  0.6840    0.40497
  0.6860    0.42853
  0.6880    0.44311
  0.6900    0.46094
  0.6920    0.47486
  0.6940    0.48784
  0.6960    0.49975
  0.6980    0.50930
  0.7000    0.51631
  0.7020    0.52601
  0.7040    0.53386
  0.7060    0.54544
  0.7080    0.55928
  0.7100    0.57387
  0.7120    0.58506
  0.7140    0.59667
  0.7160    0.61372
  0.7180    0.62375
  0.7200    0.62867
  0.7220    0.62765
  0.7240    0.62765
  0.7260    0.61723
  0.7280    0.60861
  0.7300    0.59806
  0.7320    0.58965
  0.7340    0.57555
  0.7360    0.56663
  0.7380    0.54967
  0.7400    0.53123
  0.7420    0.51249
  0.7440    0.49753
  0.7460    0.47882
  0.7480    0.46288
  0.7500    0.44852
  0.7520    0.43677
  0.7540    0.42639
  0.7560    0.42300
  0.7580    0.41564
  0.7600    0.40570
  0.7620    0.39421
  0.7640    0.38603
  0.7660    0.37366
  0.7680    0.36471
  0.7700    0.34434
  0.7720    0.32428
  0.7740    0.30017
  0.7760    0.27752
  0.7780    0.25087
  0.7800    0.22680
  0.7820    0.20126
  0.7840    0.18208
  0.7860    0.16316
  0.7880    0.14609
  0.7900    0.13292
  0.7920    0.12967
  0.7940    0.12432
  0.7960    0.11697
  0.7980    0.11975
  0.8000    0.12270
  0.8020    0.12428
  0.8040    0.13105
  0.8060    0.13245
  0.8080    0.13301
  0.8100    0.13580
  0.8120    0.13642
  0.8140    0.14099
  0.8160    0.13805
  0.8180    0.14603
  0.8200    0.13908
  0.8220    0.13546
  0.8240    0.13368
  0.8260    0.13654
  0.8280    0.13103
  0.8300    0.11820
  0.8320    0.10949
  0.8340    0.09806
  0.8360    0.08573
  0.8380    0.07343
  0.8400    0.05939
  0.8420    0.04958
  0.8440    0.03960
  0.8460    0.02876
  0.8480    0.02318
  0.8500    0.02156
  0.8520    0.02157
  0.8540    0.02482
  0.8560    0.03288
  0.8580    0.03581
  0.8600    0.04159
  0.8620    0.04993
  0.8640    0.05359
  0.8660    0.06096
  0.8680    0.06934
  0.8700    0.08193
  0.8720    0.09168
  0.8740    0.10371
  0.8760    0.12028
  0.8780    0.13797
  0.8800    0.15550
  0.8820    0.17375
  0.8840    0.18609
  0.8860    0.20135
  0.8880    0.21025
  0.8900    0.21469
  0.8920    0.21323
  0.8940    0.21045
  0.8960    0.20788
  0.8980    0.19649
  0.9000    0.19009
  0.9020    0.17716
  0.9040    0.16993
  0.9060    0.16014
  0.9080    0.15468
  0.9100    0.15243
  0.9120    0.15886
  0.9140    0.16716
  0.9160    0.17426
  0.9180    0.18507
  0.9200    0.18770
  0.9220    0.18951
  0.9240    0.19259
  0.9260    0.19539
  0.9280    0.19380
  0.9300    0.18680
  0.9320    0.17816
  0.9340    0.17257
  0.9360    0.16609
  0.9380    0.15516
  0.9400    0.14373
  0.9420    0.13225
  0.9440    0.11958
  0.9460    0.10445
  0.9480    0.08453
  0.9500    0.06180
  0.9520    0.03767
  0.9540    0.00534
  0.9560   -0.02474
  0.9580   -0.05544
  0.9600   -0.08198
  0.9620   -0.10797
  0.9640   -0.13409
  0.9660   -0.15029
  0.9680   -0.16356
  0.9700   -0.17290
  0.9720   -0.18064
  0.9740   -0.18225
  0.9760   -0.18674
  0.9780   -0.18878
  0.9800   -0.18572
  0.9820   -0.18779
  0.9840   -0.18777
  0.9860   -0.19147
  0.9880   -0.20085
  0.9900   -0.20794
  0.9920   -0.21865
  0.9940   -0.23060
  0.9960   -0.24194
  0.9980   -0.25562
  1.0000   -0.26906
