# z (nm)   (kJ/mol)
  0.137000, -8.454000
  0.139000, -9.261000
  0.141000,-10.057000
  0.143000,-10.873000
  0.145000,-11.693000
  0.147000,-12.515000
  0.149000,-13.337000
  0.151000,-14.155000
  0.153000,-14.961000
  0.155000,-15.755000
  0.157000,-16.526000
  0.159000,-17.285000
  0.161000,-18.035000
  0.163000,-18.773000
  0.165000,-19.493000
  0.167000,-20.193000
  0.169000,-20.871000
  0.171000,-21.523000
  0.173000,-22.150000
  0.175000,-22.749000
  0.177000,-23.321000
  0.179000,-23.869000
  0.181000,-24.391000
  0.183000,-24.883000
  0.185000,-25.344000
  0.187000,-25.776000
  0.189000,-26.179000
  0.191000,-26.551000
  0.193000,-26.889000
  0.195000,-27.196000
  0.197000,-27.473000
  0.199000,-27.719000
  0.201000,-27.935000
  0.203000,-28.118000
  0.205000,-28.272000
  0.207000,-28.395000
  0.209000,-28.487000
  0.211000,-28.551000
  0.213000,-28.585000
  0.215000,-28.591000
  0.217000,-28.570000
  0.219000,-28.521000
  0.221000,-28.449000
  0.223000,-28.353000
  0.225000,-28.231000
  0.227000,-28.088000
  0.229000,-27.927000
  0.231000,-27.746000
  0.233000,-27.547000
  0.235000,-27.332000
  0.237000,-27.099000
  0.239000,-26.852000
  0.241000,-26.591000
  0.243000,-26.319000
  0.245000,-26.038000
  0.247000,-25.747000
  0.249000,-25.450000
  0.251000,-25.146000
  0.253000,-24.838000
  0.255000,-24.526000
  0.257000,-24.210000
  0.259000,-23.890000
  0.261000,-23.569000
  0.263000,-23.249000
  0.265000,-22.928000
  0.267000,-22.608000
  0.269000,-22.291000
  0.271000,-21.975000
  0.273000,-21.663000
  0.275000,-21.354000
  0.277000,-21.049000
  0.279000,-20.749000
  0.281000,-20.452000
  0.283000,-20.160000
  0.285000,-19.872000
  0.287000,-19.590000
  0.289000,-19.312000
  0.291000,-19.040000
  0.293000,-18.773000
  0.295000,-18.511000
  0.297000,-18.253000
  0.299000,-18.000000
  0.301000,-17.753000
  0.303000,-17.511000
  0.305000,-17.274000
  0.307000,-17.042000
  0.309000,-16.814000
  0.311000,-16.590000
  0.313000,-16.372000
  0.315000,-16.158000
  0.317000,-15.948000
  0.319000,-15.742000
  0.321000,-15.540000
  0.323000,-15.343000
  0.325000,-15.150000
  0.327000,-14.961000
  0.329000,-14.776000
  0.331000,-14.594000
  0.333000,-14.417000
  0.335000,-14.243000
  0.337000,-14.072000
  0.339000,-13.905000
  0.341000,-13.741000
  0.343000,-13.580000
  0.345000,-13.423000
  0.347000,-13.269000
  0.349000,-13.119000
  0.351000,-12.971000
  0.353000,-12.827000
  0.355000,-12.685000
  0.357000,-12.547000
  0.359000,-12.412000
  0.361000,-12.279000
  0.363000,-12.150000
  0.365000,-12.023000
  0.367000,-11.899000
  0.369000,-11.778000
  0.371000,-11.659000
  0.373000,-11.543000
  0.375000,-11.429000
  0.377000,-11.317000
  0.379000,-11.207000
  0.381000,-11.100000
  0.383000,-10.994000
  0.385000,-10.890000
  0.387000,-10.788000
  0.389000,-10.687000
  0.391000,-10.588000
  0.393000,-10.489000
  0.395000,-10.392000
  0.397000,-10.297000
  0.399000,-10.202000
  0.401000,-10.107000
  0.403000,-10.013000
  0.405000, -9.919000
  0.407000, -9.826000
  0.409000, -9.733000
  0.411000, -9.640000
  0.413000, -9.547000
  0.415000, -9.454000
  0.417000, -9.360000
  0.419000, -9.267000
  0.421000, -9.173000
  0.423000, -9.078000
  0.425000, -8.983000
  0.427000, -8.888000
  0.429000, -8.791000
  0.431000, -8.695000
  0.433000, -8.597000
  0.435000, -8.499000
  0.437000, -8.401000
  0.439000, -8.301000
  0.441000, -8.201000
  0.443000, -8.100000
  0.445000, -7.999000
  0.447000, -7.897000
  0.449000, -7.793000
  0.451000, -7.690000
  0.453000, -7.586000
  0.455000, -7.481000
  0.457000, -7.376000
  0.459000, -7.271000
  0.461000, -7.165000
  0.463000, -7.059000
  0.465000, -6.953000
  0.467000, -6.846000
  0.469000, -6.740000
  0.471000, -6.633000
  0.473000, -6.527000
  0.475000, -6.421000
  0.477000, -6.315000
  0.479000, -6.210000
  0.481000, -6.106000
  0.483000, -6.001000
  0.485000, -5.897000
  0.487000, -5.793000
  0.489000, -5.690000
  0.491000, -5.588000
  0.493000, -5.487000
  0.495000, -5.386000
  0.497000, -5.286000
  0.499000, -5.189000
  0.501000, -5.092000
  0.503000, -4.998000
  0.505000, -4.905000
  0.507000, -4.813000
  0.509000, -4.723000
  0.511000, -4.634000
  0.513000, -4.547000
  0.515000, -4.462000
  0.517000, -4.379000
  0.519000, -4.298000
  0.521000, -4.218000
  0.523000, -4.140000
  0.525000, -4.063000
  0.527000, -3.989000
  0.529000, -3.917000
  0.531000, -3.846000
  0.533000, -3.778000
  0.535000, -3.712000
  0.537000, -3.647000
  0.539000, -3.585000
  0.541000, -3.525000
  0.543000, -3.466000
  0.545000, -3.410000
  0.547000, -3.355000
  0.549000, -3.302000
  0.551000, -3.251000
  0.553000, -3.201000
  0.555000, -3.153000
  0.557000, -3.107000
  0.559000, -3.062000
  0.561000, -3.020000
  0.563000, -2.978000
  0.565000, -2.938000
  0.567000, -2.899000
  0.569000, -2.862000
  0.571000, -2.826000
  0.573000, -2.791000
  0.575000, -2.757000
  0.577000, -2.724000
  0.579000, -2.693000
  0.581000, -2.663000
  0.583000, -2.633000
  0.585000, -2.605000
  0.587000, -2.577000
  0.589000, -2.550000
  0.591000, -2.523000
  0.593000, -2.497000
  0.595000, -2.472000
  0.597000, -2.448000
  0.599000, -2.423000
  0.601000, -2.400000
  0.603000, -2.376000
  0.605000, -2.353000
  0.607000, -2.330000
  0.609000, -2.308000
  0.611000, -2.286000
  0.613000, -2.264000
  0.615000, -2.242000
  0.617000, -2.220000
  0.619000, -2.199000
  0.621000, -2.178000
  0.623000, -2.157000
  0.625000, -2.136000
  0.627000, -2.115000
  0.629000, -2.094000
  0.631000, -2.073000
  0.633000, -2.052000
  0.635000, -2.032000
  0.637000, -2.011000
  0.639000, -1.991000
  0.641000, -1.970000
  0.643000, -1.950000
  0.645000, -1.930000
  0.647000, -1.909000
  0.649000, -1.889000
  0.651000, -1.869000
  0.653000, -1.849000
  0.655000, -1.829000
  0.657000, -1.809000
  0.659000, -1.789000
  0.661000, -1.769000
  0.663000, -1.749000
  0.665000, -1.730000
  0.667000, -1.710000
  0.669000, -1.690000
  0.671000, -1.671000
  0.673000, -1.652000
  0.675000, -1.633000
  0.677000, -1.614000
  0.679000, -1.595000
  0.681000, -1.576000
  0.683000, -1.557000
  0.685000, -1.539000
  0.687000, -1.520000
  0.689000, -1.502000
  0.691000, -1.484000
  0.693000, -1.466000
  0.695000, -1.447000
  0.697000, -1.429000
  0.699000, -1.411000
  0.701000, -1.393000
  0.703000, -1.375000
  0.705000, -1.358000
  0.707000, -1.340000
  0.709000, -1.323000
  0.711000, -1.305000
  0.713000, -1.288000
  0.715000, -1.270000
  0.717000, -1.253000
  0.719000, -1.236000
  0.721000, -1.219000
  0.723000, -1.202000
  0.725000, -1.185000
  0.727000, -1.168000
  0.729000, -1.152000
  0.731000, -1.136000
  0.733000, -1.119000
  0.735000, -1.103000
  0.737000, -1.086000
  0.739000, -1.070000
  0.741000, -1.054000
  0.743000, -1.038000
  0.745000, -1.022000
  0.747000, -1.006000
  0.749000, -0.990000
  0.751000, -0.974000
  0.753000, -0.959000
  0.755000, -0.943000
  0.757000, -0.927000
  0.759000, -0.912000
  0.761000, -0.897000
  0.763000, -0.881000
  0.765000, -0.866000
  0.767000, -0.851000
  0.769000, -0.837000
  0.771000, -0.823000
  0.773000, -0.808000
  0.775000, -0.794000
  0.777000, -0.780000
  0.779000, -0.766000
  0.781000, -0.752000
  0.783000, -0.738000
  0.785000, -0.725000
  0.787000, -0.712000
  0.789000, -0.699000
  0.791000, -0.686000
  0.793000, -0.673000
  0.795000, -0.661000
  0.797000, -0.649000
  0.799000, -0.637000
  0.801000, -0.625000
  0.803000, -0.614000
  0.805000, -0.602000
  0.807000, -0.591000
  0.809000, -0.580000
  0.811000, -0.569000
  0.813000, -0.559000
  0.815000, -0.548000
  0.817000, -0.538000
  0.819000, -0.528000
  0.821000, -0.518000
  0.823000, -0.509000
  0.825000, -0.500000
  0.827000, -0.491000
  0.829000, -0.482000
  0.831000, -0.474000
  0.833000, -0.466000
  0.835000, -0.457000
  0.837000, -0.450000
  0.839000, -0.442000
  0.841000, -0.434000
  0.843000, -0.427000
  0.845000, -0.420000
  0.847000, -0.413000
  0.849000, -0.407000
  0.851000, -0.400000
  0.853000, -0.394000
  0.855000, -0.387000
  0.857000, -0.381000
  0.859000, -0.375000
  0.861000, -0.370000
  0.863000, -0.364000
  0.865000, -0.359000
  0.867000, -0.353000
  0.869000, -0.348000
  0.871000, -0.343000
  0.873000, -0.338000
  0.875000, -0.333000
  0.877000, -0.329000
  0.879000, -0.324000
  0.881000, -0.320000
  0.883000, -0.315000
  0.885000, -0.311000
  0.887000, -0.307000
  0.889000, -0.303000
  0.891000, -0.300000
  0.893000, -0.296000
  0.895000, -0.292000
  0.897000, -0.289000
  0.899000, -0.285000
  0.901000, -0.282000
  0.903000, -0.279000
  0.905000, -0.276000
  0.907000, -0.273000
  0.909000, -0.270000
  0.911000, -0.267000
  0.913000, -0.265000
  0.915000, -0.262000
  0.917000, -0.260000
  0.919000, -0.258000
  0.921000, -0.255000
  0.923000, -0.253000
  0.925000, -0.251000
  0.927000, -0.250000
  0.929000, -0.248000
  0.931000, -0.246000
  0.933000, -0.245000
  0.935000, -0.243000
  0.937000, -0.242000
  0.939000, -0.241000
  0.941000, -0.240000
  0.943000, -0.239000
  0.945000, -0.238000
  0.947000, -0.237000
  0.949000, -0.237000
  0.951000, -0.236000
  0.953000, -0.235000
  0.955000, -0.235000
  0.957000, -0.234000
  0.959000, -0.234000
  0.961000, -0.233000
  0.963000, -0.233000
  0.965000, -0.232000
  0.967000, -0.232000
  0.969000, -0.231000
  0.971000, -0.231000
  0.973000, -0.230000
  0.975000, -0.230000
  0.977000, -0.229000
  0.979000, -0.228000
  0.981000, -0.227000
  0.983000, -0.227000
  0.985000, -0.226000
  0.987000, -0.224000
  0.989000, -0.223000
  0.991000, -0.222000
  0.993000, -0.221000
  0.995000, -0.219000
  0.997000, -0.218000
  0.999000, -0.216000
  1.001000, -0.215000
  1.003000, -0.213000
  1.005000, -0.211000
  1.007000, -0.209000
  1.009000, -0.207000
  1.011000, -0.204000
  1.013000, -0.202000
  1.015000, -0.199000
  1.017000, -0.197000
  1.019000, -0.194000
  1.021000, -0.191000
  1.023000, -0.189000
  1.025000, -0.186000
  1.027000, -0.183000
  1.029000, -0.180000
  1.031000, -0.177000
  1.033000, -0.174000
  1.035000, -0.171000
  1.037000, -0.168000
  1.039000, -0.165000
  1.041000, -0.162000
  1.043000, -0.159000
  1.045000, -0.156000
  1.047000, -0.152000
  1.049000, -0.150000
  1.051000, -0.147000
  1.053000, -0.144000
  1.055000, -0.141000
  1.057000, -0.138000
  1.059000, -0.135000
  1.061000, -0.133000
  1.063000, -0.130000
  1.065000, -0.128000
  1.067000, -0.125000
  1.069000, -0.122000
  1.071000, -0.120000
  1.073000, -0.118000
  1.075000, -0.115000
  1.077000, -0.113000
  1.079000, -0.111000
  1.081000, -0.109000
  1.083000, -0.107000
  1.085000, -0.105000
  1.087000, -0.103000
  1.089000, -0.101000
  1.091000, -0.099000
  1.093000, -0.097000
  1.095000, -0.096000
  1.097000, -0.094000
  1.099000, -0.093000
  1.101000, -0.091000
  1.103000, -0.089000
  1.105000, -0.088000
  1.107000, -0.086000
  1.109000, -0.085000
  1.111000, -0.083000
  1.113000, -0.082000
  1.115000, -0.080000
  1.117000, -0.079000
  1.119000, -0.077000
  1.121000, -0.076000
  1.123000, -0.075000
  1.125000, -0.073000
  1.127000, -0.072000
  1.129000, -0.070000
  1.131000, -0.069000
  1.133000, -0.068000
  1.135000, -0.067000
  1.137000, -0.065000
  1.139000, -0.064000
  1.141000, -0.063000
  1.143000, -0.062000
  1.145000, -0.061000
  1.147000, -0.060000
  1.149000, -0.059000
  1.151000, -0.058000
  1.153000, -0.057000
  1.155000, -0.057000
  1.157000, -0.056000
  1.159000, -0.056000
  1.161000, -0.055000
  1.163000, -0.055000
  1.165000, -0.054000
  1.167000, -0.054000
  1.169000, -0.054000
  1.171000, -0.053000
  1.173000, -0.053000
  1.175000, -0.053000
  1.177000, -0.053000
  1.179000, -0.053000
  1.181000, -0.054000
  1.183000, -0.054000
  1.185000, -0.054000
  1.187000, -0.054000
  1.189000, -0.054000
  1.191000, -0.055000
  1.193000, -0.055000
  1.195000, -0.055000
  1.197000, -0.055000
  1.199000, -0.056000
  1.201000, -0.056000
  1.203000, -0.057000
  1.205000, -0.057000
  1.207000, -0.057000
  1.209000, -0.058000
  1.211000, -0.058000
  1.213000, -0.058000
  1.215000, -0.058000
  1.217000, -0.058000
  1.219000, -0.059000
  1.221000, -0.059000
  1.223000, -0.059000
  1.225000, -0.059000
  1.227000, -0.058000
  1.229000, -0.058000
  1.231000, -0.058000
  1.233000, -0.058000
  1.235000, -0.057000
  1.237000, -0.057000
  1.239000, -0.057000
  1.241000, -0.056000
  1.243000, -0.055000
  1.245000, -0.055000
  1.247000, -0.054000
  1.249000, -0.053000
  1.251000, -0.053000
  1.253000, -0.052000
  1.255000, -0.051000
  1.257000, -0.050000
  1.259000, -0.049000
  1.261000, -0.048000
  1.263000, -0.047000
  1.265000, -0.046000
  1.267000, -0.045000
  1.269000, -0.044000
  1.271000, -0.043000
  1.273000, -0.041000
  1.275000, -0.040000
  1.277000, -0.039000
  1.279000, -0.037000
  1.281000, -0.036000
  1.283000, -0.035000
  1.285000, -0.034000
  1.287000, -0.032000
  1.289000, -0.031000
  1.291000, -0.029000
  1.293000, -0.028000
  1.295000, -0.026000
  1.297000, -0.025000
  1.299000, -0.023000
  1.301000, -0.022000
  1.303000, -0.020000
  1.305000, -0.018000
  1.307000, -0.017000
  1.309000, -0.015000
  1.311000, -0.013000
  1.313000, -0.011000
  1.315000, -0.008000
  1.317000, -0.006000
  1.319000, -0.004000
  1.321000, -0.002000
  1.323000,  0.001000
  1.325000,  0.004000
  1.327000,  0.006000
  1.329000,  0.009000
  1.331000,  0.012000
  1.333000,  0.015000
  1.335000,  0.018000
  1.337000,  0.021000
  1.339000,  0.024000
  1.341000,  0.028000
  1.343000,  0.031000
  1.345000,  0.035000
  1.347000,  0.038000
  1.349000,  0.042000
  1.351000,  0.046000
  1.353000,  0.050000
  1.355000,  0.054000
  1.357000,  0.058000
  1.359000,  0.063000
  1.361000,  0.067000
  1.363000,  0.071000
  1.365000,  0.075000
  1.367000,  0.080000
  1.369000,  0.084000
  1.371000,  0.088000
  1.373000,  0.092000
  1.375000,  0.097000
  1.377000,  0.101000
  1.379000,  0.104000
  1.381000,  0.108000
  1.383000,  0.112000
  1.385000,  0.115000
  1.387000,  0.119000
  1.389000,  0.122000
  1.391000,  0.125000
  1.393000,  0.127000
  1.395000,  0.130000
  1.397000,  0.132000
  1.399000,  0.133000
