# z (nm)   (kJ/mol)
  0.117000, 11.584000
  0.119000, 11.260000
  0.121000, 10.954000
  0.123000, 10.628000
  0.125000, 10.272000
  0.127000,  9.938000
  0.129000,  9.599000
  0.131000,  9.251000
  0.133000,  8.898000
  0.135000,  8.538000
  0.137000,  8.182000
  0.139000,  7.817000
  0.141000,  7.450000
  0.143000,  7.088000
  0.145000,  6.722000
  0.147000,  6.347000
  0.149000,  5.976000
  0.151000,  5.608000
  0.153000,  5.234000
  0.155000,  4.862000
  0.157000,  4.493000
  0.159000,  4.121000
  0.161000,  3.749000
  0.163000,  3.383000
  0.165000,  3.020000
  0.167000,  2.662000
  0.169000,  2.304000
  0.171000,  1.948000
  0.173000,  1.597000
  0.175000,  1.252000
  0.177000,  0.916000
  0.179000,  0.584000
  0.181000,  0.253000
  0.183000, -0.073000
  0.185000, -0.397000
  0.187000, -0.719000
  0.189000, -1.034000
  0.191000, -1.342000
  0.193000, -1.647000
  0.195000, -1.949000
  0.197000, -2.243000
  0.199000, -2.532000
  0.201000, -2.818000
  0.203000, -3.097000
  0.205000, -3.371000
  0.207000, -3.640000
  0.209000, -3.906000
  0.211000, -4.165000
  0.213000, -4.418000
  0.215000, -4.665000
  0.217000, -4.906000
  0.219000, -5.140000
  0.221000, -5.369000
  0.223000, -5.593000
  0.225000, -5.810000
  0.227000, -6.019000
  0.229000, -6.223000
  0.231000, -6.420000
  0.233000, -6.610000
  0.235000, -6.793000
  0.237000, -6.971000
  0.239000, -7.141000
  0.241000, -7.304000
  0.243000, -7.460000
  0.245000, -7.609000
  0.247000, -7.751000
  0.249000, -7.885000
  0.251000, -8.012000
  0.253000, -8.133000
  0.255000, -8.246000
  0.257000, -8.352000
  0.259000, -8.450000
  0.261000, -8.540000
  0.263000, -8.624000
  0.265000, -8.701000
  0.267000, -8.771000
  0.269000, -8.834000
  0.271000, -8.890000
  0.273000, -8.940000
  0.275000, -8.983000
  0.277000, -9.020000
  0.279000, -9.050000
  0.281000, -9.073000
  0.283000, -9.090000
  0.285000, -9.100000
  0.287000, -9.104000
  0.289000, -9.102000
  0.291000, -9.094000
  0.293000, -9.081000
  0.295000, -9.061000
  0.297000, -9.035000
  0.299000, -9.004000
  0.301000, -8.968000
  0.303000, -8.927000
  0.305000, -8.882000
  0.307000, -8.832000
  0.309000, -8.777000
  0.311000, -8.718000
  0.313000, -8.655000
  0.315000, -8.587000
  0.317000, -8.515000
  0.319000, -8.438000
  0.321000, -8.359000
  0.323000, -8.275000
  0.325000, -8.188000
  0.327000, -8.098000
  0.329000, -8.004000
  0.331000, -7.908000
  0.333000, -7.809000
  0.335000, -7.707000
  0.337000, -7.602000
  0.339000, -7.494000
  0.341000, -7.384000
  0.343000, -7.273000
  0.345000, -7.159000
  0.347000, -7.042000
  0.349000, -6.925000
  0.351000, -6.805000
  0.353000, -6.684000
  0.355000, -6.561000
  0.357000, -6.438000
  0.359000, -6.313000
  0.361000, -6.187000
  0.363000, -6.061000
  0.365000, -5.933000
  0.367000, -5.805000
  0.369000, -5.677000
  0.371000, -5.548000
  0.373000, -5.419000
  0.375000, -5.290000
  0.377000, -5.161000
  0.379000, -5.033000
  0.381000, -4.905000
  0.383000, -4.778000
  0.385000, -4.651000
  0.387000, -4.525000
  0.389000, -4.401000
  0.391000, -4.277000
  0.393000, -4.154000
  0.395000, -4.033000
  0.397000, -3.913000
  0.399000, -3.795000
  0.401000, -3.679000
  0.403000, -3.566000
  0.405000, -3.454000
  0.407000, -3.345000
  0.409000, -3.238000
  0.411000, -3.133000
  0.413000, -3.031000
  0.415000, -2.931000
  0.417000, -2.834000
  0.419000, -2.740000
  0.421000, -2.649000
  0.423000, -2.561000
  0.425000, -2.476000
  0.427000, -2.394000
  0.429000, -2.316000
  0.431000, -2.240000
  0.433000, -2.169000
  0.435000, -2.101000
  0.437000, -2.036000
  0.439000, -1.974000
  0.441000, -1.916000
  0.443000, -1.861000
  0.445000, -1.809000
  0.447000, -1.761000
  0.449000, -1.716000
  0.451000, -1.675000
  0.453000, -1.636000
  0.455000, -1.601000
  0.457000, -1.569000
  0.459000, -1.540000
  0.461000, -1.514000
  0.463000, -1.490000
  0.465000, -1.470000
  0.467000, -1.453000
  0.469000, -1.438000
  0.471000, -1.425000
  0.473000, -1.415000
  0.475000, -1.407000
  0.477000, -1.402000
  0.479000, -1.398000
  0.481000, -1.396000
  0.483000, -1.396000
  0.485000, -1.398000
  0.487000, -1.402000
  0.489000, -1.407000
  0.491000, -1.413000
  0.493000, -1.420000
  0.495000, -1.429000
  0.497000, -1.438000
  0.499000, -1.449000
  0.501000, -1.460000
  0.503000, -1.472000
  0.505000, -1.484000
  0.507000, -1.497000
  0.509000, -1.509000
  0.511000, -1.522000
  0.513000, -1.535000
  0.515000, -1.548000
  0.517000, -1.561000
  0.519000, -1.574000
  0.521000, -1.586000
  0.523000, -1.598000
  0.525000, -1.609000
  0.527000, -1.621000
  0.529000, -1.631000
  0.531000, -1.641000
  0.533000, -1.651000
  0.535000, -1.659000
  0.537000, -1.667000
  0.539000, -1.674000
  0.541000, -1.681000
  0.543000, -1.687000
  0.545000, -1.691000
  0.547000, -1.695000
  0.549000, -1.698000
  0.551000, -1.700000
  0.553000, -1.701000
  0.555000, -1.702000
  0.557000, -1.701000
  0.559000, -1.700000
  0.561000, -1.697000
  0.563000, -1.694000
  0.565000, -1.689000
  0.567000, -1.684000
  0.569000, -1.679000
  0.571000, -1.672000
  0.573000, -1.664000
  0.575000, -1.656000
  0.577000, -1.647000
  0.579000, -1.637000
  0.581000, -1.627000
  0.583000, -1.615000
  0.585000, -1.604000
  0.587000, -1.591000
  0.589000, -1.578000
  0.591000, -1.565000
  0.593000, -1.551000
  0.595000, -1.536000
  0.597000, -1.521000
  0.599000, -1.505000
  0.601000, -1.489000
  0.603000, -1.473000
  0.605000, -1.456000
  0.607000, -1.439000
  0.609000, -1.422000
  0.611000, -1.404000
  0.613000, -1.386000
  0.615000, -1.368000
  0.617000, -1.349000
  0.619000, -1.331000
  0.621000, -1.312000
  0.623000, -1.293000
  0.625000, -1.274000
  0.627000, -1.255000
  0.629000, -1.235000
  0.631000, -1.216000
  0.633000, -1.196000
  0.635000, -1.176000
  0.637000, -1.157000
  0.639000, -1.137000
  0.641000, -1.117000
  0.643000, -1.098000
  0.645000, -1.078000
  0.647000, -1.058000
  0.649000, -1.039000
  0.651000, -1.019000
  0.653000, -1.000000
  0.655000, -0.980000
  0.657000, -0.961000
  0.659000, -0.942000
  0.661000, -0.922000
  0.663000, -0.903000
  0.665000, -0.884000
  0.667000, -0.866000
  0.669000, -0.847000
  0.671000, -0.828000
  0.673000, -0.810000
  0.675000, -0.792000
  0.677000, -0.774000
  0.679000, -0.756000
  0.681000, -0.739000
  0.683000, -0.722000
  0.685000, -0.705000
  0.687000, -0.688000
  0.689000, -0.671000
  0.691000, -0.655000
  0.693000, -0.639000
  0.695000, -0.623000
  0.697000, -0.608000
  0.699000, -0.592000
  0.701000, -0.578000
  0.703000, -0.563000
  0.705000, -0.549000
  0.707000, -0.535000
  0.709000, -0.521000
  0.711000, -0.508000
  0.713000, -0.495000
  0.715000, -0.482000
  0.717000, -0.470000
  0.719000, -0.458000
  0.721000, -0.447000
  0.723000, -0.436000
  0.725000, -0.425000
  0.727000, -0.415000
  0.729000, -0.405000
  0.731000, -0.396000
  0.733000, -0.386000
  0.735000, -0.378000
  0.737000, -0.369000
  0.739000, -0.362000
  0.741000, -0.354000
  0.743000, -0.347000
  0.745000, -0.340000
  0.747000, -0.333000
  0.749000, -0.327000
  0.751000, -0.321000
  0.753000, -0.316000
  0.755000, -0.311000
  0.757000, -0.306000
  0.759000, -0.302000
  0.761000, -0.298000
  0.763000, -0.294000
  0.765000, -0.290000
  0.767000, -0.287000
  0.769000, -0.284000
  0.771000, -0.281000
  0.773000, -0.279000
  0.775000, -0.277000
  0.777000, -0.275000
  0.779000, -0.273000
  0.781000, -0.272000
  0.783000, -0.271000
  0.785000, -0.270000
  0.787000, -0.270000
  0.789000, -0.269000
  0.791000, -0.269000
  0.793000, -0.268000
  0.795000, -0.269000
  0.797000, -0.269000
  0.799000, -0.269000
  0.801000, -0.269000
  0.803000, -0.269000
  0.805000, -0.270000
  0.807000, -0.270000
  0.809000, -0.271000
  0.811000, -0.271000
  0.813000, -0.272000
  0.815000, -0.273000
  0.817000, -0.274000
  0.819000, -0.274000
  0.821000, -0.275000
  0.823000, -0.276000
  0.825000, -0.276000
  0.827000, -0.277000
  0.829000, -0.277000
  0.831000, -0.278000
  0.833000, -0.278000
  0.835000, -0.278000
  0.837000, -0.279000
  0.839000, -0.279000
  0.841000, -0.279000
  0.843000, -0.279000
  0.845000, -0.279000
  0.847000, -0.279000
  0.849000, -0.279000
  0.851000, -0.278000
  0.853000, -0.278000
  0.855000, -0.278000
  0.857000, -0.277000
  0.859000, -0.276000
  0.861000, -0.275000
  0.863000, -0.275000
  0.865000, -0.274000
  0.867000, -0.273000
  0.869000, -0.272000
  0.871000, -0.271000
  0.873000, -0.269000
  0.875000, -0.268000
  0.877000, -0.267000
  0.879000, -0.266000
  0.881000, -0.265000
  0.883000, -0.264000
  0.885000, -0.262000
  0.887000, -0.261000
  0.889000, -0.260000
  0.891000, -0.259000
  0.893000, -0.258000
  0.895000, -0.257000
  0.897000, -0.256000
  0.899000, -0.255000
  0.901000, -0.255000
  0.903000, -0.254000
  0.905000, -0.253000
  0.907000, -0.252000
  0.909000, -0.252000
  0.911000, -0.251000
  0.913000, -0.251000
  0.915000, -0.251000
  0.917000, -0.250000
  0.919000, -0.250000
  0.921000, -0.250000
  0.923000, -0.250000
  0.925000, -0.250000
  0.927000, -0.250000
  0.929000, -0.250000
  0.931000, -0.250000
  0.933000, -0.250000
  0.935000, -0.251000
  0.937000, -0.251000
  0.939000, -0.251000
  0.941000, -0.251000
  0.943000, -0.251000
  0.945000, -0.251000
  0.947000, -0.251000
  0.949000, -0.251000
  0.951000, -0.250000
  0.953000, -0.250000
  0.955000, -0.249000
  0.957000, -0.248000
  0.959000, -0.248000
  0.961000, -0.247000
  0.963000, -0.246000
  0.965000, -0.244000
  0.967000, -0.243000
  0.969000, -0.241000
  0.971000, -0.240000
  0.973000, -0.238000
  0.975000, -0.236000
  0.977000, -0.233000
  0.979000, -0.230000
  0.981000, -0.228000
  0.983000, -0.225000
  0.985000, -0.221000
  0.987000, -0.218000
  0.989000, -0.215000
  0.991000, -0.211000
  0.993000, -0.207000
  0.995000, -0.203000
  0.997000, -0.199000
  0.999000, -0.194000
  1.001000, -0.190000
  1.003000, -0.185000
  1.005000, -0.180000
  1.007000, -0.175000
  1.009000, -0.170000
  1.011000, -0.165000
  1.013000, -0.160000
  1.015000, -0.155000
  1.017000, -0.150000
  1.019000, -0.145000
  1.021000, -0.139000
  1.023000, -0.134000
  1.025000, -0.128000
  1.027000, -0.123000
  1.029000, -0.118000
  1.031000, -0.113000
  1.033000, -0.108000
  1.035000, -0.103000
  1.037000, -0.098000
  1.039000, -0.093000
  1.041000, -0.089000
  1.043000, -0.084000
  1.045000, -0.080000
  1.047000, -0.076000
  1.049000, -0.072000
  1.051000, -0.068000
  1.053000, -0.065000
  1.055000, -0.061000
  1.057000, -0.058000
  1.059000, -0.055000
  1.061000, -0.052000
  1.063000, -0.049000
  1.065000, -0.047000
  1.067000, -0.045000
  1.069000, -0.042000
  1.071000, -0.040000
  1.073000, -0.039000
  1.075000, -0.037000
  1.077000, -0.036000
  1.079000, -0.034000
  1.081000, -0.033000
  1.083000, -0.032000
  1.085000, -0.031000
  1.087000, -0.030000
  1.089000, -0.029000
  1.091000, -0.029000
  1.093000, -0.028000
  1.095000, -0.028000
  1.097000, -0.027000
  1.099000, -0.027000
  1.101000, -0.027000
  1.103000, -0.027000
  1.105000, -0.027000
  1.107000, -0.028000
  1.109000, -0.028000
  1.111000, -0.028000
  1.113000, -0.028000
  1.115000, -0.029000
  1.117000, -0.029000
  1.119000, -0.029000
  1.121000, -0.030000
  1.123000, -0.030000
  1.125000, -0.031000
  1.127000, -0.032000
  1.129000, -0.032000
  1.131000, -0.033000
  1.133000, -0.033000
  1.135000, -0.034000
  1.137000, -0.035000
  1.139000, -0.035000
  1.141000, -0.036000
  1.143000, -0.037000
  1.145000, -0.038000
  1.147000, -0.039000
  1.149000, -0.039000
  1.151000, -0.040000
  1.153000, -0.041000
  1.155000, -0.042000
  1.157000, -0.042000
  1.159000, -0.043000
  1.161000, -0.044000
  1.163000, -0.045000
  1.165000, -0.045000
  1.167000, -0.046000
  1.169000, -0.047000
  1.171000, -0.047000
  1.173000, -0.048000
  1.175000, -0.048000
  1.177000, -0.048000
  1.179000, -0.049000
  1.181000, -0.049000
  1.183000, -0.049000
  1.185000, -0.049000
  1.187000, -0.049000
  1.189000, -0.049000
  1.191000, -0.049000
  1.193000, -0.048000
  1.195000, -0.048000
  1.197000, -0.048000
  1.199000, -0.048000
  1.201000, -0.047000
  1.203000, -0.047000
  1.205000, -0.046000
  1.207000, -0.045000
  1.209000, -0.045000
  1.211000, -0.044000
  1.213000, -0.043000
  1.215000, -0.042000
  1.217000, -0.041000
  1.219000, -0.040000
  1.221000, -0.039000
  1.223000, -0.038000
  1.225000, -0.038000
  1.227000, -0.037000
  1.229000, -0.036000
  1.231000, -0.035000
  1.233000, -0.034000
  1.235000, -0.033000
  1.237000, -0.032000
  1.239000, -0.031000
  1.241000, -0.031000
  1.243000, -0.030000
  1.245000, -0.029000
  1.247000, -0.028000
  1.249000, -0.028000
  1.251000, -0.027000
  1.253000, -0.027000
  1.255000, -0.027000
  1.257000, -0.026000
  1.259000, -0.026000
  1.261000, -0.026000
  1.263000, -0.025000
  1.265000, -0.025000
  1.267000, -0.025000
  1.269000, -0.026000
  1.271000, -0.026000
  1.273000, -0.025000
  1.275000, -0.025000
  1.277000, -0.025000
  1.279000, -0.025000
  1.281000, -0.025000
  1.283000, -0.025000
  1.285000, -0.025000
  1.287000, -0.025000
  1.289000, -0.025000
  1.291000, -0.025000
  1.293000, -0.025000
  1.295000, -0.025000
  1.297000, -0.025000
  1.299000, -0.025000
  1.301000, -0.024000
  1.303000, -0.024000
  1.305000, -0.023000
  1.307000, -0.022000
  1.309000, -0.022000
  1.311000, -0.021000
  1.313000, -0.020000
  1.315000, -0.019000
  1.317000, -0.017000
  1.319000, -0.016000
  1.321000, -0.015000
  1.323000, -0.013000
  1.325000, -0.011000
  1.327000, -0.009000
  1.329000, -0.007000
  1.331000, -0.004000
  1.333000, -0.002000
  1.335000,  0.001000
  1.337000,  0.004000
  1.339000,  0.007000
  1.341000,  0.010000
  1.343000,  0.014000
  1.345000,  0.017000
  1.347000,  0.020000
  1.349000,  0.024000
  1.351000,  0.028000
  1.353000,  0.032000
  1.355000,  0.036000
  1.357000,  0.040000
  1.359000,  0.044000
  1.361000,  0.048000
  1.363000,  0.052000
  1.365000,  0.056000
  1.367000,  0.060000
  1.369000,  0.064000
  1.371000,  0.068000
  1.373000,  0.072000
  1.375000,  0.077000
  1.377000,  0.080000
  1.379000,  0.084000
  1.381000,  0.087000
  1.383000,  0.091000
  1.385000,  0.094000
  1.387000,  0.096000
  1.389000,  0.099000
  1.391000,  0.101000
  1.393000,  0.102000
  1.395000,  0.103000
  1.397000,  0.104000
  1.399000,  0.105000
