# z (nm)   (kJ/mol)
  0.161000,  5.273000
  0.163000,  4.777000
  0.165000,  4.261000
  0.167000,  3.728000
  0.169000,  3.208000
  0.171000,  2.686000
  0.173000,  2.157000
  0.175000,  1.636000
  0.177000,  1.130000
  0.179000,  0.637000
  0.181000,  0.146000
  0.183000, -0.340000
  0.185000, -0.821000
  0.187000, -1.286000
  0.189000, -1.740000
  0.191000, -2.185000
  0.193000, -2.613000
  0.195000, -3.029000
  0.197000, -3.435000
  0.199000, -3.828000
  0.201000, -4.207000
  0.203000, -4.574000
  0.205000, -4.928000
  0.207000, -5.267000
  0.209000, -5.591000
  0.211000, -5.900000
  0.213000, -6.195000
  0.215000, -6.477000
  0.217000, -6.746000
  0.219000, -7.001000
  0.221000, -7.240000
  0.223000, -7.467000
  0.225000, -7.680000
  0.227000, -7.880000
  0.229000, -8.067000
  0.231000, -8.239000
  0.233000, -8.399000
  0.235000, -8.545000
  0.237000, -8.678000
  0.239000, -8.798000
  0.241000, -8.906000
  0.243000, -9.001000
  0.245000, -9.086000
  0.247000, -9.159000
  0.249000, -9.220000
  0.251000, -9.272000
  0.253000, -9.312000
  0.255000, -9.343000
  0.257000, -9.364000
  0.259000, -9.377000
  0.261000, -9.383000
  0.263000, -9.379000
  0.265000, -9.366000
  0.267000, -9.347000
  0.269000, -9.323000
  0.271000, -9.292000
  0.273000, -9.255000
  0.275000, -9.213000
  0.277000, -9.164000
  0.279000, -9.111000
  0.281000, -9.055000
  0.283000, -8.995000
  0.285000, -8.931000
  0.287000, -8.864000
  0.289000, -8.794000
  0.291000, -8.722000
  0.293000, -8.648000
  0.295000, -8.571000
  0.297000, -8.493000
  0.299000, -8.413000
  0.301000, -8.331000
  0.303000, -8.248000
  0.305000, -8.164000
  0.307000, -8.079000
  0.309000, -7.993000
  0.311000, -7.905000
  0.313000, -7.817000
  0.315000, -7.729000
  0.317000, -7.640000
  0.319000, -7.550000
  0.321000, -7.460000
  0.323000, -7.370000
  0.325000, -7.279000
  0.327000, -7.187000
  0.329000, -7.095000
  0.331000, -7.003000
  0.333000, -6.911000
  0.335000, -6.818000
  0.337000, -6.725000
  0.339000, -6.631000
  0.341000, -6.537000
  0.343000, -6.443000
  0.345000, -6.349000
  0.347000, -6.254000
  0.349000, -6.159000
  0.351000, -6.063000
  0.353000, -5.968000
  0.355000, -5.871000
  0.357000, -5.775000
  0.359000, -5.679000
  0.361000, -5.582000
  0.363000, -5.486000
  0.365000, -5.389000
  0.367000, -5.293000
  0.369000, -5.196000
  0.371000, -5.100000
  0.373000, -5.004000
  0.375000, -4.908000
  0.377000, -4.812000
  0.379000, -4.717000
  0.381000, -4.622000
  0.383000, -4.527000
  0.385000, -4.433000
  0.387000, -4.339000
  0.389000, -4.245000
  0.391000, -4.153000
  0.393000, -4.061000
  0.395000, -3.970000
  0.397000, -3.879000
  0.399000, -3.789000
  0.401000, -3.701000
  0.403000, -3.612000
  0.405000, -3.525000
  0.407000, -3.438000
  0.409000, -3.353000
  0.411000, -3.268000
  0.413000, -3.185000
  0.415000, -3.103000
  0.417000, -3.022000
  0.419000, -2.942000
  0.421000, -2.863000
  0.423000, -2.786000
  0.425000, -2.711000
  0.427000, -2.636000
  0.429000, -2.563000
  0.431000, -2.491000
  0.433000, -2.422000
  0.435000, -2.354000
  0.437000, -2.288000
  0.439000, -2.223000
  0.441000, -2.161000
  0.443000, -2.100000
  0.445000, -2.041000
  0.447000, -1.984000
  0.449000, -1.929000
  0.451000, -1.876000
  0.453000, -1.825000
  0.455000, -1.776000
  0.457000, -1.730000
  0.459000, -1.687000
  0.461000, -1.647000
  0.463000, -1.609000
  0.465000, -1.573000
  0.467000, -1.541000
  0.469000, -1.512000
  0.471000, -1.485000
  0.473000, -1.461000
  0.475000, -1.441000
  0.477000, -1.423000
  0.479000, -1.408000
  0.481000, -1.397000
  0.483000, -1.388000
  0.485000, -1.383000
  0.487000, -1.381000
  0.489000, -1.382000
  0.491000, -1.386000
  0.493000, -1.393000
  0.495000, -1.404000
  0.497000, -1.417000
  0.499000, -1.433000
  0.501000, -1.452000
  0.503000, -1.474000
  0.505000, -1.499000
  0.507000, -1.526000
  0.509000, -1.556000
  0.511000, -1.589000
  0.513000, -1.624000
  0.515000, -1.661000
  0.517000, -1.700000
  0.519000, -1.741000
  0.521000, -1.783000
  0.523000, -1.827000
  0.525000, -1.873000
  0.527000, -1.920000
  0.529000, -1.969000
  0.531000, -2.019000
  0.533000, -2.070000
  0.535000, -2.121000
  0.537000, -2.173000
  0.539000, -2.225000
  0.541000, -2.277000
  0.543000, -2.328000
  0.545000, -2.380000
  0.547000, -2.431000
  0.549000, -2.482000
  0.551000, -2.533000
  0.553000, -2.582000
  0.555000, -2.631000
  0.557000, -2.678000
  0.559000, -2.724000
  0.561000, -2.769000
  0.563000, -2.813000
  0.565000, -2.855000
  0.567000, -2.896000
  0.569000, -2.934000
  0.571000, -2.972000
  0.573000, -3.007000
  0.575000, -3.040000
  0.577000, -3.071000
  0.579000, -3.099000
  0.581000, -3.126000
  0.583000, -3.151000
  0.585000, -3.173000
  0.587000, -3.193000
  0.589000, -3.210000
  0.591000, -3.226000
  0.593000, -3.239000
  0.595000, -3.249000
  0.597000, -3.258000
  0.599000, -3.263000
  0.601000, -3.267000
  0.603000, -3.268000
  0.605000, -3.267000
  0.607000, -3.264000
  0.609000, -3.258000
  0.611000, -3.250000
  0.613000, -3.240000
  0.615000, -3.228000
  0.617000, -3.214000
  0.619000, -3.198000
  0.621000, -3.180000
  0.623000, -3.159000
  0.625000, -3.137000
  0.627000, -3.113000
  0.629000, -3.087000
  0.631000, -3.060000
  0.633000, -3.031000
  0.635000, -3.000000
  0.637000, -2.968000
  0.639000, -2.934000
  0.641000, -2.899000
  0.643000, -2.862000
  0.645000, -2.824000
  0.647000, -2.784000
  0.649000, -2.744000
  0.651000, -2.702000
  0.653000, -2.659000
  0.655000, -2.615000
  0.657000, -2.570000
  0.659000, -2.525000
  0.661000, -2.478000
  0.663000, -2.431000
  0.665000, -2.383000
  0.667000, -2.334000
  0.669000, -2.285000
  0.671000, -2.235000
  0.673000, -2.185000
  0.675000, -2.134000
  0.677000, -2.083000
  0.679000, -2.031000
  0.681000, -1.979000
  0.683000, -1.928000
  0.685000, -1.876000
  0.687000, -1.823000
  0.689000, -1.771000
  0.691000, -1.719000
  0.693000, -1.667000
  0.695000, -1.615000
  0.697000, -1.563000
  0.699000, -1.511000
  0.701000, -1.460000
  0.703000, -1.408000
  0.705000, -1.357000
  0.707000, -1.307000
  0.709000, -1.257000
  0.711000, -1.207000
  0.713000, -1.158000
  0.715000, -1.110000
  0.717000, -1.062000
  0.719000, -1.014000
  0.721000, -0.967000
  0.723000, -0.921000
  0.725000, -0.876000
  0.727000, -0.831000
  0.729000, -0.787000
  0.731000, -0.744000
  0.733000, -0.702000
  0.735000, -0.661000
  0.737000, -0.620000
  0.739000, -0.581000
  0.741000, -0.542000
  0.743000, -0.505000
  0.745000, -0.468000
  0.747000, -0.432000
  0.749000, -0.398000
  0.751000, -0.364000
  0.753000, -0.332000
  0.755000, -0.300000
  0.757000, -0.270000
  0.759000, -0.241000
  0.761000, -0.213000
  0.763000, -0.186000
  0.765000, -0.160000
  0.767000, -0.135000
  0.769000, -0.112000
  0.771000, -0.090000
  0.773000, -0.069000
  0.775000, -0.049000
  0.777000, -0.030000
  0.779000, -0.013000
  0.781000,  0.004000
  0.783000,  0.019000
  0.785000,  0.033000
  0.787000,  0.045000
  0.789000,  0.057000
  0.791000,  0.067000
  0.793000,  0.076000
  0.795000,  0.084000
  0.797000,  0.091000
  0.799000,  0.097000
  0.801000,  0.102000
  0.803000,  0.106000
  0.805000,  0.108000
  0.807000,  0.110000
  0.809000,  0.110000
  0.811000,  0.110000
  0.813000,  0.109000
  0.815000,  0.106000
  0.817000,  0.103000
  0.819000,  0.099000
  0.821000,  0.094000
  0.823000,  0.089000
  0.825000,  0.082000
  0.827000,  0.075000
  0.829000,  0.067000
  0.831000,  0.059000
  0.833000,  0.050000
  0.835000,  0.040000
  0.837000,  0.030000
  0.839000,  0.020000
  0.841000,  0.008000
  0.843000, -0.003000
  0.845000, -0.015000
  0.847000, -0.028000
  0.849000, -0.041000
  0.851000, -0.054000
  0.853000, -0.067000
  0.855000, -0.080000
  0.857000, -0.094000
  0.859000, -0.108000
  0.861000, -0.122000
  0.863000, -0.136000
  0.865000, -0.150000
  0.867000, -0.164000
  0.869000, -0.178000
  0.871000, -0.192000
  0.873000, -0.205000
  0.875000, -0.219000
  0.877000, -0.232000
  0.879000, -0.245000
  0.881000, -0.258000
  0.883000, -0.271000
  0.885000, -0.283000
  0.887000, -0.295000
  0.889000, -0.307000
  0.891000, -0.318000
  0.893000, -0.329000
  0.895000, -0.339000
  0.897000, -0.349000
  0.899000, -0.358000
  0.901000, -0.367000
  0.903000, -0.376000
  0.905000, -0.383000
  0.907000, -0.391000
  0.909000, -0.398000
  0.911000, -0.404000
  0.913000, -0.409000
  0.915000, -0.415000
  0.917000, -0.419000
  0.919000, -0.423000
  0.921000, -0.427000
  0.923000, -0.429000
  0.925000, -0.432000
  0.927000, -0.433000
  0.929000, -0.435000
  0.931000, -0.435000
  0.933000, -0.435000
  0.935000, -0.435000
  0.937000, -0.433000
  0.939000, -0.432000
  0.941000, -0.430000
  0.943000, -0.427000
  0.945000, -0.424000
  0.947000, -0.421000
  0.949000, -0.417000
  0.951000, -0.412000
  0.953000, -0.408000
  0.955000, -0.402000
  0.957000, -0.397000
  0.959000, -0.391000
  0.961000, -0.385000
  0.963000, -0.379000
  0.965000, -0.372000
  0.967000, -0.365000
  0.969000, -0.359000
  0.971000, -0.351000
  0.973000, -0.344000
  0.975000, -0.336000
  0.977000, -0.329000
  0.979000, -0.321000
  0.981000, -0.313000
  0.983000, -0.306000
  0.985000, -0.298000
  0.987000, -0.290000
  0.989000, -0.282000
  0.991000, -0.274000
  0.993000, -0.266000
  0.995000, -0.258000
  0.997000, -0.251000
  0.999000, -0.243000
  1.001000, -0.235000
  1.003000, -0.227000
  1.005000, -0.220000
  1.007000, -0.212000
  1.009000, -0.205000
  1.011000, -0.197000
  1.013000, -0.190000
  1.015000, -0.183000
  1.017000, -0.176000
  1.019000, -0.169000
  1.021000, -0.162000
  1.023000, -0.155000
  1.025000, -0.148000
  1.027000, -0.141000
  1.029000, -0.134000
  1.031000, -0.128000
  1.033000, -0.121000
  1.035000, -0.115000
  1.037000, -0.108000
  1.039000, -0.102000
  1.041000, -0.096000
  1.043000, -0.090000
  1.045000, -0.084000
  1.047000, -0.078000
  1.049000, -0.072000
  1.051000, -0.066000
  1.053000, -0.060000
  1.055000, -0.054000
  1.057000, -0.049000
  1.059000, -0.043000
  1.061000, -0.038000
  1.063000, -0.032000
  1.065000, -0.027000
  1.067000, -0.022000
  1.069000, -0.017000
  1.071000, -0.012000
  1.073000, -0.007000
  1.075000, -0.002000
  1.077000,  0.003000
  1.079000,  0.007000
  1.081000,  0.012000
  1.083000,  0.016000
  1.085000,  0.020000
  1.087000,  0.024000
  1.089000,  0.028000
  1.091000,  0.032000
  1.093000,  0.035000
  1.095000,  0.039000
  1.097000,  0.042000
  1.099000,  0.045000
  1.101000,  0.048000
  1.103000,  0.050000
  1.105000,  0.052000
  1.107000,  0.055000
  1.109000,  0.057000
  1.111000,  0.058000
  1.113000,  0.060000
  1.115000,  0.061000
  1.117000,  0.063000
  1.119000,  0.064000
  1.121000,  0.065000
  1.123000,  0.065000
  1.125000,  0.066000
  1.127000,  0.066000
  1.129000,  0.066000
  1.131000,  0.066000
  1.133000,  0.066000
  1.135000,  0.065000
  1.137000,  0.065000
  1.139000,  0.064000
  1.141000,  0.063000
  1.143000,  0.062000
  1.145000,  0.060000
  1.147000,  0.059000
  1.149000,  0.057000
  1.151000,  0.056000
  1.153000,  0.054000
  1.155000,  0.052000
  1.157000,  0.050000
  1.159000,  0.048000
  1.161000,  0.046000
  1.163000,  0.044000
  1.165000,  0.041000
  1.167000,  0.039000
  1.169000,  0.037000
  1.171000,  0.035000
  1.173000,  0.032000
  1.175000,  0.030000
  1.177000,  0.027000
  1.179000,  0.025000
  1.181000,  0.023000
  1.183000,  0.021000
  1.185000,  0.019000
  1.187000,  0.017000
  1.189000,  0.015000
  1.191000,  0.013000
  1.193000,  0.011000
  1.195000,  0.009000
  1.197000,  0.008000
  1.199000,  0.006000
  1.201000,  0.004000
  1.203000,  0.003000
  1.205000,  0.002000
  1.207000,  0.001000
  1.209000,  0.000000
  1.211000, -0.001000
  1.213000, -0.002000
  1.215000, -0.003000
  1.217000, -0.003000
  1.219000, -0.004000
  1.221000, -0.005000
  1.223000, -0.005000
  1.225000, -0.005000
  1.227000, -0.005000
  1.229000, -0.005000
  1.231000, -0.006000
  1.233000, -0.006000
  1.235000, -0.006000
  1.237000, -0.006000
  1.239000, -0.006000
  1.241000, -0.006000
  1.243000, -0.006000
  1.245000, -0.006000
  1.247000, -0.007000
  1.249000, -0.007000
  1.251000, -0.007000
  1.253000, -0.007000
  1.255000, -0.007000
  1.257000, -0.008000
  1.259000, -0.008000
  1.261000, -0.009000
  1.263000, -0.009000
  1.265000, -0.010000
  1.267000, -0.010000
  1.269000, -0.011000
  1.271000, -0.012000
  1.273000, -0.013000
  1.275000, -0.014000
  1.277000, -0.015000
  1.279000, -0.016000
  1.281000, -0.017000
  1.283000, -0.018000
  1.285000, -0.019000
  1.287000, -0.020000
  1.289000, -0.021000
  1.291000, -0.022000
  1.293000, -0.023000
  1.295000, -0.024000
  1.297000, -0.024000
  1.299000, -0.025000
  1.301000, -0.026000
  1.303000, -0.027000
  1.305000, -0.027000
  1.307000, -0.028000
  1.309000, -0.028000
  1.311000, -0.029000
  1.313000, -0.029000
  1.315000, -0.029000
  1.317000, -0.028000
  1.319000, -0.028000
  1.321000, -0.028000
  1.323000, -0.027000
  1.325000, -0.026000
  1.327000, -0.025000
  1.329000, -0.024000
  1.331000, -0.022000
  1.333000, -0.020000
  1.335000, -0.019000
  1.337000, -0.017000
  1.339000, -0.015000
  1.341000, -0.013000
  1.343000, -0.010000
  1.345000, -0.008000
  1.347000, -0.005000
  1.349000, -0.002000
  1.351000,  0.001000
  1.353000,  0.004000
  1.355000,  0.007000
  1.357000,  0.010000
  1.359000,  0.014000
  1.361000,  0.017000
  1.363000,  0.021000
  1.365000,  0.025000
  1.367000,  0.028000
  1.369000,  0.032000
  1.371000,  0.036000
  1.373000,  0.040000
  1.375000,  0.043000
  1.377000,  0.047000
  1.379000,  0.050000
  1.381000,  0.054000
  1.383000,  0.057000
  1.385000,  0.060000
  1.387000,  0.063000
  1.389000,  0.065000
  1.391000,  0.068000
  1.393000,  0.070000
  1.395000,  0.071000
  1.397000,  0.072000
  1.399000,  0.073000
