# z (nm)   (kJ/mol)
  0.133000, 15.442000
  0.135000, 15.215000
  0.137000, 14.957000
  0.139000, 14.697000
  0.141000, 14.411000
  0.143000, 14.135000
  0.145000, 13.865000
  0.147000, 13.564000
  0.149000, 13.238000
  0.151000, 12.904000
  0.153000, 12.555000
  0.155000, 12.194000
  0.157000, 11.829000
  0.159000, 11.460000
  0.161000, 11.081000
  0.163000, 10.705000
  0.165000, 10.319000
  0.167000,  9.914000
  0.169000,  9.503000
  0.171000,  9.086000
  0.173000,  8.661000
  0.175000,  8.230000
  0.177000,  7.794000
  0.179000,  7.351000
  0.181000,  6.902000
  0.183000,  6.450000
  0.185000,  5.994000
  0.187000,  5.540000
  0.189000,  5.093000
  0.191000,  4.647000
  0.193000,  4.195000
  0.195000,  3.748000
  0.197000,  3.300000
  0.199000,  2.845000
  0.201000,  2.400000
  0.203000,  1.968000
  0.205000,  1.539000
  0.207000,  1.110000
  0.209000,  0.689000
  0.211000,  0.283000
  0.213000, -0.118000
  0.215000, -0.518000
  0.217000, -0.911000
  0.219000, -1.294000
  0.221000, -1.664000
  0.223000, -2.025000
  0.225000, -2.372000
  0.227000, -2.709000
  0.229000, -3.036000
  0.231000, -3.354000
  0.233000, -3.660000
  0.235000, -3.952000
  0.237000, -4.231000
  0.239000, -4.500000
  0.241000, -4.758000
  0.243000, -5.005000
  0.245000, -5.239000
  0.247000, -5.461000
  0.249000, -5.670000
  0.251000, -5.866000
  0.253000, -6.051000
  0.255000, -6.223000
  0.257000, -6.384000
  0.259000, -6.532000
  0.261000, -6.668000
  0.263000, -6.792000
  0.265000, -6.905000
  0.267000, -7.005000
  0.269000, -7.094000
  0.271000, -7.173000
  0.273000, -7.240000
  0.275000, -7.297000
  0.277000, -7.343000
  0.279000, -7.379000
  0.281000, -7.405000
  0.283000, -7.421000
  0.285000, -7.428000
  0.287000, -7.426000
  0.289000, -7.417000
  0.291000, -7.400000
  0.293000, -7.376000
  0.295000, -7.346000
  0.297000, -7.308000
  0.299000, -7.264000
  0.301000, -7.213000
  0.303000, -7.156000
  0.305000, -7.095000
  0.307000, -7.030000
  0.309000, -6.959000
  0.311000, -6.885000
  0.313000, -6.807000
  0.315000, -6.727000
  0.317000, -6.642000
  0.319000, -6.556000
  0.321000, -6.467000
  0.323000, -6.376000
  0.325000, -6.284000
  0.327000, -6.189000
  0.329000, -6.093000
  0.331000, -5.994000
  0.333000, -5.895000
  0.335000, -5.795000
  0.337000, -5.694000
  0.339000, -5.592000
  0.341000, -5.490000
  0.343000, -5.387000
  0.345000, -5.283000
  0.347000, -5.180000
  0.349000, -5.077000
  0.351000, -4.973000
  0.353000, -4.870000
  0.355000, -4.766000
  0.357000, -4.663000
  0.359000, -4.560000
  0.361000, -4.457000
  0.363000, -4.355000
  0.365000, -4.253000
  0.367000, -4.151000
  0.369000, -4.050000
  0.371000, -3.950000
  0.373000, -3.850000
  0.375000, -3.751000
  0.377000, -3.654000
  0.379000, -3.557000
  0.381000, -3.461000
  0.383000, -3.366000
  0.385000, -3.273000
  0.387000, -3.180000
  0.389000, -3.089000
  0.391000, -3.000000
  0.393000, -2.912000
  0.395000, -2.826000
  0.397000, -2.741000
  0.399000, -2.659000
  0.401000, -2.578000
  0.403000, -2.499000
  0.405000, -2.423000
  0.407000, -2.348000
  0.409000, -2.275000
  0.411000, -2.204000
  0.413000, -2.136000
  0.415000, -2.071000
  0.417000, -2.007000
  0.419000, -1.946000
  0.421000, -1.887000
  0.423000, -1.831000
  0.425000, -1.778000
  0.427000, -1.728000
  0.429000, -1.680000
  0.431000, -1.634000
  0.433000, -1.591000
  0.435000, -1.550000
  0.437000, -1.512000
  0.439000, -1.476000
  0.441000, -1.443000
  0.443000, -1.412000
  0.445000, -1.383000
  0.447000, -1.357000
  0.449000, -1.333000
  0.451000, -1.312000
  0.453000, -1.292000
  0.455000, -1.274000
  0.457000, -1.259000
  0.459000, -1.245000
  0.461000, -1.234000
  0.463000, -1.224000
  0.465000, -1.216000
  0.467000, -1.210000
  0.469000, -1.205000
  0.471000, -1.202000
  0.473000, -1.201000
  0.475000, -1.201000
  0.477000, -1.202000
  0.479000, -1.205000
  0.481000, -1.208000
  0.483000, -1.213000
  0.485000, -1.218000
  0.487000, -1.224000
  0.489000, -1.231000
  0.491000, -1.238000
  0.493000, -1.247000
  0.495000, -1.256000
  0.497000, -1.265000
  0.499000, -1.275000
  0.501000, -1.285000
  0.503000, -1.296000
  0.505000, -1.307000
  0.507000, -1.319000
  0.509000, -1.330000
  0.511000, -1.342000
  0.513000, -1.353000
  0.515000, -1.365000
  0.517000, -1.376000
  0.519000, -1.387000
  0.521000, -1.398000
  0.523000, -1.409000
  0.525000, -1.420000
  0.527000, -1.431000
  0.529000, -1.441000
  0.531000, -1.450000
  0.533000, -1.460000
  0.535000, -1.469000
  0.537000, -1.477000
  0.539000, -1.485000
  0.541000, -1.493000
  0.543000, -1.500000
  0.545000, -1.506000
  0.547000, -1.512000
  0.549000, -1.518000
  0.551000, -1.523000
  0.553000, -1.527000
  0.555000, -1.531000
  0.557000, -1.535000
  0.559000, -1.537000
  0.561000, -1.540000
  0.563000, -1.541000
  0.565000, -1.542000
  0.567000, -1.542000
  0.569000, -1.542000
  0.571000, -1.541000
  0.573000, -1.539000
  0.575000, -1.537000
  0.577000, -1.535000
  0.579000, -1.531000
  0.581000, -1.527000
  0.583000, -1.523000
  0.585000, -1.518000
  0.587000, -1.513000
  0.589000, -1.507000
  0.591000, -1.500000
  0.593000, -1.493000
  0.595000, -1.486000
  0.597000, -1.478000
  0.599000, -1.469000
  0.601000, -1.461000
  0.603000, -1.452000
  0.605000, -1.442000
  0.607000, -1.432000
  0.609000, -1.421000
  0.611000, -1.411000
  0.613000, -1.400000
  0.615000, -1.389000
  0.617000, -1.377000
  0.619000, -1.365000
  0.621000, -1.353000
  0.623000, -1.340000
  0.625000, -1.327000
  0.627000, -1.314000
  0.629000, -1.301000
  0.631000, -1.288000
  0.633000, -1.275000
  0.635000, -1.261000
  0.637000, -1.247000
  0.639000, -1.233000
  0.641000, -1.219000
  0.643000, -1.206000
  0.645000, -1.191000
  0.647000, -1.177000
  0.649000, -1.163000
  0.651000, -1.148000
  0.653000, -1.134000
  0.655000, -1.119000
  0.657000, -1.105000
  0.659000, -1.091000
  0.661000, -1.076000
  0.663000, -1.062000
  0.665000, -1.048000
  0.667000, -1.033000
  0.669000, -1.020000
  0.671000, -1.006000
  0.673000, -0.992000
  0.675000, -0.978000
  0.677000, -0.965000
  0.679000, -0.951000
  0.681000, -0.938000
  0.683000, -0.925000
  0.685000, -0.912000
  0.687000, -0.899000
  0.689000, -0.887000
  0.691000, -0.874000
  0.693000, -0.862000
  0.695000, -0.851000
  0.697000, -0.839000
  0.699000, -0.828000
  0.701000, -0.817000
  0.703000, -0.806000
  0.705000, -0.795000
  0.707000, -0.785000
  0.709000, -0.775000
  0.711000, -0.765000
  0.713000, -0.756000
  0.715000, -0.747000
  0.717000, -0.738000
  0.719000, -0.729000
  0.721000, -0.720000
  0.723000, -0.712000
  0.725000, -0.705000
  0.727000, -0.697000
  0.729000, -0.690000
  0.731000, -0.683000
  0.733000, -0.676000
  0.735000, -0.670000
  0.737000, -0.664000
  0.739000, -0.657000
  0.741000, -0.652000
  0.743000, -0.646000
  0.745000, -0.641000
  0.747000, -0.636000
  0.749000, -0.631000
  0.751000, -0.626000
  0.753000, -0.621000
  0.755000, -0.617000
  0.757000, -0.612000
  0.759000, -0.608000
  0.761000, -0.604000
  0.763000, -0.600000
  0.765000, -0.596000
  0.767000, -0.593000
  0.769000, -0.589000
  0.771000, -0.585000
  0.773000, -0.582000
  0.775000, -0.579000
  0.777000, -0.575000
  0.779000, -0.572000
  0.781000, -0.569000
  0.783000, -0.565000
  0.785000, -0.562000
  0.787000, -0.559000
  0.789000, -0.556000
  0.791000, -0.553000
  0.793000, -0.550000
  0.795000, -0.548000
  0.797000, -0.545000
  0.799000, -0.542000
  0.801000, -0.539000
  0.803000, -0.536000
  0.805000, -0.534000
  0.807000, -0.531000
  0.809000, -0.528000
  0.811000, -0.526000
  0.813000, -0.523000
  0.815000, -0.521000
  0.817000, -0.518000
  0.819000, -0.516000
  0.821000, -0.513000
  0.823000, -0.511000
  0.825000, -0.508000
  0.827000, -0.506000
  0.829000, -0.504000
  0.831000, -0.502000
  0.833000, -0.500000
  0.835000, -0.498000
  0.837000, -0.496000
  0.839000, -0.494000
  0.841000, -0.492000
  0.843000, -0.490000
  0.845000, -0.488000
  0.847000, -0.487000
  0.849000, -0.485000
  0.851000, -0.484000
  0.853000, -0.482000
  0.855000, -0.481000
  0.857000, -0.480000
  0.859000, -0.479000
  0.861000, -0.477000
  0.863000, -0.476000
  0.865000, -0.475000
  0.867000, -0.474000
  0.869000, -0.473000
  0.871000, -0.472000
  0.873000, -0.471000
  0.875000, -0.471000
  0.877000, -0.470000
  0.879000, -0.469000
  0.881000, -0.468000
  0.883000, -0.468000
  0.885000, -0.467000
  0.887000, -0.466000
  0.889000, -0.466000
  0.891000, -0.465000
  0.893000, -0.465000
  0.895000, -0.464000
  0.897000, -0.464000
  0.899000, -0.463000
  0.901000, -0.463000
  0.903000, -0.463000
  0.905000, -0.462000
  0.907000, -0.462000
  0.909000, -0.462000
  0.911000, -0.461000
  0.913000, -0.461000
  0.915000, -0.461000
  0.917000, -0.460000
  0.919000, -0.460000
  0.921000, -0.460000
  0.923000, -0.459000
  0.925000, -0.459000
  0.927000, -0.459000
  0.929000, -0.458000
  0.931000, -0.457000
  0.933000, -0.457000
  0.935000, -0.456000
  0.937000, -0.456000
  0.939000, -0.455000
  0.941000, -0.454000
  0.943000, -0.453000
  0.945000, -0.452000
  0.947000, -0.451000
  0.949000, -0.450000
  0.951000, -0.448000
  0.953000, -0.447000
  0.955000, -0.446000
  0.957000, -0.444000
  0.959000, -0.442000
  0.961000, -0.440000
  0.963000, -0.438000
  0.965000, -0.436000
  0.967000, -0.434000
  0.969000, -0.431000
  0.971000, -0.429000
  0.973000, -0.426000
  0.975000, -0.423000
  0.977000, -0.420000
  0.979000, -0.417000
  0.981000, -0.414000
  0.983000, -0.410000
  0.985000, -0.407000
  0.987000, -0.403000
  0.989000, -0.399000
  0.991000, -0.395000
  0.993000, -0.391000
  0.995000, -0.386000
  0.997000, -0.382000
  0.999000, -0.377000
  1.001000, -0.372000
  1.003000, -0.368000
  1.005000, -0.362000
  1.007000, -0.357000
  1.009000, -0.352000
  1.011000, -0.347000
  1.013000, -0.341000
  1.015000, -0.336000
  1.017000, -0.330000
  1.019000, -0.325000
  1.021000, -0.319000
  1.023000, -0.313000
  1.025000, -0.308000
  1.027000, -0.302000
  1.029000, -0.296000
  1.031000, -0.290000
  1.033000, -0.285000
  1.035000, -0.279000
  1.037000, -0.273000
  1.039000, -0.268000
  1.041000, -0.262000
  1.043000, -0.256000
  1.045000, -0.251000
  1.047000, -0.245000
  1.049000, -0.240000
  1.051000, -0.235000
  1.053000, -0.230000
  1.055000, -0.225000
  1.057000, -0.220000
  1.059000, -0.215000
  1.061000, -0.210000
  1.063000, -0.205000
  1.065000, -0.201000
  1.067000, -0.196000
  1.069000, -0.192000
  1.071000, -0.188000
  1.073000, -0.184000
  1.075000, -0.180000
  1.077000, -0.176000
  1.079000, -0.173000
  1.081000, -0.169000
  1.083000, -0.166000
  1.085000, -0.163000
  1.087000, -0.159000
  1.089000, -0.156000
  1.091000, -0.154000
  1.093000, -0.151000
  1.095000, -0.148000
  1.097000, -0.146000
  1.099000, -0.143000
  1.101000, -0.141000
  1.103000, -0.139000
  1.105000, -0.137000
  1.107000, -0.135000
  1.109000, -0.133000
  1.111000, -0.131000
  1.113000, -0.129000
  1.115000, -0.128000
  1.117000, -0.126000
  1.119000, -0.125000
  1.121000, -0.124000
  1.123000, -0.122000
  1.125000, -0.121000
  1.127000, -0.120000
  1.129000, -0.119000
  1.131000, -0.118000
  1.133000, -0.117000
  1.135000, -0.116000
  1.137000, -0.115000
  1.139000, -0.114000
  1.141000, -0.113000
  1.143000, -0.112000
  1.145000, -0.111000
  1.147000, -0.111000
  1.149000, -0.110000
  1.151000, -0.110000
  1.153000, -0.109000
  1.155000, -0.108000
  1.157000, -0.108000
  1.159000, -0.107000
  1.161000, -0.107000
  1.163000, -0.106000
  1.165000, -0.106000
  1.167000, -0.105000
  1.169000, -0.105000
  1.171000, -0.105000
  1.173000, -0.104000
  1.175000, -0.103000
  1.177000, -0.103000
  1.179000, -0.102000
  1.181000, -0.102000
  1.183000, -0.101000
  1.185000, -0.100000
  1.187000, -0.100000
  1.189000, -0.099000
  1.191000, -0.098000
  1.193000, -0.097000
  1.195000, -0.096000
  1.197000, -0.095000
  1.199000, -0.094000
  1.201000, -0.093000
  1.203000, -0.092000
  1.205000, -0.090000
  1.207000, -0.089000
  1.209000, -0.088000
  1.211000, -0.086000
  1.213000, -0.085000
  1.215000, -0.083000
  1.217000, -0.082000
  1.219000, -0.080000
  1.221000, -0.078000
  1.223000, -0.076000
  1.225000, -0.074000
  1.227000, -0.072000
  1.229000, -0.070000
  1.231000, -0.068000
  1.233000, -0.066000
  1.235000, -0.063000
  1.237000, -0.061000
  1.239000, -0.059000
  1.241000, -0.056000
  1.243000, -0.054000
  1.245000, -0.052000
  1.247000, -0.049000
  1.249000, -0.047000
  1.251000, -0.044000
  1.253000, -0.042000
  1.255000, -0.039000
  1.257000, -0.037000
  1.259000, -0.034000
  1.261000, -0.032000
  1.263000, -0.029000
  1.265000, -0.027000
  1.267000, -0.025000
  1.269000, -0.023000
  1.271000, -0.021000
  1.273000, -0.018000
  1.275000, -0.016000
  1.277000, -0.014000
  1.279000, -0.012000
  1.281000, -0.010000
  1.283000, -0.008000
  1.285000, -0.006000
  1.287000, -0.005000
  1.289000, -0.003000
  1.291000, -0.002000
  1.293000,  0.000000
  1.295000,  0.001000
  1.297000,  0.002000
  1.299000,  0.004000
  1.301000,  0.005000
  1.303000,  0.006000
  1.305000,  0.007000
  1.307000,  0.008000
  1.309000,  0.009000
  1.311000,  0.010000
  1.313000,  0.012000
  1.315000,  0.013000
  1.317000,  0.014000
  1.319000,  0.015000
  1.321000,  0.016000
  1.323000,  0.017000
  1.325000,  0.018000
  1.327000,  0.019000
  1.329000,  0.020000
  1.331000,  0.022000
  1.333000,  0.023000
  1.335000,  0.025000
  1.337000,  0.026000
  1.339000,  0.028000
  1.341000,  0.030000
  1.343000,  0.032000
  1.345000,  0.034000
  1.347000,  0.037000
  1.349000,  0.039000
  1.351000,  0.041000
  1.353000,  0.044000
  1.355000,  0.046000
  1.357000,  0.049000
  1.359000,  0.052000
  1.361000,  0.055000
  1.363000,  0.058000
  1.365000,  0.061000
  1.367000,  0.064000
  1.369000,  0.067000
  1.371000,  0.070000
  1.373000,  0.073000
  1.375000,  0.076000
  1.377000,  0.079000
  1.379000,  0.082000
  1.381000,  0.085000
  1.383000,  0.088000
  1.385000,  0.090000
  1.387000,  0.093000
  1.389000,  0.095000
  1.391000,  0.097000
  1.393000,  0.099000
  1.395000,  0.101000
  1.397000,  0.101000
  1.399000,  0.102000
