# z (nm)   (kJ/mol)
  0.183000, -8.691000
  0.185000, -9.415000
  0.187000,-10.100000
  0.189000,-10.812000
  0.191000,-11.552000
  0.193000,-12.252000
  0.195000,-12.960000
  0.197000,-13.709000
  0.199000,-14.490000
  0.201000,-15.289000
  0.203000,-16.087000
  0.205000,-16.886000
  0.207000,-17.692000
  0.209000,-18.491000
  0.211000,-19.273000
  0.213000,-20.046000
  0.215000,-20.802000
  0.217000,-21.531000
  0.219000,-22.238000
  0.221000,-22.924000
  0.223000,-23.584000
  0.225000,-24.220000
  0.227000,-24.829000
  0.229000,-25.410000
  0.231000,-25.964000
  0.233000,-26.489000
  0.235000,-26.985000
  0.237000,-27.451000
  0.239000,-27.886000
  0.241000,-28.291000
  0.243000,-28.669000
  0.245000,-29.017000
  0.247000,-29.334000
  0.249000,-29.621000
  0.251000,-29.882000
  0.253000,-30.118000
  0.255000,-30.328000
  0.257000,-30.509000
  0.259000,-30.667000
  0.261000,-30.804000
  0.263000,-30.917000
  0.265000,-31.006000
  0.267000,-31.071000
  0.269000,-31.114000
  0.271000,-31.137000
  0.273000,-31.142000
  0.275000,-31.133000
  0.277000,-31.108000
  0.279000,-31.071000
  0.281000,-31.016000
  0.283000,-30.945000
  0.285000,-30.859000
  0.287000,-30.757000
  0.289000,-30.645000
  0.291000,-30.521000
  0.293000,-30.385000
  0.295000,-30.243000
  0.297000,-30.095000
  0.299000,-29.940000
  0.301000,-29.777000
  0.303000,-29.608000
  0.305000,-29.437000
  0.307000,-29.262000
  0.309000,-29.082000
  0.311000,-28.898000
  0.313000,-28.710000
  0.315000,-28.522000
  0.317000,-28.332000
  0.319000,-28.137000
  0.321000,-27.942000
  0.323000,-27.748000
  0.325000,-27.552000
  0.327000,-27.355000
  0.329000,-27.159000
  0.331000,-26.962000
  0.333000,-26.764000
  0.335000,-26.566000
  0.337000,-26.369000
  0.339000,-26.172000
  0.341000,-25.974000
  0.343000,-25.774000
  0.345000,-25.574000
  0.347000,-25.373000
  0.349000,-25.172000
  0.351000,-24.973000
  0.353000,-24.772000
  0.355000,-24.569000
  0.357000,-24.365000
  0.359000,-24.160000
  0.361000,-23.954000
  0.363000,-23.747000
  0.365000,-23.537000
  0.367000,-23.325000
  0.369000,-23.113000
  0.371000,-22.899000
  0.373000,-22.682000
  0.375000,-22.462000
  0.377000,-22.241000
  0.379000,-22.018000
  0.381000,-21.791000
  0.383000,-21.563000
  0.385000,-21.333000
  0.387000,-21.101000
  0.389000,-20.866000
  0.391000,-20.630000
  0.393000,-20.392000
  0.395000,-20.151000
  0.397000,-19.908000
  0.399000,-19.664000
  0.401000,-19.418000
  0.403000,-19.171000
  0.405000,-18.922000
  0.407000,-18.673000
  0.409000,-18.423000
  0.411000,-18.172000
  0.413000,-17.921000
  0.415000,-17.668000
  0.417000,-17.416000
  0.419000,-17.164000
  0.421000,-16.912000
  0.423000,-16.660000
  0.425000,-16.408000
  0.427000,-16.157000
  0.429000,-15.907000
  0.431000,-15.657000
  0.433000,-15.408000
  0.435000,-15.161000
  0.437000,-14.915000
  0.439000,-14.670000
  0.441000,-14.427000
  0.443000,-14.184000
  0.445000,-13.944000
  0.447000,-13.706000
  0.449000,-13.469000
  0.451000,-13.236000
  0.453000,-13.005000
  0.455000,-12.775000
  0.457000,-12.548000
  0.459000,-12.323000
  0.461000,-12.100000
  0.463000,-11.881000
  0.465000,-11.664000
  0.467000,-11.449000
  0.469000,-11.237000
  0.471000,-11.029000
  0.473000,-10.823000
  0.475000,-10.620000
  0.477000,-10.421000
  0.479000,-10.226000
  0.481000,-10.033000
  0.483000, -9.843000
  0.485000, -9.657000
  0.487000, -9.473000
  0.489000, -9.294000
  0.491000, -9.117000
  0.493000, -8.943000
  0.495000, -8.772000
  0.497000, -8.606000
  0.499000, -8.443000
  0.501000, -8.284000
  0.503000, -8.127000
  0.505000, -7.974000
  0.507000, -7.825000
  0.509000, -7.679000
  0.511000, -7.536000
  0.513000, -7.397000
  0.515000, -7.261000
  0.517000, -7.127000
  0.519000, -6.997000
  0.521000, -6.870000
  0.523000, -6.748000
  0.525000, -6.628000
  0.527000, -6.512000
  0.529000, -6.398000
  0.531000, -6.288000
  0.533000, -6.182000
  0.535000, -6.078000
  0.537000, -5.977000
  0.539000, -5.879000
  0.541000, -5.785000
  0.543000, -5.693000
  0.545000, -5.604000
  0.547000, -5.518000
  0.549000, -5.436000
  0.551000, -5.357000
  0.553000, -5.279000
  0.555000, -5.204000
  0.557000, -5.133000
  0.559000, -5.063000
  0.561000, -4.997000
  0.563000, -4.933000
  0.565000, -4.872000
  0.567000, -4.813000
  0.569000, -4.756000
  0.571000, -4.701000
  0.573000, -4.649000
  0.575000, -4.599000
  0.577000, -4.550000
  0.579000, -4.504000
  0.581000, -4.459000
  0.583000, -4.416000
  0.585000, -4.375000
  0.587000, -4.335000
  0.589000, -4.298000
  0.591000, -4.261000
  0.593000, -4.227000
  0.595000, -4.194000
  0.597000, -4.162000
  0.599000, -4.131000
  0.601000, -4.102000
  0.603000, -4.074000
  0.605000, -4.047000
  0.607000, -4.021000
  0.609000, -3.996000
  0.611000, -3.971000
  0.613000, -3.948000
  0.615000, -3.926000
  0.617000, -3.904000
  0.619000, -3.883000
  0.621000, -3.862000
  0.623000, -3.842000
  0.625000, -3.823000
  0.627000, -3.804000
  0.629000, -3.786000
  0.631000, -3.768000
  0.633000, -3.751000
  0.635000, -3.734000
  0.637000, -3.717000
  0.639000, -3.700000
  0.641000, -3.683000
  0.643000, -3.667000
  0.645000, -3.650000
  0.647000, -3.634000
  0.649000, -3.618000
  0.651000, -3.602000
  0.653000, -3.585000
  0.655000, -3.569000
  0.657000, -3.553000
  0.659000, -3.537000
  0.661000, -3.520000
  0.663000, -3.503000
  0.665000, -3.486000
  0.667000, -3.469000
  0.669000, -3.452000
  0.671000, -3.435000
  0.673000, -3.417000
  0.675000, -3.399000
  0.677000, -3.380000
  0.679000, -3.362000
  0.681000, -3.343000
  0.683000, -3.323000
  0.685000, -3.303000
  0.687000, -3.283000
  0.689000, -3.262000
  0.691000, -3.241000
  0.693000, -3.220000
  0.695000, -3.197000
  0.697000, -3.175000
  0.699000, -3.152000
  0.701000, -3.128000
  0.703000, -3.104000
  0.705000, -3.079000
  0.707000, -3.053000
  0.709000, -3.027000
  0.711000, -3.001000
  0.713000, -2.974000
  0.715000, -2.947000
  0.717000, -2.919000
  0.719000, -2.891000
  0.721000, -2.862000
  0.723000, -2.832000
  0.725000, -2.802000
  0.727000, -2.771000
  0.729000, -2.740000
  0.731000, -2.708000
  0.733000, -2.676000
  0.735000, -2.644000
  0.737000, -2.611000
  0.739000, -2.578000
  0.741000, -2.544000
  0.743000, -2.511000
  0.745000, -2.477000
  0.747000, -2.443000
  0.749000, -2.409000
  0.751000, -2.375000
  0.753000, -2.340000
  0.755000, -2.305000
  0.757000, -2.270000
  0.759000, -2.235000
  0.761000, -2.200000
  0.763000, -2.165000
  0.765000, -2.130000
  0.767000, -2.095000
  0.769000, -2.061000
  0.771000, -2.027000
  0.773000, -1.993000
  0.775000, -1.959000
  0.777000, -1.926000
  0.779000, -1.894000
  0.781000, -1.861000
  0.783000, -1.829000
  0.785000, -1.798000
  0.787000, -1.768000
  0.789000, -1.738000
  0.791000, -1.708000
  0.793000, -1.678000
  0.795000, -1.649000
  0.797000, -1.620000
  0.799000, -1.591000
  0.801000, -1.563000
  0.803000, -1.537000
  0.805000, -1.510000
  0.807000, -1.485000
  0.809000, -1.460000
  0.811000, -1.436000
  0.813000, -1.412000
  0.815000, -1.390000
  0.817000, -1.368000
  0.819000, -1.346000
  0.821000, -1.325000
  0.823000, -1.305000
  0.825000, -1.286000
  0.827000, -1.267000
  0.829000, -1.249000
  0.831000, -1.232000
  0.833000, -1.215000
  0.835000, -1.199000
  0.837000, -1.184000
  0.839000, -1.169000
  0.841000, -1.154000
  0.843000, -1.140000
  0.845000, -1.127000
  0.847000, -1.115000
  0.849000, -1.103000
  0.851000, -1.091000
  0.853000, -1.080000
  0.855000, -1.069000
  0.857000, -1.059000
  0.859000, -1.049000
  0.861000, -1.039000
  0.863000, -1.030000
  0.865000, -1.020000
  0.867000, -1.011000
  0.869000, -1.003000
  0.871000, -0.995000
  0.873000, -0.987000
  0.875000, -0.979000
  0.877000, -0.971000
  0.879000, -0.964000
  0.881000, -0.957000
  0.883000, -0.950000
  0.885000, -0.943000
  0.887000, -0.936000
  0.889000, -0.929000
  0.891000, -0.923000
  0.893000, -0.916000
  0.895000, -0.910000
  0.897000, -0.903000
  0.899000, -0.897000
  0.901000, -0.891000
  0.903000, -0.885000
  0.905000, -0.878000
  0.907000, -0.872000
  0.909000, -0.866000
  0.911000, -0.859000
  0.913000, -0.853000
  0.915000, -0.847000
  0.917000, -0.841000
  0.919000, -0.835000
  0.921000, -0.829000
  0.923000, -0.823000
  0.925000, -0.817000
  0.927000, -0.811000
  0.929000, -0.805000
  0.931000, -0.799000
  0.933000, -0.793000
  0.935000, -0.787000
  0.937000, -0.781000
  0.939000, -0.775000
  0.941000, -0.769000
  0.943000, -0.763000
  0.945000, -0.757000
  0.947000, -0.752000
  0.949000, -0.746000
  0.951000, -0.740000
  0.953000, -0.734000
  0.955000, -0.729000
  0.957000, -0.723000
  0.959000, -0.717000
  0.961000, -0.712000
  0.963000, -0.706000
  0.965000, -0.700000
  0.967000, -0.694000
  0.969000, -0.688000
  0.971000, -0.683000
  0.973000, -0.677000
  0.975000, -0.671000
  0.977000, -0.665000
  0.979000, -0.660000
  0.981000, -0.654000
  0.983000, -0.648000
  0.985000, -0.642000
  0.987000, -0.636000
  0.989000, -0.631000
  0.991000, -0.625000
  0.993000, -0.619000
  0.995000, -0.612000
  0.997000, -0.606000
  0.999000, -0.600000
  1.001000, -0.594000
  1.003000, -0.587000
  1.005000, -0.581000
  1.007000, -0.575000
  1.009000, -0.568000
  1.011000, -0.561000
  1.013000, -0.555000
  1.015000, -0.548000
  1.017000, -0.541000
  1.019000, -0.535000
  1.021000, -0.528000
  1.023000, -0.521000
  1.025000, -0.514000
  1.027000, -0.507000
  1.029000, -0.500000
  1.031000, -0.493000
  1.033000, -0.486000
  1.035000, -0.478000
  1.037000, -0.471000
  1.039000, -0.464000
  1.041000, -0.457000
  1.043000, -0.449000
  1.045000, -0.441000
  1.047000, -0.434000
  1.049000, -0.426000
  1.051000, -0.419000
  1.053000, -0.411000
  1.055000, -0.403000
  1.057000, -0.395000
  1.059000, -0.387000
  1.061000, -0.380000
  1.063000, -0.372000
  1.065000, -0.364000
  1.067000, -0.356000
  1.069000, -0.348000
  1.071000, -0.340000
  1.073000, -0.332000
  1.075000, -0.324000
  1.077000, -0.316000
  1.079000, -0.308000
  1.081000, -0.300000
  1.083000, -0.292000
  1.085000, -0.285000
  1.087000, -0.277000
  1.089000, -0.269000
  1.091000, -0.261000
  1.093000, -0.254000
  1.095000, -0.247000
  1.097000, -0.239000
  1.099000, -0.232000
  1.101000, -0.225000
  1.103000, -0.218000
  1.105000, -0.211000
  1.107000, -0.204000
  1.109000, -0.197000
  1.111000, -0.190000
  1.113000, -0.184000
  1.115000, -0.177000
  1.117000, -0.171000
  1.119000, -0.165000
  1.121000, -0.159000
  1.123000, -0.153000
  1.125000, -0.147000
  1.127000, -0.142000
  1.129000, -0.137000
  1.131000, -0.131000
  1.133000, -0.126000
  1.135000, -0.121000
  1.137000, -0.116000
  1.139000, -0.111000
  1.141000, -0.106000
  1.143000, -0.102000
  1.145000, -0.097000
  1.147000, -0.093000
  1.149000, -0.089000
  1.151000, -0.085000
  1.153000, -0.081000
  1.155000, -0.077000
  1.157000, -0.074000
  1.159000, -0.070000
  1.161000, -0.067000
  1.163000, -0.063000
  1.165000, -0.060000
  1.167000, -0.057000
  1.169000, -0.053000
  1.171000, -0.050000
  1.173000, -0.047000
  1.175000, -0.044000
  1.177000, -0.041000
  1.179000, -0.038000
  1.181000, -0.035000
  1.183000, -0.032000
  1.185000, -0.030000
  1.187000, -0.027000
  1.189000, -0.025000
  1.191000, -0.022000
  1.193000, -0.020000
  1.195000, -0.018000
  1.197000, -0.016000
  1.199000, -0.013000
  1.201000, -0.011000
  1.203000, -0.009000
  1.205000, -0.007000
  1.207000, -0.006000
  1.209000, -0.004000
  1.211000, -0.003000
  1.213000, -0.001000
  1.215000,  0.000000
  1.217000,  0.001000
  1.219000,  0.003000
  1.221000,  0.004000
  1.223000,  0.005000
  1.225000,  0.006000
  1.227000,  0.007000
  1.229000,  0.007000
  1.231000,  0.008000
  1.233000,  0.008000
  1.235000,  0.008000
  1.237000,  0.008000
  1.239000,  0.008000
  1.241000,  0.008000
  1.243000,  0.007000
  1.245000,  0.007000
  1.247000,  0.006000
  1.249000,  0.006000
  1.251000,  0.005000
  1.253000,  0.004000
  1.255000,  0.003000
  1.257000,  0.002000
  1.259000,  0.001000
  1.261000,  0.000000
  1.263000, -0.002000
  1.265000, -0.003000
  1.267000, -0.004000
  1.269000, -0.005000
  1.271000, -0.007000
  1.273000, -0.008000
  1.275000, -0.010000
  1.277000, -0.011000
  1.279000, -0.012000
  1.281000, -0.013000
  1.283000, -0.015000
  1.285000, -0.016000
  1.287000, -0.017000
  1.289000, -0.018000
  1.291000, -0.019000
  1.293000, -0.019000
  1.295000, -0.020000
  1.297000, -0.021000
  1.299000, -0.021000
  1.301000, -0.022000
  1.303000, -0.022000
  1.305000, -0.022000
  1.307000, -0.022000
  1.309000, -0.022000
  1.311000, -0.022000
  1.313000, -0.021000
  1.315000, -0.021000
  1.317000, -0.020000
  1.319000, -0.020000
  1.321000, -0.019000
  1.323000, -0.018000
  1.325000, -0.017000
  1.327000, -0.016000
  1.329000, -0.015000
  1.331000, -0.014000
  1.333000, -0.012000
  1.335000, -0.011000
  1.337000, -0.010000
  1.339000, -0.008000
  1.341000, -0.006000
  1.343000, -0.005000
  1.345000, -0.003000
  1.347000, -0.001000
  1.349000,  0.001000
  1.351000,  0.003000
  1.353000,  0.005000
  1.355000,  0.007000
  1.357000,  0.009000
  1.359000,  0.010000
  1.361000,  0.012000
  1.363000,  0.014000
  1.365000,  0.016000
  1.367000,  0.018000
  1.369000,  0.020000
  1.371000,  0.021000
  1.373000,  0.023000
  1.375000,  0.024000
  1.377000,  0.026000
  1.379000,  0.027000
  1.381000,  0.028000
  1.383000,  0.030000
  1.385000,  0.031000
  1.387000,  0.032000
  1.389000,  0.032000
  1.391000,  0.033000
  1.393000,  0.033000
  1.395000,  0.033000
  1.397000,  0.032000
  1.399000,  0.032000
