# z (nm)   (kJ/mol)
  0.113000, -3.956000
  0.115000, -4.614000
  0.117000, -5.363000
  0.119000, -6.122000
  0.121000, -6.871000
  0.123000, -7.616000
  0.125000, -8.352000
  0.127000, -9.069000
  0.129000, -9.784000
  0.131000,-10.492000
  0.133000,-11.187000
  0.135000,-11.875000
  0.137000,-12.544000
  0.139000,-13.197000
  0.141000,-13.833000
  0.143000,-14.454000
  0.145000,-15.055000
  0.147000,-15.633000
  0.149000,-16.193000
  0.151000,-16.732000
  0.153000,-17.249000
  0.155000,-17.744000
  0.157000,-18.217000
  0.159000,-18.668000
  0.161000,-19.096000
  0.163000,-19.500000
  0.165000,-19.881000
  0.167000,-20.239000
  0.169000,-20.573000
  0.171000,-20.881000
  0.173000,-21.165000
  0.175000,-21.427000
  0.177000,-21.664000
  0.179000,-21.877000
  0.181000,-22.067000
  0.183000,-22.233000
  0.185000,-22.377000
  0.187000,-22.498000
  0.189000,-22.596000
  0.191000,-22.673000
  0.193000,-22.729000
  0.195000,-22.765000
  0.197000,-22.782000
  0.199000,-22.780000
  0.201000,-22.760000
  0.203000,-22.721000
  0.205000,-22.666000
  0.207000,-22.594000
  0.209000,-22.509000
  0.211000,-22.410000
  0.213000,-22.298000
  0.215000,-22.174000
  0.217000,-22.041000
  0.219000,-21.898000
  0.221000,-21.744000
  0.223000,-21.584000
  0.225000,-21.417000
  0.227000,-21.243000
  0.229000,-21.063000
  0.231000,-20.880000
  0.233000,-20.693000
  0.235000,-20.503000
  0.237000,-20.312000
  0.239000,-20.117000
  0.241000,-19.921000
  0.243000,-19.724000
  0.245000,-19.526000
  0.247000,-19.328000
  0.249000,-19.131000
  0.251000,-18.934000
  0.253000,-18.738000
  0.255000,-18.544000
  0.257000,-18.350000
  0.259000,-18.158000
  0.261000,-17.967000
  0.263000,-17.778000
  0.265000,-17.591000
  0.267000,-17.405000
  0.269000,-17.220000
  0.271000,-17.038000
  0.273000,-16.857000
  0.275000,-16.678000
  0.277000,-16.499000
  0.279000,-16.322000
  0.281000,-16.146000
  0.283000,-15.972000
  0.285000,-15.800000
  0.287000,-15.628000
  0.289000,-15.457000
  0.291000,-15.286000
  0.293000,-15.116000
  0.295000,-14.947000
  0.297000,-14.778000
  0.299000,-14.610000
  0.301000,-14.443000
  0.303000,-14.275000
  0.305000,-14.108000
  0.307000,-13.942000
  0.309000,-13.775000
  0.311000,-13.608000
  0.313000,-13.441000
  0.315000,-13.275000
  0.317000,-13.108000
  0.319000,-12.942000
  0.321000,-12.776000
  0.323000,-12.609000
  0.325000,-12.444000
  0.327000,-12.278000
  0.329000,-12.112000
  0.331000,-11.946000
  0.333000,-11.781000
  0.335000,-11.617000
  0.337000,-11.453000
  0.339000,-11.289000
  0.341000,-11.125000
  0.343000,-10.962000
  0.345000,-10.800000
  0.347000,-10.638000
  0.349000,-10.477000
  0.351000,-10.317000
  0.353000,-10.157000
  0.355000, -9.998000
  0.357000, -9.840000
  0.359000, -9.683000
  0.361000, -9.526000
  0.363000, -9.370000
  0.365000, -9.215000
  0.367000, -9.061000
  0.369000, -8.907000
  0.371000, -8.754000
  0.373000, -8.602000
  0.375000, -8.451000
  0.377000, -8.301000
  0.379000, -8.151000
  0.381000, -8.002000
  0.383000, -7.854000
  0.385000, -7.707000
  0.387000, -7.561000
  0.389000, -7.415000
  0.391000, -7.271000
  0.393000, -7.127000
  0.395000, -6.983000
  0.397000, -6.841000
  0.399000, -6.699000
  0.401000, -6.558000
  0.403000, -6.418000
  0.405000, -6.278000
  0.407000, -6.140000
  0.409000, -6.002000
  0.411000, -5.865000
  0.413000, -5.730000
  0.415000, -5.595000
  0.417000, -5.461000
  0.419000, -5.329000
  0.421000, -5.198000
  0.423000, -5.067000
  0.425000, -4.939000
  0.427000, -4.811000
  0.429000, -4.684000
  0.431000, -4.559000
  0.433000, -4.434000
  0.435000, -4.311000
  0.437000, -4.189000
  0.439000, -4.070000
  0.441000, -3.951000
  0.443000, -3.835000
  0.445000, -3.721000
  0.447000, -3.608000
  0.449000, -3.498000
  0.451000, -3.389000
  0.453000, -3.283000
  0.455000, -3.180000
  0.457000, -3.078000
  0.459000, -2.978000
  0.461000, -2.881000
  0.463000, -2.787000
  0.465000, -2.695000
  0.467000, -2.606000
  0.469000, -2.520000
  0.471000, -2.437000
  0.473000, -2.357000
  0.475000, -2.280000
  0.477000, -2.205000
  0.479000, -2.134000
  0.481000, -2.067000
  0.483000, -2.002000
  0.485000, -1.940000
  0.487000, -1.881000
  0.489000, -1.825000
  0.491000, -1.773000
  0.493000, -1.723000
  0.495000, -1.677000
  0.497000, -1.633000
  0.499000, -1.593000
  0.501000, -1.556000
  0.503000, -1.523000
  0.505000, -1.491000
  0.507000, -1.463000
  0.509000, -1.438000
  0.511000, -1.416000
  0.513000, -1.395000
  0.515000, -1.378000
  0.517000, -1.363000
  0.519000, -1.351000
  0.521000, -1.341000
  0.523000, -1.333000
  0.525000, -1.328000
  0.527000, -1.324000
  0.529000, -1.323000
  0.531000, -1.323000
  0.533000, -1.326000
  0.535000, -1.330000
  0.537000, -1.336000
  0.539000, -1.342000
  0.541000, -1.351000
  0.543000, -1.360000
  0.545000, -1.371000
  0.547000, -1.382000
  0.549000, -1.394000
  0.551000, -1.407000
  0.553000, -1.421000
  0.555000, -1.436000
  0.557000, -1.450000
  0.559000, -1.465000
  0.561000, -1.481000
  0.563000, -1.496000
  0.565000, -1.511000
  0.567000, -1.526000
  0.569000, -1.541000
  0.571000, -1.556000
  0.573000, -1.571000
  0.575000, -1.586000
  0.577000, -1.599000
  0.579000, -1.613000
  0.581000, -1.626000
  0.583000, -1.638000
  0.585000, -1.650000
  0.587000, -1.661000
  0.589000, -1.672000
  0.591000, -1.681000
  0.593000, -1.690000
  0.595000, -1.698000
  0.597000, -1.706000
  0.599000, -1.713000
  0.601000, -1.718000
  0.603000, -1.723000
  0.605000, -1.727000
  0.607000, -1.731000
  0.609000, -1.733000
  0.611000, -1.735000
  0.613000, -1.736000
  0.615000, -1.735000
  0.617000, -1.734000
  0.619000, -1.732000
  0.621000, -1.730000
  0.623000, -1.726000
  0.625000, -1.722000
  0.627000, -1.718000
  0.629000, -1.712000
  0.631000, -1.706000
  0.633000, -1.699000
  0.635000, -1.691000
  0.637000, -1.683000
  0.639000, -1.674000
  0.641000, -1.665000
  0.643000, -1.655000
  0.645000, -1.644000
  0.647000, -1.633000
  0.649000, -1.622000
  0.651000, -1.610000
  0.653000, -1.597000
  0.655000, -1.584000
  0.657000, -1.570000
  0.659000, -1.556000
  0.661000, -1.542000
  0.663000, -1.528000
  0.665000, -1.513000
  0.667000, -1.497000
  0.669000, -1.482000
  0.671000, -1.466000
  0.673000, -1.449000
  0.675000, -1.433000
  0.677000, -1.416000
  0.679000, -1.399000
  0.681000, -1.382000
  0.683000, -1.365000
  0.685000, -1.347000
  0.687000, -1.329000
  0.689000, -1.311000
  0.691000, -1.293000
  0.693000, -1.274000
  0.695000, -1.255000
  0.697000, -1.237000
  0.699000, -1.218000
  0.701000, -1.199000
  0.703000, -1.179000
  0.705000, -1.160000
  0.707000, -1.141000
  0.709000, -1.121000
  0.711000, -1.102000
  0.713000, -1.083000
  0.715000, -1.063000
  0.717000, -1.043000
  0.719000, -1.024000
  0.721000, -1.004000
  0.723000, -0.985000
  0.725000, -0.966000
  0.727000, -0.946000
  0.729000, -0.927000
  0.731000, -0.908000
  0.733000, -0.889000
  0.735000, -0.870000
  0.737000, -0.852000
  0.739000, -0.833000
  0.741000, -0.815000
  0.743000, -0.798000
  0.745000, -0.780000
  0.747000, -0.763000
  0.749000, -0.746000
  0.751000, -0.729000
  0.753000, -0.713000
  0.755000, -0.697000
  0.757000, -0.681000
  0.759000, -0.666000
  0.761000, -0.651000
  0.763000, -0.637000
  0.765000, -0.623000
  0.767000, -0.609000
  0.769000, -0.597000
  0.771000, -0.584000
  0.773000, -0.572000
  0.775000, -0.560000
  0.777000, -0.549000
  0.779000, -0.538000
  0.781000, -0.528000
  0.783000, -0.518000
  0.785000, -0.508000
  0.787000, -0.499000
  0.789000, -0.491000
  0.791000, -0.482000
  0.793000, -0.475000
  0.795000, -0.468000
  0.797000, -0.461000
  0.799000, -0.454000
  0.801000, -0.448000
  0.803000, -0.443000
  0.805000, -0.438000
  0.807000, -0.433000
  0.809000, -0.428000
  0.811000, -0.425000
  0.813000, -0.421000
  0.815000, -0.418000
  0.817000, -0.415000
  0.819000, -0.412000
  0.821000, -0.410000
  0.823000, -0.408000
  0.825000, -0.406000
  0.827000, -0.405000
  0.829000, -0.403000
  0.831000, -0.403000
  0.833000, -0.402000
  0.835000, -0.402000
  0.837000, -0.402000
  0.839000, -0.403000
  0.841000, -0.403000
  0.843000, -0.404000
  0.845000, -0.405000
  0.847000, -0.405000
  0.849000, -0.406000
  0.851000, -0.407000
  0.853000, -0.409000
  0.855000, -0.410000
  0.857000, -0.412000
  0.859000, -0.413000
  0.861000, -0.415000
  0.863000, -0.417000
  0.865000, -0.419000
  0.867000, -0.421000
  0.869000, -0.423000
  0.871000, -0.425000
  0.873000, -0.428000
  0.875000, -0.430000
  0.877000, -0.432000
  0.879000, -0.435000
  0.881000, -0.437000
  0.883000, -0.439000
  0.885000, -0.441000
  0.887000, -0.444000
  0.889000, -0.446000
  0.891000, -0.449000
  0.893000, -0.451000
  0.895000, -0.453000
  0.897000, -0.456000
  0.899000, -0.458000
  0.901000, -0.460000
  0.903000, -0.462000
  0.905000, -0.464000
  0.907000, -0.466000
  0.909000, -0.468000
  0.911000, -0.469000
  0.913000, -0.471000
  0.915000, -0.473000
  0.917000, -0.474000
  0.919000, -0.476000
  0.921000, -0.477000
  0.923000, -0.478000
  0.925000, -0.480000
  0.927000, -0.481000
  0.929000, -0.481000
  0.931000, -0.482000
  0.933000, -0.483000
  0.935000, -0.483000
  0.937000, -0.484000
  0.939000, -0.484000
  0.941000, -0.484000
  0.943000, -0.484000
  0.945000, -0.484000
  0.947000, -0.484000
  0.949000, -0.484000
  0.951000, -0.483000
  0.953000, -0.483000
  0.955000, -0.482000
  0.957000, -0.481000
  0.959000, -0.481000
  0.961000, -0.480000
  0.963000, -0.479000
  0.965000, -0.478000
  0.967000, -0.476000
  0.969000, -0.475000
  0.971000, -0.473000
  0.973000, -0.472000
  0.975000, -0.470000
  0.977000, -0.468000
  0.979000, -0.466000
  0.981000, -0.464000
  0.983000, -0.462000
  0.985000, -0.460000
  0.987000, -0.458000
  0.989000, -0.455000
  0.991000, -0.453000
  0.993000, -0.450000
  0.995000, -0.448000
  0.997000, -0.445000
  0.999000, -0.442000
  1.001000, -0.439000
  1.003000, -0.436000
  1.005000, -0.433000
  1.007000, -0.430000
  1.009000, -0.426000
  1.011000, -0.423000
  1.013000, -0.420000
  1.015000, -0.416000
  1.017000, -0.412000
  1.019000, -0.408000
  1.021000, -0.404000
  1.023000, -0.399000
  1.025000, -0.395000
  1.027000, -0.391000
  1.029000, -0.386000
  1.031000, -0.382000
  1.033000, -0.377000
  1.035000, -0.372000
  1.037000, -0.367000
  1.039000, -0.363000
  1.041000, -0.358000
  1.043000, -0.352000
  1.045000, -0.347000
  1.047000, -0.342000
  1.049000, -0.336000
  1.051000, -0.331000
  1.053000, -0.325000
  1.055000, -0.320000
  1.057000, -0.314000
  1.059000, -0.309000
  1.061000, -0.303000
  1.063000, -0.297000
  1.065000, -0.291000
  1.067000, -0.285000
  1.069000, -0.280000
  1.071000, -0.274000
  1.073000, -0.268000
  1.075000, -0.262000
  1.077000, -0.257000
  1.079000, -0.251000
  1.081000, -0.245000
  1.083000, -0.239000
  1.085000, -0.233000
  1.087000, -0.228000
  1.089000, -0.222000
  1.091000, -0.216000
  1.093000, -0.211000
  1.095000, -0.206000
  1.097000, -0.200000
  1.099000, -0.195000
  1.101000, -0.190000
  1.103000, -0.185000
  1.105000, -0.180000
  1.107000, -0.175000
  1.109000, -0.170000
  1.111000, -0.165000
  1.113000, -0.161000
  1.115000, -0.156000
  1.117000, -0.152000
  1.119000, -0.148000
  1.121000, -0.143000
  1.123000, -0.139000
  1.125000, -0.135000
  1.127000, -0.131000
  1.129000, -0.127000
  1.131000, -0.123000
  1.133000, -0.120000
  1.135000, -0.116000
  1.137000, -0.113000
  1.139000, -0.109000
  1.141000, -0.106000
  1.143000, -0.103000
  1.145000, -0.100000
  1.147000, -0.097000
  1.149000, -0.094000
  1.151000, -0.091000
  1.153000, -0.088000
  1.155000, -0.086000
  1.157000, -0.083000
  1.159000, -0.081000
  1.161000, -0.078000
  1.163000, -0.076000
  1.165000, -0.074000
  1.167000, -0.072000
  1.169000, -0.070000
  1.171000, -0.068000
  1.173000, -0.066000
  1.175000, -0.064000
  1.177000, -0.062000
  1.179000, -0.061000
  1.181000, -0.059000
  1.183000, -0.058000
  1.185000, -0.057000
  1.187000, -0.055000
  1.189000, -0.054000
  1.191000, -0.053000
  1.193000, -0.052000
  1.195000, -0.051000
  1.197000, -0.050000
  1.199000, -0.049000
  1.201000, -0.048000
  1.203000, -0.047000
  1.205000, -0.047000
  1.207000, -0.046000
  1.209000, -0.046000
  1.211000, -0.045000
  1.213000, -0.045000
  1.215000, -0.045000
  1.217000, -0.044000
  1.219000, -0.044000
  1.221000, -0.044000
  1.223000, -0.044000
  1.225000, -0.044000
  1.227000, -0.044000
  1.229000, -0.044000
  1.231000, -0.044000
  1.233000, -0.045000
  1.235000, -0.045000
  1.237000, -0.045000
  1.239000, -0.045000
  1.241000, -0.046000
  1.243000, -0.046000
  1.245000, -0.046000
  1.247000, -0.047000
  1.249000, -0.047000
  1.251000, -0.047000
  1.253000, -0.047000
  1.255000, -0.047000
  1.257000, -0.047000
  1.259000, -0.047000
  1.261000, -0.047000
  1.263000, -0.047000
  1.265000, -0.047000
  1.267000, -0.047000
  1.269000, -0.047000
  1.271000, -0.046000
  1.273000, -0.045000
  1.275000, -0.045000
  1.277000, -0.044000
  1.279000, -0.044000
  1.281000, -0.043000
  1.283000, -0.042000
  1.285000, -0.040000
  1.287000, -0.039000
  1.289000, -0.037000
  1.291000, -0.036000
  1.293000, -0.034000
  1.295000, -0.032000
  1.297000, -0.030000
  1.299000, -0.028000
  1.301000, -0.026000
  1.303000, -0.023000
  1.305000, -0.021000
  1.307000, -0.018000
  1.309000, -0.015000
  1.311000, -0.012000
  1.313000, -0.009000
  1.315000, -0.006000
  1.317000, -0.003000
  1.319000,  0.001000
  1.321000,  0.004000
  1.323000,  0.008000
  1.325000,  0.011000
  1.327000,  0.015000
  1.329000,  0.019000
  1.331000,  0.022000
  1.333000,  0.026000
  1.335000,  0.029000
  1.337000,  0.032000
  1.339000,  0.036000
  1.341000,  0.040000
  1.343000,  0.043000
  1.345000,  0.046000
  1.347000,  0.050000
  1.349000,  0.053000
  1.351000,  0.056000
  1.353000,  0.059000
  1.355000,  0.062000
  1.357000,  0.065000
  1.359000,  0.068000
  1.361000,  0.070000
  1.363000,  0.073000
  1.365000,  0.075000
  1.367000,  0.077000
  1.369000,  0.079000
  1.371000,  0.081000
  1.373000,  0.082000
  1.375000,  0.084000
  1.377000,  0.085000
  1.379000,  0.086000
  1.381000,  0.087000
  1.383000,  0.087000
  1.385000,  0.087000
  1.387000,  0.087000
  1.389000,  0.087000
  1.391000,  0.086000
  1.393000,  0.085000
  1.395000,  0.083000
  1.397000,  0.082000
  1.399000,  0.079000
