# z (nm)   (kJ/mol)
  0.107000, -0.154000
  0.115000, -1.683000
  0.117000, -2.359000
  0.119000, -3.021000
  0.121000, -3.747000
  0.123000, -4.453000
  0.125000, -5.159000
  0.127000, -5.853000
  0.129000, -6.537000
  0.131000, -7.213000
  0.133000, -7.874000
  0.135000, -8.534000
  0.137000, -9.184000
  0.139000, -9.819000
  0.141000,-10.437000
  0.143000,-11.039000
  0.145000,-11.629000
  0.147000,-12.204000
  0.149000,-12.760000
  0.151000,-13.299000
  0.153000,-13.819000
  0.155000,-14.320000
  0.157000,-14.799000
  0.159000,-15.257000
  0.161000,-15.694000
  0.163000,-16.109000
  0.165000,-16.503000
  0.167000,-16.877000
  0.169000,-17.226000
  0.171000,-17.553000
  0.173000,-17.858000
  0.175000,-18.139000
  0.177000,-18.398000
  0.179000,-18.636000
  0.181000,-18.851000
  0.183000,-19.044000
  0.185000,-19.215000
  0.187000,-19.364000
  0.189000,-19.492000
  0.191000,-19.599000
  0.193000,-19.685000
  0.195000,-19.750000
  0.197000,-19.797000
  0.199000,-19.826000
  0.201000,-19.836000
  0.203000,-19.829000
  0.205000,-19.806000
  0.207000,-19.769000
  0.209000,-19.718000
  0.211000,-19.657000
  0.213000,-19.581000
  0.215000,-19.491000
  0.217000,-19.389000
  0.219000,-19.276000
  0.221000,-19.156000
  0.223000,-19.029000
  0.225000,-18.894000
  0.227000,-18.751000
  0.229000,-18.604000
  0.231000,-18.451000
  0.233000,-18.295000
  0.235000,-18.135000
  0.237000,-17.972000
  0.239000,-17.808000
  0.241000,-17.642000
  0.243000,-17.476000
  0.245000,-17.310000
  0.247000,-17.143000
  0.249000,-16.978000
  0.251000,-16.814000
  0.253000,-16.650000
  0.255000,-16.487000
  0.257000,-16.325000
  0.259000,-16.165000
  0.261000,-16.007000
  0.263000,-15.850000
  0.265000,-15.695000
  0.267000,-15.542000
  0.269000,-15.390000
  0.271000,-15.241000
  0.273000,-15.093000
  0.275000,-14.946000
  0.277000,-14.802000
  0.279000,-14.659000
  0.281000,-14.517000
  0.283000,-14.377000
  0.285000,-14.238000
  0.287000,-14.100000
  0.289000,-13.963000
  0.291000,-13.827000
  0.293000,-13.692000
  0.295000,-13.557000
  0.297000,-13.422000
  0.299000,-13.287000
  0.301000,-13.153000
  0.303000,-13.018000
  0.305000,-12.884000
  0.307000,-12.751000
  0.309000,-12.617000
  0.311000,-12.483000
  0.313000,-12.348000
  0.315000,-12.214000
  0.317000,-12.078000
  0.319000,-11.943000
  0.321000,-11.807000
  0.323000,-11.670000
  0.325000,-11.534000
  0.327000,-11.397000
  0.329000,-11.259000
  0.331000,-11.122000
  0.333000,-10.983000
  0.335000,-10.845000
  0.337000,-10.706000
  0.339000,-10.566000
  0.341000,-10.427000
  0.343000,-10.287000
  0.345000,-10.147000
  0.347000,-10.007000
  0.349000, -9.866000
  0.351000, -9.725000
  0.353000, -9.584000
  0.355000, -9.443000
  0.357000, -9.302000
  0.359000, -9.160000
  0.361000, -9.019000
  0.363000, -8.877000
  0.365000, -8.735000
  0.367000, -8.593000
  0.369000, -8.451000
  0.371000, -8.309000
  0.373000, -8.167000
  0.375000, -8.025000
  0.377000, -7.882000
  0.379000, -7.739000
  0.381000, -7.597000
  0.383000, -7.455000
  0.385000, -7.313000
  0.387000, -7.170000
  0.389000, -7.028000
  0.391000, -6.886000
  0.393000, -6.744000
  0.395000, -6.602000
  0.397000, -6.460000
  0.399000, -6.319000
  0.401000, -6.178000
  0.403000, -6.037000
  0.405000, -5.897000
  0.407000, -5.758000
  0.409000, -5.619000
  0.411000, -5.481000
  0.413000, -5.343000
  0.415000, -5.206000
  0.417000, -5.070000
  0.419000, -4.935000
  0.421000, -4.801000
  0.423000, -4.668000
  0.425000, -4.536000
  0.427000, -4.405000
  0.429000, -4.276000
  0.431000, -4.149000
  0.433000, -4.022000
  0.435000, -3.898000
  0.437000, -3.775000
  0.439000, -3.654000
  0.441000, -3.535000
  0.443000, -3.419000
  0.445000, -3.305000
  0.447000, -3.193000
  0.449000, -3.084000
  0.451000, -2.977000
  0.453000, -2.873000
  0.455000, -2.773000
  0.457000, -2.675000
  0.459000, -2.579000
  0.461000, -2.485000
  0.463000, -2.394000
  0.465000, -2.308000
  0.467000, -2.224000
  0.469000, -2.144000
  0.471000, -2.068000
  0.473000, -1.994000
  0.475000, -1.924000
  0.477000, -1.858000
  0.479000, -1.795000
  0.481000, -1.735000
  0.483000, -1.679000
  0.485000, -1.626000
  0.487000, -1.577000
  0.489000, -1.531000
  0.491000, -1.489000
  0.493000, -1.450000
  0.495000, -1.415000
  0.497000, -1.384000
  0.499000, -1.356000
  0.501000, -1.331000
  0.503000, -1.309000
  0.505000, -1.291000
  0.507000, -1.275000
  0.509000, -1.262000
  0.511000, -1.251000
  0.513000, -1.244000
  0.515000, -1.239000
  0.517000, -1.237000
  0.519000, -1.237000
  0.521000, -1.240000
  0.523000, -1.244000
  0.525000, -1.250000
  0.527000, -1.259000
  0.529000, -1.269000
  0.531000, -1.280000
  0.533000, -1.293000
  0.535000, -1.307000
  0.537000, -1.323000
  0.539000, -1.339000
  0.541000, -1.357000
  0.543000, -1.376000
  0.545000, -1.395000
  0.547000, -1.415000
  0.549000, -1.435000
  0.551000, -1.456000
  0.553000, -1.477000
  0.555000, -1.497000
  0.557000, -1.518000
  0.559000, -1.539000
  0.561000, -1.560000
  0.563000, -1.580000
  0.565000, -1.600000
  0.567000, -1.619000
  0.569000, -1.637000
  0.571000, -1.656000
  0.573000, -1.673000
  0.575000, -1.689000
  0.577000, -1.705000
  0.579000, -1.720000
  0.581000, -1.734000
  0.583000, -1.746000
  0.585000, -1.758000
  0.587000, -1.769000
  0.589000, -1.778000
  0.591000, -1.786000
  0.593000, -1.793000
  0.595000, -1.800000
  0.597000, -1.805000
  0.599000, -1.809000
  0.601000, -1.811000
  0.603000, -1.813000
  0.605000, -1.813000
  0.607000, -1.813000
  0.609000, -1.811000
  0.611000, -1.808000
  0.613000, -1.804000
  0.615000, -1.799000
  0.617000, -1.793000
  0.619000, -1.787000
  0.621000, -1.779000
  0.623000, -1.770000
  0.625000, -1.760000
  0.627000, -1.750000
  0.629000, -1.738000
  0.631000, -1.726000
  0.633000, -1.713000
  0.635000, -1.699000
  0.637000, -1.685000
  0.639000, -1.670000
  0.641000, -1.654000
  0.643000, -1.638000
  0.645000, -1.621000
  0.647000, -1.603000
  0.649000, -1.585000
  0.651000, -1.567000
  0.653000, -1.548000
  0.655000, -1.529000
  0.657000, -1.509000
  0.659000, -1.489000
  0.661000, -1.469000
  0.663000, -1.448000
  0.665000, -1.427000
  0.667000, -1.405000
  0.669000, -1.384000
  0.671000, -1.362000
  0.673000, -1.340000
  0.675000, -1.318000
  0.677000, -1.295000
  0.679000, -1.273000
  0.681000, -1.250000
  0.683000, -1.226000
  0.685000, -1.203000
  0.687000, -1.180000
  0.689000, -1.157000
  0.691000, -1.134000
  0.693000, -1.110000
  0.695000, -1.087000
  0.697000, -1.063000
  0.699000, -1.040000
  0.701000, -1.016000
  0.703000, -0.992000
  0.705000, -0.968000
  0.707000, -0.944000
  0.709000, -0.921000
  0.711000, -0.898000
  0.713000, -0.874000
  0.715000, -0.851000
  0.717000, -0.828000
  0.719000, -0.805000
  0.721000, -0.783000
  0.723000, -0.760000
  0.725000, -0.738000
  0.727000, -0.715000
  0.729000, -0.694000
  0.731000, -0.672000
  0.733000, -0.650000
  0.735000, -0.629000
  0.737000, -0.608000
  0.739000, -0.587000
  0.741000, -0.566000
  0.743000, -0.546000
  0.745000, -0.527000
  0.747000, -0.508000
  0.749000, -0.489000
  0.751000, -0.470000
  0.753000, -0.452000
  0.755000, -0.435000
  0.757000, -0.418000
  0.759000, -0.401000
  0.761000, -0.385000
  0.763000, -0.369000
  0.765000, -0.354000
  0.767000, -0.340000
  0.769000, -0.326000
  0.771000, -0.312000
  0.773000, -0.299000
  0.775000, -0.287000
  0.777000, -0.275000
  0.779000, -0.264000
  0.781000, -0.253000
  0.783000, -0.243000
  0.785000, -0.233000
  0.787000, -0.224000
  0.789000, -0.216000
  0.791000, -0.208000
  0.793000, -0.200000
  0.795000, -0.194000
  0.797000, -0.188000
  0.799000, -0.182000
  0.801000, -0.177000
  0.803000, -0.173000
  0.805000, -0.169000
  0.807000, -0.166000
  0.809000, -0.163000
  0.811000, -0.161000
  0.813000, -0.159000
  0.815000, -0.158000
  0.817000, -0.157000
  0.819000, -0.157000
  0.821000, -0.157000
  0.823000, -0.158000
  0.825000, -0.160000
  0.827000, -0.161000
  0.829000, -0.163000
  0.831000, -0.166000
  0.833000, -0.169000
  0.835000, -0.172000
  0.837000, -0.176000
  0.839000, -0.180000
  0.841000, -0.184000
  0.843000, -0.189000
  0.845000, -0.194000
  0.847000, -0.199000
  0.849000, -0.205000
  0.851000, -0.210000
  0.853000, -0.216000
  0.855000, -0.222000
  0.857000, -0.228000
  0.859000, -0.235000
  0.861000, -0.241000
  0.863000, -0.248000
  0.865000, -0.255000
  0.867000, -0.262000
  0.869000, -0.268000
  0.871000, -0.275000
  0.873000, -0.282000
  0.875000, -0.289000
  0.877000, -0.296000
  0.879000, -0.303000
  0.881000, -0.309000
  0.883000, -0.316000
  0.885000, -0.323000
  0.887000, -0.330000
  0.889000, -0.336000
  0.891000, -0.342000
  0.893000, -0.348000
  0.895000, -0.355000
  0.897000, -0.360000
  0.899000, -0.366000
  0.901000, -0.371000
  0.903000, -0.376000
  0.905000, -0.381000
  0.907000, -0.386000
  0.909000, -0.391000
  0.911000, -0.395000
  0.913000, -0.399000
  0.915000, -0.402000
  0.917000, -0.406000
  0.919000, -0.409000
  0.921000, -0.412000
  0.923000, -0.415000
  0.925000, -0.417000
  0.927000, -0.419000
  0.929000, -0.421000
  0.931000, -0.422000
  0.933000, -0.424000
  0.935000, -0.425000
  0.937000, -0.425000
  0.939000, -0.426000
  0.941000, -0.426000
  0.943000, -0.426000
  0.945000, -0.425000
  0.947000, -0.425000
  0.949000, -0.424000
  0.951000, -0.423000
  0.953000, -0.421000
  0.955000, -0.419000
  0.957000, -0.417000
  0.959000, -0.415000
  0.961000, -0.412000
  0.963000, -0.409000
  0.965000, -0.405000
  0.967000, -0.402000
  0.969000, -0.398000
  0.971000, -0.395000
  0.973000, -0.391000
  0.975000, -0.387000
  0.977000, -0.382000
  0.979000, -0.378000
  0.981000, -0.373000
  0.983000, -0.368000
  0.985000, -0.363000
  0.987000, -0.357000
  0.989000, -0.352000
  0.991000, -0.346000
  0.993000, -0.341000
  0.995000, -0.335000
  0.997000, -0.329000
  0.999000, -0.323000
  1.001000, -0.317000
  1.003000, -0.312000
  1.005000, -0.306000
  1.007000, -0.299000
  1.009000, -0.293000
  1.011000, -0.287000
  1.013000, -0.282000
  1.015000, -0.275000
  1.017000, -0.269000
  1.019000, -0.263000
  1.021000, -0.257000
  1.023000, -0.252000
  1.025000, -0.246000
  1.027000, -0.240000
  1.029000, -0.234000
  1.031000, -0.229000
  1.033000, -0.223000
  1.035000, -0.218000
  1.037000, -0.212000
  1.039000, -0.207000
  1.041000, -0.202000
  1.043000, -0.197000
  1.045000, -0.192000
  1.047000, -0.187000
  1.049000, -0.182000
  1.051000, -0.178000
  1.053000, -0.173000
  1.055000, -0.168000
  1.057000, -0.164000
  1.059000, -0.160000
  1.061000, -0.155000
  1.063000, -0.151000
  1.065000, -0.147000
  1.067000, -0.143000
  1.069000, -0.139000
  1.071000, -0.135000
  1.073000, -0.131000
  1.075000, -0.127000
  1.077000, -0.124000
  1.079000, -0.120000
  1.081000, -0.116000
  1.083000, -0.112000
  1.085000, -0.109000
  1.087000, -0.105000
  1.089000, -0.101000
  1.091000, -0.098000
  1.093000, -0.094000
  1.095000, -0.091000
  1.097000, -0.087000
  1.099000, -0.084000
  1.101000, -0.080000
  1.103000, -0.077000
  1.105000, -0.074000
  1.107000, -0.070000
  1.109000, -0.067000
  1.111000, -0.064000
  1.113000, -0.061000
  1.115000, -0.057000
  1.117000, -0.054000
  1.119000, -0.052000
  1.121000, -0.049000
  1.123000, -0.046000
  1.125000, -0.043000
  1.127000, -0.041000
  1.129000, -0.038000
  1.131000, -0.036000
  1.133000, -0.033000
  1.135000, -0.031000
  1.137000, -0.029000
  1.139000, -0.027000
  1.141000, -0.025000
  1.143000, -0.023000
  1.145000, -0.021000
  1.147000, -0.020000
  1.149000, -0.018000
  1.151000, -0.017000
  1.153000, -0.016000
  1.155000, -0.015000
  1.157000, -0.014000
  1.159000, -0.013000
  1.161000, -0.013000
  1.163000, -0.012000
  1.165000, -0.012000
  1.167000, -0.012000
  1.169000, -0.012000
  1.171000, -0.011000
  1.173000, -0.011000
  1.175000, -0.012000
  1.177000, -0.012000
  1.179000, -0.012000
  1.181000, -0.013000
  1.183000, -0.014000
  1.185000, -0.014000
  1.187000, -0.015000
  1.189000, -0.016000
  1.191000, -0.017000
  1.193000, -0.018000
  1.195000, -0.019000
  1.197000, -0.020000
  1.199000, -0.021000
  1.201000, -0.023000
  1.203000, -0.024000
  1.205000, -0.025000
  1.207000, -0.026000
  1.209000, -0.027000
  1.211000, -0.028000
  1.213000, -0.030000
  1.215000, -0.031000
  1.217000, -0.032000
  1.219000, -0.033000
  1.221000, -0.034000
  1.223000, -0.035000
  1.225000, -0.035000
  1.227000, -0.036000
  1.229000, -0.037000
  1.231000, -0.038000
  1.233000, -0.038000
  1.235000, -0.039000
  1.237000, -0.039000
  1.239000, -0.039000
  1.241000, -0.040000
  1.243000, -0.040000
  1.245000, -0.040000
  1.247000, -0.040000
  1.249000, -0.040000
  1.251000, -0.041000
  1.253000, -0.040000
  1.255000, -0.040000
  1.257000, -0.040000
  1.259000, -0.040000
  1.261000, -0.040000
  1.263000, -0.039000
  1.265000, -0.039000
  1.267000, -0.038000
  1.269000, -0.038000
  1.271000, -0.037000
  1.273000, -0.037000
  1.275000, -0.036000
  1.277000, -0.036000
  1.279000, -0.035000
  1.281000, -0.034000
  1.283000, -0.033000
  1.285000, -0.032000
  1.287000, -0.031000
  1.289000, -0.030000
  1.291000, -0.029000
  1.293000, -0.028000
  1.295000, -0.027000
  1.297000, -0.026000
  1.299000, -0.024000
  1.301000, -0.023000
  1.303000, -0.022000
  1.305000, -0.020000
  1.307000, -0.019000
  1.309000, -0.017000
  1.311000, -0.016000
  1.313000, -0.014000
  1.315000, -0.012000
  1.317000, -0.010000
  1.319000, -0.008000
  1.321000, -0.006000
  1.323000, -0.004000
  1.325000, -0.002000
  1.327000,  0.001000
  1.329000,  0.003000
  1.331000,  0.006000
  1.333000,  0.008000
  1.335000,  0.011000
  1.337000,  0.014000
  1.339000,  0.017000
  1.341000,  0.020000
  1.343000,  0.023000
  1.345000,  0.026000
  1.347000,  0.029000
  1.349000,  0.032000
  1.351000,  0.036000
  1.353000,  0.039000
  1.355000,  0.042000
  1.357000,  0.046000
  1.359000,  0.049000
  1.361000,  0.052000
  1.363000,  0.055000
  1.365000,  0.059000
  1.367000,  0.062000
  1.369000,  0.065000
  1.371000,  0.068000
  1.373000,  0.071000
  1.375000,  0.074000
  1.377000,  0.076000
  1.379000,  0.079000
  1.381000,  0.082000
  1.383000,  0.084000
  1.385000,  0.086000
  1.387000,  0.088000
  1.389000,  0.089000
  1.391000,  0.091000
  1.393000,  0.092000
  1.395000,  0.092000
  1.397000,  0.092000
  1.399000,  0.092000
