# z (nm)   (kJ/mol)
  0.103000, -1.683000
  0.105000, -2.353000
  0.107000, -2.987000
  0.109000, -3.640000
  0.111000, -4.297000
  0.113000, -4.940000
  0.115000, -5.589000
  0.117000, -6.237000
  0.119000, -6.877000
  0.121000, -7.505000
  0.123000, -8.127000
  0.125000, -8.741000
  0.127000, -9.346000
  0.129000, -9.939000
  0.131000,-10.521000
  0.133000,-11.091000
  0.135000,-11.644000
  0.137000,-12.179000
  0.139000,-12.699000
  0.141000,-13.204000
  0.143000,-13.694000
  0.145000,-14.166000
  0.147000,-14.618000
  0.149000,-15.051000
  0.151000,-15.465000
  0.153000,-15.858000
  0.155000,-16.231000
  0.157000,-16.585000
  0.159000,-16.916000
  0.161000,-17.227000
  0.163000,-17.518000
  0.165000,-17.789000
  0.167000,-18.039000
  0.169000,-18.269000
  0.171000,-18.479000
  0.173000,-18.669000
  0.175000,-18.837000
  0.177000,-18.987000
  0.179000,-19.116000
  0.181000,-19.225000
  0.183000,-19.315000
  0.185000,-19.389000
  0.187000,-19.447000
  0.189000,-19.484000
  0.191000,-19.504000
  0.193000,-19.507000
  0.195000,-19.497000
  0.197000,-19.475000
  0.199000,-19.433000
  0.201000,-19.376000
  0.203000,-19.310000
  0.205000,-19.230000
  0.207000,-19.140000
  0.209000,-19.042000
  0.211000,-18.932000
  0.213000,-18.814000
  0.215000,-18.689000
  0.217000,-18.553000
  0.219000,-18.412000
  0.221000,-18.266000
  0.223000,-18.115000
  0.225000,-17.961000
  0.227000,-17.804000
  0.229000,-17.644000
  0.231000,-17.482000
  0.233000,-17.317000
  0.235000,-17.151000
  0.237000,-16.984000
  0.239000,-16.816000
  0.241000,-16.647000
  0.243000,-16.477000
  0.245000,-16.307000
  0.247000,-16.138000
  0.249000,-15.968000
  0.251000,-15.798000
  0.253000,-15.629000
  0.255000,-15.461000
  0.257000,-15.293000
  0.259000,-15.126000
  0.261000,-14.959000
  0.263000,-14.794000
  0.265000,-14.629000
  0.267000,-14.464000
  0.269000,-14.299000
  0.271000,-14.134000
  0.273000,-13.969000
  0.275000,-13.805000
  0.277000,-13.641000
  0.279000,-13.477000
  0.281000,-13.313000
  0.283000,-13.147000
  0.285000,-12.982000
  0.287000,-12.817000
  0.289000,-12.652000
  0.291000,-12.486000
  0.293000,-12.319000
  0.295000,-12.152000
  0.297000,-11.982000
  0.299000,-11.814000
  0.301000,-11.645000
  0.303000,-11.476000
  0.305000,-11.306000
  0.307000,-11.137000
  0.309000,-10.967000
  0.311000,-10.796000
  0.313000,-10.626000
  0.315000,-10.455000
  0.317000,-10.283000
  0.319000,-10.112000
  0.321000, -9.941000
  0.323000, -9.770000
  0.325000, -9.599000
  0.327000, -9.428000
  0.329000, -9.258000
  0.331000, -9.089000
  0.333000, -8.920000
  0.335000, -8.751000
  0.337000, -8.584000
  0.339000, -8.418000
  0.341000, -8.252000
  0.343000, -8.088000
  0.345000, -7.925000
  0.347000, -7.764000
  0.349000, -7.604000
  0.351000, -7.445000
  0.353000, -7.289000
  0.355000, -7.134000
  0.357000, -6.980000
  0.359000, -6.828000
  0.361000, -6.679000
  0.363000, -6.531000
  0.365000, -6.385000
  0.367000, -6.241000
  0.369000, -6.099000
  0.371000, -5.959000
  0.373000, -5.822000
  0.375000, -5.686000
  0.377000, -5.553000
  0.379000, -5.422000
  0.381000, -5.293000
  0.383000, -5.166000
  0.385000, -5.042000
  0.387000, -4.920000
  0.389000, -4.800000
  0.391000, -4.683000
  0.393000, -4.569000
  0.395000, -4.456000
  0.397000, -4.345000
  0.399000, -4.237000
  0.401000, -4.132000
  0.403000, -4.028000
  0.405000, -3.927000
  0.407000, -3.829000
  0.409000, -3.732000
  0.411000, -3.638000
  0.413000, -3.547000
  0.415000, -3.457000
  0.417000, -3.370000
  0.419000, -3.284000
  0.421000, -3.201000
  0.423000, -3.120000
  0.425000, -3.042000
  0.427000, -2.966000
  0.429000, -2.892000
  0.431000, -2.820000
  0.433000, -2.750000
  0.435000, -2.683000
  0.437000, -2.618000
  0.439000, -2.555000
  0.441000, -2.494000
  0.443000, -2.435000
  0.445000, -2.379000
  0.447000, -2.324000
  0.449000, -2.271000
  0.451000, -2.221000
  0.453000, -2.172000
  0.455000, -2.126000
  0.457000, -2.081000
  0.459000, -2.039000
  0.461000, -1.999000
  0.463000, -1.961000
  0.465000, -1.926000
  0.467000, -1.891000
  0.469000, -1.860000
  0.471000, -1.830000
  0.473000, -1.802000
  0.475000, -1.776000
  0.477000, -1.753000
  0.479000, -1.731000
  0.481000, -1.711000
  0.483000, -1.693000
  0.485000, -1.677000
  0.487000, -1.663000
  0.489000, -1.651000
  0.491000, -1.640000
  0.493000, -1.631000
  0.495000, -1.623000
  0.497000, -1.617000
  0.499000, -1.613000
  0.501000, -1.611000
  0.503000, -1.610000
  0.505000, -1.611000
  0.507000, -1.613000
  0.509000, -1.617000
  0.511000, -1.622000
  0.513000, -1.628000
  0.515000, -1.635000
  0.517000, -1.643000
  0.519000, -1.652000
  0.521000, -1.662000
  0.523000, -1.674000
  0.525000, -1.686000
  0.527000, -1.699000
  0.529000, -1.712000
  0.531000, -1.726000
  0.533000, -1.741000
  0.535000, -1.757000
  0.537000, -1.773000
  0.539000, -1.790000
  0.541000, -1.805000
  0.543000, -1.822000
  0.545000, -1.838000
  0.547000, -1.855000
  0.549000, -1.871000
  0.551000, -1.887000
  0.553000, -1.902000
  0.555000, -1.918000
  0.557000, -1.934000
  0.559000, -1.949000
  0.561000, -1.964000
  0.563000, -1.978000
  0.565000, -1.991000
  0.567000, -2.004000
  0.569000, -2.016000
  0.571000, -2.027000
  0.573000, -2.038000
  0.575000, -2.048000
  0.577000, -2.057000
  0.579000, -2.064000
  0.581000, -2.072000
  0.583000, -2.078000
  0.585000, -2.083000
  0.587000, -2.087000
  0.589000, -2.091000
  0.591000, -2.093000
  0.593000, -2.094000
  0.595000, -2.094000
  0.597000, -2.093000
  0.599000, -2.091000
  0.601000, -2.088000
  0.603000, -2.084000
  0.605000, -2.078000
  0.607000, -2.072000
  0.609000, -2.065000
  0.611000, -2.056000
  0.613000, -2.047000
  0.615000, -2.037000
  0.617000, -2.025000
  0.619000, -2.013000
  0.621000, -2.000000
  0.623000, -1.986000
  0.625000, -1.971000
  0.627000, -1.955000
  0.629000, -1.938000
  0.631000, -1.921000
  0.633000, -1.902000
  0.635000, -1.883000
  0.637000, -1.863000
  0.639000, -1.842000
  0.641000, -1.821000
  0.643000, -1.799000
  0.645000, -1.776000
  0.647000, -1.753000
  0.649000, -1.730000
  0.651000, -1.705000
  0.653000, -1.680000
  0.655000, -1.655000
  0.657000, -1.629000
  0.659000, -1.602000
  0.661000, -1.576000
  0.663000, -1.549000
  0.665000, -1.522000
  0.667000, -1.494000
  0.669000, -1.466000
  0.671000, -1.437000
  0.673000, -1.409000
  0.675000, -1.380000
  0.677000, -1.351000
  0.679000, -1.322000
  0.681000, -1.292000
  0.683000, -1.263000
  0.685000, -1.234000
  0.687000, -1.205000
  0.689000, -1.175000
  0.691000, -1.146000
  0.693000, -1.117000
  0.695000, -1.088000
  0.697000, -1.058000
  0.699000, -1.029000
  0.701000, -1.001000
  0.703000, -0.972000
  0.705000, -0.944000
  0.707000, -0.915000
  0.709000, -0.888000
  0.711000, -0.860000
  0.713000, -0.833000
  0.715000, -0.806000
  0.717000, -0.779000
  0.719000, -0.753000
  0.721000, -0.727000
  0.723000, -0.702000
  0.725000, -0.677000
  0.727000, -0.653000
  0.729000, -0.629000
  0.731000, -0.605000
  0.733000, -0.583000
  0.735000, -0.561000
  0.737000, -0.539000
  0.739000, -0.518000
  0.741000, -0.498000
  0.743000, -0.479000
  0.745000, -0.460000
  0.747000, -0.442000
  0.749000, -0.424000
  0.751000, -0.407000
  0.753000, -0.391000
  0.755000, -0.375000
  0.757000, -0.361000
  0.759000, -0.347000
  0.761000, -0.334000
  0.763000, -0.321000
  0.765000, -0.310000
  0.767000, -0.299000
  0.769000, -0.289000
  0.771000, -0.279000
  0.773000, -0.270000
  0.775000, -0.262000
  0.777000, -0.255000
  0.779000, -0.248000
  0.781000, -0.242000
  0.783000, -0.237000
  0.785000, -0.233000
  0.787000, -0.229000
  0.789000, -0.225000
  0.791000, -0.222000
  0.793000, -0.220000
  0.795000, -0.218000
  0.797000, -0.217000
  0.799000, -0.216000
  0.801000, -0.216000
  0.803000, -0.216000
  0.805000, -0.217000
  0.807000, -0.218000
  0.809000, -0.219000
  0.811000, -0.221000
  0.813000, -0.223000
  0.815000, -0.225000
  0.817000, -0.227000
  0.819000, -0.230000
  0.821000, -0.233000
  0.823000, -0.236000
  0.825000, -0.239000
  0.827000, -0.242000
  0.829000, -0.245000
  0.831000, -0.249000
  0.833000, -0.252000
  0.835000, -0.256000
  0.837000, -0.259000
  0.839000, -0.263000
  0.841000, -0.266000
  0.843000, -0.269000
  0.845000, -0.272000
  0.847000, -0.275000
  0.849000, -0.278000
  0.851000, -0.281000
  0.853000, -0.284000
  0.855000, -0.286000
  0.857000, -0.289000
  0.859000, -0.291000
  0.861000, -0.293000
  0.863000, -0.295000
  0.865000, -0.297000
  0.867000, -0.298000
  0.869000, -0.300000
  0.871000, -0.301000
  0.873000, -0.302000
  0.875000, -0.303000
  0.877000, -0.304000
  0.879000, -0.304000
  0.881000, -0.304000
  0.883000, -0.304000
  0.885000, -0.304000
  0.887000, -0.304000
  0.889000, -0.304000
  0.891000, -0.303000
  0.893000, -0.302000
  0.895000, -0.301000
  0.897000, -0.300000
  0.899000, -0.299000
  0.901000, -0.297000
  0.903000, -0.296000
  0.905000, -0.294000
  0.907000, -0.293000
  0.909000, -0.291000
  0.911000, -0.289000
  0.913000, -0.287000
  0.915000, -0.285000
  0.917000, -0.283000
  0.919000, -0.281000
  0.921000, -0.278000
  0.923000, -0.276000
  0.925000, -0.274000
  0.927000, -0.271000
  0.929000, -0.268000
  0.931000, -0.265000
  0.933000, -0.262000
  0.935000, -0.260000
  0.937000, -0.257000
  0.939000, -0.254000
  0.941000, -0.250000
  0.943000, -0.247000
  0.945000, -0.244000
  0.947000, -0.241000
  0.949000, -0.237000
  0.951000, -0.234000
  0.953000, -0.230000
  0.955000, -0.227000
  0.957000, -0.223000
  0.959000, -0.219000
  0.961000, -0.215000
  0.963000, -0.212000
  0.965000, -0.208000
  0.967000, -0.204000
  0.969000, -0.200000
  0.971000, -0.195000
  0.973000, -0.191000
  0.975000, -0.187000
  0.977000, -0.183000
  0.979000, -0.179000
  0.981000, -0.175000
  0.983000, -0.170000
  0.985000, -0.166000
  0.987000, -0.162000
  0.989000, -0.158000
  0.991000, -0.153000
  0.993000, -0.149000
  0.995000, -0.145000
  0.997000, -0.140000
  0.999000, -0.136000
  1.001000, -0.132000
  1.003000, -0.128000
  1.005000, -0.124000
  1.007000, -0.120000
  1.009000, -0.116000
  1.011000, -0.112000
  1.013000, -0.108000
  1.015000, -0.104000
  1.017000, -0.101000
  1.019000, -0.097000
  1.021000, -0.094000
  1.023000, -0.091000
  1.025000, -0.087000
  1.027000, -0.084000
  1.029000, -0.081000
  1.031000, -0.077000
  1.033000, -0.074000
  1.035000, -0.072000
  1.037000, -0.069000
  1.039000, -0.066000
  1.041000, -0.063000
  1.043000, -0.061000
  1.045000, -0.059000
  1.047000, -0.056000
  1.049000, -0.054000
  1.051000, -0.052000
  1.053000, -0.050000
  1.055000, -0.048000
  1.057000, -0.046000
  1.059000, -0.044000
  1.061000, -0.042000
  1.063000, -0.040000
  1.065000, -0.039000
  1.067000, -0.037000
  1.069000, -0.035000
  1.071000, -0.034000
  1.073000, -0.032000
  1.075000, -0.031000
  1.077000, -0.029000
  1.079000, -0.028000
  1.081000, -0.027000
  1.083000, -0.025000
  1.085000, -0.024000
  1.087000, -0.023000
  1.089000, -0.021000
  1.091000, -0.020000
  1.093000, -0.019000
  1.095000, -0.018000
  1.097000, -0.017000
  1.099000, -0.016000
  1.101000, -0.015000
  1.103000, -0.014000
  1.105000, -0.014000
  1.107000, -0.013000
  1.109000, -0.012000
  1.111000, -0.012000
  1.113000, -0.011000
  1.115000, -0.011000
  1.117000, -0.010000
  1.119000, -0.010000
  1.121000, -0.010000
  1.123000, -0.010000
  1.125000, -0.010000
  1.127000, -0.010000
  1.129000, -0.010000
  1.131000, -0.010000
  1.133000, -0.010000
  1.135000, -0.011000
  1.137000, -0.011000
  1.139000, -0.012000
  1.141000, -0.012000
  1.143000, -0.013000
  1.145000, -0.014000
  1.147000, -0.014000
  1.149000, -0.015000
  1.151000, -0.016000
  1.153000, -0.017000
  1.155000, -0.018000
  1.157000, -0.019000
  1.159000, -0.021000
  1.161000, -0.022000
  1.163000, -0.023000
  1.165000, -0.024000
  1.167000, -0.026000
  1.169000, -0.027000
  1.171000, -0.028000
  1.173000, -0.029000
  1.175000, -0.031000
  1.177000, -0.032000
  1.179000, -0.033000
  1.181000, -0.034000
  1.183000, -0.035000
  1.185000, -0.037000
  1.187000, -0.038000
  1.189000, -0.039000
  1.191000, -0.039000
  1.193000, -0.040000
  1.195000, -0.041000
  1.197000, -0.042000
  1.199000, -0.043000
  1.201000, -0.043000
  1.203000, -0.044000
  1.205000, -0.044000
  1.207000, -0.045000
  1.209000, -0.045000
  1.211000, -0.045000
  1.213000, -0.045000
  1.215000, -0.045000
  1.217000, -0.045000
  1.219000, -0.045000
  1.221000, -0.045000
  1.223000, -0.044000
  1.225000, -0.044000
  1.227000, -0.043000
  1.229000, -0.043000
  1.231000, -0.042000
  1.233000, -0.041000
  1.235000, -0.040000
  1.237000, -0.040000
  1.239000, -0.039000
  1.241000, -0.037000
  1.243000, -0.036000
  1.245000, -0.035000
  1.247000, -0.034000
  1.249000, -0.032000
  1.251000, -0.031000
  1.253000, -0.029000
  1.255000, -0.028000
  1.257000, -0.026000
  1.259000, -0.025000
  1.261000, -0.023000
  1.263000, -0.022000
  1.265000, -0.020000
  1.267000, -0.019000
  1.269000, -0.017000
  1.271000, -0.015000
  1.273000, -0.014000
  1.275000, -0.012000
  1.277000, -0.011000
  1.279000, -0.009000
  1.281000, -0.008000
  1.283000, -0.006000
  1.285000, -0.005000
  1.287000, -0.003000
  1.289000, -0.002000
  1.291000, -0.001000
  1.293000,  0.001000
  1.295000,  0.002000
  1.297000,  0.003000
  1.299000,  0.004000
  1.301000,  0.005000
  1.303000,  0.006000
  1.305000,  0.007000
  1.307000,  0.008000
  1.309000,  0.009000
  1.311000,  0.010000
  1.313000,  0.011000
  1.315000,  0.012000
  1.317000,  0.013000
  1.319000,  0.013000
  1.321000,  0.014000
  1.323000,  0.015000
  1.325000,  0.015000
  1.327000,  0.016000
  1.329000,  0.017000
  1.331000,  0.018000
  1.333000,  0.018000
  1.335000,  0.019000
  1.337000,  0.019000
  1.339000,  0.020000
  1.341000,  0.021000
  1.343000,  0.021000
  1.345000,  0.022000
  1.347000,  0.023000
  1.349000,  0.025000
  1.351000,  0.026000
  1.353000,  0.027000
  1.355000,  0.028000
  1.357000,  0.029000
  1.359000,  0.030000
  1.361000,  0.031000
  1.363000,  0.033000
  1.365000,  0.034000
  1.367000,  0.036000
  1.369000,  0.037000
  1.371000,  0.038000
  1.373000,  0.040000
  1.375000,  0.041000
  1.377000,  0.043000
  1.379000,  0.045000
  1.381000,  0.046000
  1.383000,  0.048000
  1.385000,  0.049000
  1.387000,  0.050000
  1.389000,  0.052000
  1.391000,  0.053000
  1.393000,  0.054000
  1.395000,  0.054000
  1.397000,  0.054000
  1.399000,  0.054000
