# z (nm)   (kJ/mol)
  0.1310   -2.09700
  0.1350   -3.48400
  0.1370   -4.15500
  0.1390   -4.90000
  0.1410   -5.69000
  0.1430   -6.44800
  0.1450   -7.18000
  0.1470   -7.91400
  0.1490   -8.63700
  0.1510   -9.35000
  0.1530  -10.05300
  0.1550  -10.74000
  0.1570  -11.41000
  0.1590  -12.06700
  0.1610  -12.71000
  0.1630  -13.33200
  0.1650  -13.93000
  0.1670  -14.50800
  0.1690  -15.06800
  0.1710  -15.60600
  0.1730  -16.12100
  0.1750  -16.60900
  0.1770  -17.07100
  0.1790  -17.50900
  0.1810  -17.92100
  0.1830  -18.30800
  0.1850  -18.66800
  0.1870  -19.00200
  0.1890  -19.31200
  0.1910  -19.59600
  0.1930  -19.85300
  0.1950  -20.08500
  0.1970  -20.29000
  0.1990  -20.47000
  0.2010  -20.62400
  0.2030  -20.75400
  0.2050  -20.85900
  0.2070  -20.94100
  0.2090  -20.99900
  0.2110  -21.03500
  0.2130  -21.04900
  0.2150  -21.04100
  0.2170  -21.01200
  0.2190  -20.96600
  0.2210  -20.90200
  0.2230  -20.81900
  0.2250  -20.71800
  0.2270  -20.60100
  0.2290  -20.47300
  0.2310  -20.33100
  0.2330  -20.17600
  0.2350  -20.01100
  0.2370  -19.83800
  0.2390  -19.65700
  0.2410  -19.46700
  0.2430  -19.26900
  0.2450  -19.06600
  0.2470  -18.85500
  0.2490  -18.64100
  0.2510  -18.42400
  0.2530  -18.20500
  0.2550  -17.98500
  0.2570  -17.76400
  0.2590  -17.54200
  0.2610  -17.31900
  0.2630  -17.09800
  0.2650  -16.87800
  0.2670  -16.65900
  0.2690  -16.44300
  0.2710  -16.22900
  0.2730  -16.01700
  0.2750  -15.80900
  0.2770  -15.60200
  0.2790  -15.39900
  0.2810  -15.20000
  0.2830  -15.00400
  0.2850  -14.81000
  0.2870  -14.62000
  0.2890  -14.43300
  0.2910  -14.24900
  0.2930  -14.06800
  0.2950  -13.88900
  0.2970  -13.71300
  0.2990  -13.54000
  0.3010  -13.37000
  0.3030  -13.20100
  0.3050  -13.03500
  0.3070  -12.87000
  0.3090  -12.70800
  0.3110  -12.54700
  0.3130  -12.38700
  0.3150  -12.22800
  0.3170  -12.07000
  0.3190  -11.91400
  0.3210  -11.75800
  0.3230  -11.60400
  0.3250  -11.45000
  0.3270  -11.29600
  0.3290  -11.14200
  0.3310  -10.99000
  0.3330  -10.83700
  0.3350  -10.68400
  0.3370  -10.53100
  0.3390  -10.37900
  0.3410  -10.22600
  0.3430  -10.07300
  0.3450   -9.92000
  0.3470   -9.76700
  0.3490   -9.61400
  0.3510   -9.46100
  0.3530   -9.30900
  0.3550   -9.15600
  0.3570   -9.00300
  0.3590   -8.84900
  0.3610   -8.69600
  0.3630   -8.54400
  0.3650   -8.39100
  0.3670   -8.23800
  0.3690   -8.08600
  0.3710   -7.93300
  0.3730   -7.78100
  0.3750   -7.62800
  0.3770   -7.47600
  0.3790   -7.32400
  0.3810   -7.17200
  0.3830   -7.02000
  0.3850   -6.86800
  0.3870   -6.71700
  0.3890   -6.56600
  0.3910   -6.41500
  0.3930   -6.26500
  0.3950   -6.11400
  0.3970   -5.96400
  0.3990   -5.81400
  0.4010   -5.66500
  0.4030   -5.51500
  0.4050   -5.36700
  0.4070   -5.22000
  0.4090   -5.07200
  0.4110   -4.92500
  0.4130   -4.77900
  0.4150   -4.63300
  0.4170   -4.48800
  0.4190   -4.34400
  0.4210   -4.20000
  0.4230   -4.05700
  0.4250   -3.91600
  0.4270   -3.77500
  0.4290   -3.63500
  0.4310   -3.49600
  0.4330   -3.35800
  0.4350   -3.22000
  0.4370   -3.08400
  0.4390   -2.95000
  0.4410   -2.81700
  0.4430   -2.68500
  0.4450   -2.55500
  0.4470   -2.42700
  0.4490   -2.30100
  0.4510   -2.17600
  0.4530   -2.05400
  0.4550   -1.93300
  0.4570   -1.81500
  0.4590   -1.69700
  0.4610   -1.58200
  0.4630   -1.47000
  0.4650   -1.36100
  0.4670   -1.25400
  0.4690   -1.15000
  0.4710   -1.04800
  0.4730   -0.94900
  0.4750   -0.85400
  0.4770   -0.76100
  0.4790   -0.67200
  0.4810   -0.58600
  0.4830   -0.50300
  0.4850   -0.42400
  0.4870   -0.34900
  0.4890   -0.27700
  0.4910   -0.20800
  0.4930   -0.14300
  0.4950   -0.08200
  0.4970   -0.02500
  0.4990    0.02900
  0.5010    0.07800
  0.5030    0.12500
  0.5050    0.16700
  0.5070    0.20600
  0.5090    0.24000
  0.5110    0.27100
  0.5130    0.29800
  0.5150    0.32100
  0.5170    0.34100
  0.5190    0.35800
  0.5210    0.37100
  0.5230    0.38000
  0.5250    0.38600
  0.5270    0.38800
  0.5290    0.38800
  0.5310    0.38400
  0.5330    0.37800
  0.5350    0.36800
  0.5370    0.35500
  0.5390    0.34000
  0.5410    0.32300
  0.5430    0.30400
  0.5450    0.28300
  0.5470    0.25900
  0.5490    0.23300
  0.5510    0.20600
  0.5530    0.17800
  0.5550    0.14700
  0.5570    0.11500
  0.5590    0.08200
  0.5610    0.04700
  0.5630    0.01300
  0.5650   -0.02300
  0.5670   -0.05900
  0.5690   -0.09500
  0.5710   -0.13100
  0.5730   -0.16800
  0.5750   -0.20500
  0.5770   -0.24200
  0.5790   -0.27800
  0.5810   -0.31500
  0.5830   -0.35000
  0.5850   -0.38600
  0.5870   -0.42100
  0.5890   -0.45500
  0.5910   -0.48900
  0.5930   -0.52200
  0.5950   -0.55300
  0.5970   -0.58400
  0.5990   -0.61400
  0.6010   -0.64300
  0.6030   -0.67000
  0.6050   -0.69700
  0.6070   -0.72300
  0.6090   -0.74800
  0.6110   -0.77200
  0.6130   -0.79400
  0.6150   -0.81500
  0.6170   -0.83500
  0.6190   -0.85400
  0.6210   -0.87100
  0.6230   -0.88700
  0.6250   -0.90200
  0.6270   -0.91600
  0.6290   -0.92800
  0.6310   -0.94000
  0.6330   -0.95000
  0.6350   -0.95900
  0.6370   -0.96700
  0.6390   -0.97300
  0.6410   -0.97900
  0.6430   -0.98300
  0.6450   -0.98700
  0.6470   -0.98900
  0.6490   -0.99000
  0.6510   -0.99000
  0.6530   -0.99000
  0.6550   -0.98800
  0.6570   -0.98600
  0.6590   -0.98200
  0.6610   -0.97800
  0.6630   -0.97300
  0.6650   -0.96700
  0.6670   -0.96000
  0.6690   -0.95300
  0.6710   -0.94400
  0.6730   -0.93600
  0.6750   -0.92600
  0.6770   -0.91600
  0.6790   -0.90600
  0.6810   -0.89400
  0.6830   -0.88200
  0.6850   -0.87000
  0.6870   -0.85600
  0.6890   -0.84300
  0.6910   -0.82900
  0.6930   -0.81400
  0.6950   -0.79900
  0.6970   -0.78300
  0.6990   -0.76700
  0.7010   -0.75100
  0.7030   -0.73300
  0.7050   -0.71600
  0.7070   -0.69800
  0.7090   -0.68000
  0.7110   -0.66100
  0.7130   -0.64200
  0.7150   -0.62300
  0.7170   -0.60300
  0.7190   -0.58400
  0.7210   -0.56300
  0.7230   -0.54300
  0.7250   -0.52200
  0.7270   -0.50200
  0.7290   -0.48100
  0.7310   -0.46000
  0.7330   -0.43900
  0.7350   -0.41800
  0.7370   -0.39700
  0.7390   -0.37600
  0.7410   -0.35400
  0.7430   -0.33300
  0.7450   -0.31200
  0.7470   -0.29100
  0.7490   -0.27000
  0.7510   -0.24900
  0.7530   -0.22900
  0.7550   -0.20900
  0.7570   -0.18900
  0.7590   -0.16900
  0.7610   -0.14900
  0.7630   -0.13000
  0.7650   -0.11100
  0.7670   -0.09200
  0.7690   -0.07400
  0.7710   -0.05600
  0.7730   -0.03900
  0.7750   -0.02200
  0.7770   -0.00600
  0.7790    0.01000
  0.7810    0.02600
  0.7830    0.04100
  0.7850    0.05500
  0.7870    0.06900
  0.7890    0.08200
  0.7910    0.09400
  0.7930    0.10600
  0.7950    0.11700
  0.7970    0.12800
  0.7990    0.13800
  0.8010    0.14700
  0.8030    0.15500
  0.8050    0.16300
  0.8070    0.17100
  0.8090    0.17700
  0.8110    0.18300
  0.8130    0.18800
  0.8150    0.19300
  0.8170    0.19700
  0.8190    0.20000
  0.8210    0.20200
  0.8230    0.20400
  0.8250    0.20500
  0.8270    0.20600
  0.8290    0.20600
  0.8310    0.20500
  0.8330    0.20400
  0.8350    0.20200
  0.8370    0.20000
  0.8390    0.19700
  0.8410    0.19400
  0.8430    0.19000
  0.8450    0.18500
  0.8470    0.18000
  0.8490    0.17500
  0.8510    0.16900
  0.8530    0.16300
  0.8550    0.15600
  0.8570    0.14900
  0.8590    0.14200
  0.8610    0.13400
  0.8630    0.12600
  0.8650    0.11800
  0.8670    0.10900
  0.8690    0.10000
  0.8710    0.09100
  0.8730    0.08200
  0.8750    0.07200
  0.8770    0.06300
  0.8790    0.05300
  0.8810    0.04300
  0.8830    0.03300
  0.8850    0.02300
  0.8870    0.01300
  0.8890    0.00300
  0.8910   -0.00700
  0.8930   -0.01700
  0.8950   -0.02700
  0.8970   -0.03700
  0.8990   -0.04700
  0.9010   -0.05700
  0.9030   -0.06700
  0.9050   -0.07700
  0.9070   -0.08600
  0.9090   -0.09600
  0.9110   -0.10500
  0.9130   -0.11400
  0.9150   -0.12300
  0.9170   -0.13200
  0.9190   -0.14100
  0.9210   -0.14900
  0.9230   -0.15700
  0.9250   -0.16500
  0.9270   -0.17300
  0.9290   -0.18100
  0.9310   -0.18800
  0.9330   -0.19500
  0.9350   -0.20200
  0.9370   -0.20900
  0.9390   -0.21500
  0.9410   -0.22100
  0.9430   -0.22700
  0.9450   -0.23300
  0.9470   -0.23800
  0.9490   -0.24300
  0.9510   -0.24800
  0.9530   -0.25200
  0.9550   -0.25600
  0.9570   -0.26000
  0.9590   -0.26400
  0.9610   -0.26700
  0.9630   -0.27000
  0.9650   -0.27200
  0.9670   -0.27500
  0.9690   -0.27700
  0.9710   -0.27800
  0.9730   -0.28000
  0.9750   -0.28100
  0.9770   -0.28200
  0.9790   -0.28200
  0.9810   -0.28200
  0.9830   -0.28300
  0.9850   -0.28200
  0.9870   -0.28200
  0.9890   -0.28100
  0.9910   -0.28000
  0.9930   -0.27800
  0.9950   -0.27600
  0.9970   -0.27400
  0.9990   -0.27200
  1.0010   -0.26900
  1.0030   -0.26700
  1.0050   -0.26300
  1.0070   -0.26000
  1.0090   -0.25700
  1.0110   -0.25300
  1.0130   -0.24900
  1.0150   -0.24500
  1.0170   -0.24000
  1.0190   -0.23600
  1.0210   -0.23100
  1.0230   -0.22600
  1.0250   -0.22100
  1.0270   -0.21600
  1.0290   -0.21100
  1.0310   -0.20500
  1.0330   -0.20000
  1.0350   -0.19400
  1.0370   -0.18800
  1.0390   -0.18300
  1.0410   -0.17700
  1.0430   -0.17100
  1.0450   -0.16500
  1.0470   -0.15900
  1.0490   -0.15300
  1.0510   -0.14700
  1.0530   -0.14100
  1.0550   -0.13600
  1.0570   -0.13000
  1.0590   -0.12400
  1.0610   -0.11900
  1.0630   -0.11300
  1.0650   -0.10700
  1.0670   -0.10200
  1.0690   -0.09700
  1.0710   -0.09200
  1.0730   -0.08700
  1.0750   -0.08200
  1.0770   -0.07700
  1.0790   -0.07200
  1.0810   -0.06800
  1.0830   -0.06400
  1.0850   -0.06000
  1.0870   -0.05600
  1.0890   -0.05200
  1.0910   -0.04800
  1.0930   -0.04500
  1.0950   -0.04100
  1.0970   -0.03800
  1.0990   -0.03500
  1.1010   -0.03200
  1.1030   -0.02900
  1.1050   -0.02700
  1.1070   -0.02500
  1.1090   -0.02200
  1.1110   -0.02000
  1.1130   -0.01800
  1.1150   -0.01600
  1.1170   -0.01500
  1.1190   -0.01300
  1.1210   -0.01200
  1.1230   -0.01000
  1.1250   -0.00900
  1.1270   -0.00800
  1.1290   -0.00700
  1.1310   -0.00600
  1.1330   -0.00600
  1.1350   -0.00500
  1.1370   -0.00400
  1.1390   -0.00400
  1.1410   -0.00300
  1.1430   -0.00300
  1.1450   -0.00300
  1.1470   -0.00200
  1.1490   -0.00200
  1.1510   -0.00200
  1.1530   -0.00200
  1.1550   -0.00200
  1.1570   -0.00100
  1.1590   -0.00100
  1.1610   -0.00100
  1.1630   -0.00100
  1.1650   -0.00100
  1.1670   -0.00100
  1.1690   -0.00100
  1.1710   -0.00100
  1.1730   -0.00100
  1.1750   -0.00100
  1.1770   -0.00100
  1.1790   -0.00100
  1.1810   -0.00100
  1.1830   -0.00100
  1.1850   -0.00100
  1.1870   -0.00200
  1.1890   -0.00200
  1.1910   -0.00200
  1.1930   -0.00200
  1.1950   -0.00200
  1.1970   -0.00300
  1.1990   -0.00300
  1.2010   -0.00300
  1.2030   -0.00400
  1.2050   -0.00400
  1.2070   -0.00500
  1.2090   -0.00500
  1.2110   -0.00500
  1.2130   -0.00600
  1.2150   -0.00700
  1.2170   -0.00700
  1.2190   -0.00800
  1.2210   -0.00900
  1.2230   -0.01000
  1.2250   -0.01100
  1.2270   -0.01200
  1.2290   -0.01300
  1.2310   -0.01400
  1.2330   -0.01500
  1.2350   -0.01600
  1.2370   -0.01700
  1.2390   -0.01800
  1.2410   -0.01900
  1.2430   -0.02100
  1.2450   -0.02200
  1.2470   -0.02300
  1.2490   -0.02500
  1.2510   -0.02600
  1.2530   -0.02700
  1.2550   -0.02900
  1.2570   -0.03000
  1.2590   -0.03100
  1.2610   -0.03200
  1.2630   -0.03300
  1.2650   -0.03400
  1.2670   -0.03500
  1.2690   -0.03600
  1.2710   -0.03700
  1.2730   -0.03800
  1.2750   -0.03900
  1.2770   -0.04000
  1.2790   -0.04000
  1.2810   -0.04100
  1.2830   -0.04100
  1.2850   -0.04100
  1.2870   -0.04100
  1.2890   -0.04100
  1.2910   -0.04100
  1.2930   -0.04100
  1.2950   -0.04100
  1.2970   -0.04000
  1.2990   -0.03900
  1.3010   -0.03800
  1.3030   -0.03700
  1.3050   -0.03500
  1.3070   -0.03400
  1.3090   -0.03200
  1.3110   -0.03100
  1.3130   -0.02900
  1.3150   -0.02700
  1.3170   -0.02400
  1.3190   -0.02200
  1.3210   -0.01900
  1.3230   -0.01700
  1.3250   -0.01400
  1.3270   -0.01100
  1.3290   -0.00800
  1.3310   -0.00500
  1.3330   -0.00200
  1.3350    0.00200
  1.3370    0.00500
  1.3390    0.00900
  1.3410    0.01200
  1.3430    0.01600
  1.3450    0.01900
  1.3470    0.02300
  1.3490    0.02700
  1.3510    0.03000
  1.3530    0.03400
  1.3550    0.03700
  1.3570    0.04100
  1.3590    0.04400
  1.3610    0.04800
  1.3630    0.05100
  1.3650    0.05400
  1.3670    0.05700
  1.3690    0.05900
  1.3710    0.06200
  1.3730    0.06400
  1.3750    0.06600
  1.3770    0.06800
  1.3790    0.07000
  1.3810    0.07200
  1.3830    0.07300
  1.3850    0.07400
  1.3870    0.07500
  1.3890    0.07500
  1.3910    0.07500
  1.3930    0.07500
  1.3950    0.07400
  1.3970    0.07300
  1.3990    0.07200
