# z (nm)   (kJ/mol)
  0.1370   -2.37200
  0.1390   -3.07300
  0.1410   -3.79200
  0.1430   -4.50700
  0.1450   -5.22000
  0.1470   -5.93800
  0.1490   -6.65100
  0.1510   -7.35200
  0.1530   -8.04000
  0.1550   -8.72400
  0.1570   -9.40000
  0.1590  -10.05900
  0.1610  -10.69900
  0.1630  -11.31700
  0.1650  -11.91900
  0.1670  -12.50300
  0.1690  -13.06400
  0.1710  -13.60400
  0.1730  -14.12300
  0.1750  -14.61900
  0.1770  -15.09000
  0.1790  -15.54100
  0.1810  -15.96800
  0.1830  -16.36800
  0.1850  -16.74500
  0.1870  -17.09800
  0.1890  -17.42700
  0.1910  -17.73200
  0.1930  -18.01000
  0.1950  -18.26500
  0.1970  -18.49600
  0.1990  -18.70300
  0.2010  -18.88500
  0.2030  -19.04500
  0.2050  -19.18100
  0.2070  -19.29500
  0.2090  -19.38800
  0.2110  -19.45900
  0.2130  -19.51000
  0.2150  -19.54100
  0.2170  -19.55200
  0.2190  -19.54700
  0.2210  -19.52200
  0.2230  -19.48100
  0.2250  -19.42300
  0.2270  -19.34900
  0.2290  -19.26200
  0.2310  -19.16400
  0.2330  -19.05600
  0.2350  -18.93600
  0.2370  -18.80400
  0.2390  -18.66400
  0.2410  -18.51500
  0.2430  -18.36200
  0.2450  -18.20200
  0.2470  -18.03500
  0.2490  -17.86500
  0.2510  -17.69300
  0.2530  -17.51800
  0.2550  -17.33900
  0.2570  -17.15900
  0.2590  -16.98100
  0.2610  -16.80200
  0.2630  -16.62500
  0.2650  -16.44800
  0.2670  -16.27100
  0.2690  -16.09600
  0.2710  -15.92200
  0.2730  -15.75000
  0.2750  -15.58200
  0.2770  -15.41500
  0.2790  -15.25100
  0.2810  -15.08900
  0.2830  -14.92900
  0.2850  -14.77100
  0.2870  -14.61500
  0.2890  -14.46100
  0.2910  -14.30900
  0.2930  -14.15800
  0.2950  -14.00900
  0.2970  -13.86100
  0.2990  -13.71400
  0.3010  -13.56700
  0.3030  -13.42100
  0.3050  -13.27500
  0.3070  -13.12900
  0.3090  -12.98200
  0.3110  -12.83600
  0.3130  -12.68800
  0.3150  -12.53900
  0.3170  -12.39000
  0.3190  -12.23900
  0.3210  -12.08700
  0.3230  -11.93400
  0.3250  -11.77800
  0.3270  -11.62100
  0.3290  -11.46200
  0.3310  -11.30100
  0.3330  -11.13900
  0.3350  -10.97400
  0.3370  -10.80700
  0.3390  -10.63800
  0.3410  -10.46700
  0.3430  -10.29400
  0.3450  -10.11900
  0.3470   -9.94200
  0.3490   -9.76300
  0.3510   -9.58200
  0.3530   -9.40000
  0.3550   -9.21600
  0.3570   -9.03000
  0.3590   -8.84300
  0.3610   -8.65600
  0.3630   -8.46700
  0.3650   -8.27800
  0.3670   -8.08800
  0.3690   -7.89700
  0.3710   -7.70600
  0.3730   -7.51400
  0.3750   -7.32100
  0.3770   -7.12900
  0.3790   -6.93700
  0.3810   -6.74500
  0.3830   -6.55400
  0.3850   -6.36200
  0.3870   -6.17100
  0.3890   -5.98100
  0.3910   -5.79100
  0.3930   -5.60300
  0.3950   -5.41600
  0.3970   -5.23000
  0.3990   -5.04500
  0.4010   -4.86100
  0.4030   -4.67800
  0.4050   -4.49700
  0.4070   -4.31700
  0.4090   -4.13900
  0.4110   -3.96300
  0.4130   -3.78900
  0.4150   -3.61600
  0.4170   -3.44400
  0.4190   -3.27400
  0.4210   -3.10600
  0.4230   -2.94200
  0.4250   -2.78000
  0.4270   -2.61900
  0.4290   -2.46100
  0.4310   -2.30600
  0.4330   -2.15400
  0.4350   -2.00300
  0.4370   -1.85500
  0.4390   -1.70900
  0.4410   -1.56700
  0.4430   -1.42800
  0.4450   -1.29100
  0.4470   -1.15600
  0.4490   -1.02500
  0.4510   -0.89600
  0.4530   -0.77100
  0.4550   -0.65000
  0.4570   -0.53100
  0.4590   -0.41600
  0.4610   -0.30400
  0.4630   -0.19500
  0.4650   -0.09000
  0.4670    0.01100
  0.4690    0.10900
  0.4710    0.20300
  0.4730    0.29400
  0.4750    0.38100
  0.4770    0.46400
  0.4790    0.54300
  0.4810    0.61700
  0.4830    0.68800
  0.4850    0.75500
  0.4870    0.81800
  0.4890    0.87700
  0.4910    0.93100
  0.4930    0.98200
  0.4950    1.02800
  0.4970    1.06900
  0.4990    1.10700
  0.5010    1.14000
  0.5030    1.16900
  0.5050    1.19400
  0.5070    1.21400
  0.5090    1.23100
  0.5110    1.24400
  0.5130    1.25200
  0.5150    1.25700
  0.5170    1.25800
  0.5190    1.25500
  0.5210    1.24800
  0.5230    1.23700
  0.5250    1.22400
  0.5270    1.20700
  0.5290    1.18600
  0.5310    1.16300
  0.5330    1.13600
  0.5350    1.10700
  0.5370    1.07500
  0.5390    1.04000
  0.5410    1.00300
  0.5430    0.96300
  0.5450    0.92100
  0.5470    0.87700
  0.5490    0.83100
  0.5510    0.78300
  0.5530    0.73400
  0.5550    0.68300
  0.5570    0.63100
  0.5590    0.57800
  0.5610    0.52500
  0.5630    0.47100
  0.5650    0.41600
  0.5670    0.36000
  0.5690    0.30500
  0.5710    0.25000
  0.5730    0.19300
  0.5750    0.13700
  0.5770    0.08100
  0.5790    0.02500
  0.5810   -0.03000
  0.5830   -0.08500
  0.5850   -0.13900
  0.5870   -0.19200
  0.5890   -0.24300
  0.5910   -0.29400
  0.5930   -0.34400
  0.5950   -0.39300
  0.5970   -0.44000
  0.5990   -0.48600
  0.6010   -0.53100
  0.6030   -0.57400
  0.6050   -0.61600
  0.6070   -0.65500
  0.6090   -0.69400
  0.6110   -0.73000
  0.6130   -0.76500
  0.6150   -0.79700
  0.6170   -0.82800
  0.6190   -0.85700
  0.6210   -0.88500
  0.6230   -0.91100
  0.6250   -0.93500
  0.6270   -0.95700
  0.6290   -0.97700
  0.6310   -0.99600
  0.6330   -1.01300
  0.6350   -1.02800
  0.6370   -1.04100
  0.6390   -1.05200
  0.6410   -1.06200
  0.6430   -1.06900
  0.6450   -1.07600
  0.6470   -1.08000
  0.6490   -1.08300
  0.6510   -1.08400
  0.6530   -1.08400
  0.6550   -1.08300
  0.6570   -1.08000
  0.6590   -1.07500
  0.6610   -1.06900
  0.6630   -1.06200
  0.6650   -1.05300
  0.6670   -1.04300
  0.6690   -1.03200
  0.6710   -1.01900
  0.6730   -1.00500
  0.6750   -0.99100
  0.6770   -0.97500
  0.6790   -0.95800
  0.6810   -0.94100
  0.6830   -0.92200
  0.6850   -0.90300
  0.6870   -0.88200
  0.6890   -0.86100
  0.6910   -0.83900
  0.6930   -0.81600
  0.6950   -0.79200
  0.6970   -0.76900
  0.6990   -0.74400
  0.7010   -0.71900
  0.7030   -0.69400
  0.7050   -0.66800
  0.7070   -0.64200
  0.7090   -0.61600
  0.7110   -0.58900
  0.7130   -0.56200
  0.7150   -0.53400
  0.7170   -0.50600
  0.7190   -0.47800
  0.7210   -0.45000
  0.7230   -0.42200
  0.7250   -0.39300
  0.7270   -0.36400
  0.7290   -0.33600
  0.7310   -0.30800
  0.7330   -0.27900
  0.7350   -0.25100
  0.7370   -0.22300
  0.7390   -0.19500
  0.7410   -0.16700
  0.7430   -0.14000
  0.7450   -0.11300
  0.7470   -0.08600
  0.7490   -0.05900
  0.7510   -0.03200
  0.7530   -0.00600
  0.7550    0.02000
  0.7570    0.04500
  0.7590    0.07000
  0.7610    0.09400
  0.7630    0.11800
  0.7650    0.14100
  0.7670    0.16400
  0.7690    0.18600
  0.7710    0.20700
  0.7730    0.22800
  0.7750    0.24900
  0.7770    0.26800
  0.7790    0.28800
  0.7810    0.30600
  0.7830    0.32400
  0.7850    0.34100
  0.7870    0.35700
  0.7890    0.37200
  0.7910    0.38700
  0.7930    0.40100
  0.7950    0.41400
  0.7970    0.42600
  0.7990    0.43700
  0.8010    0.44800
  0.8030    0.45800
  0.8050    0.46600
  0.8070    0.47400
  0.8090    0.48100
  0.8110    0.48800
  0.8130    0.49300
  0.8150    0.49700
  0.8170    0.50100
  0.8190    0.50300
  0.8210    0.50500
  0.8230    0.50600
  0.8250    0.50600
  0.8270    0.50500
  0.8290    0.50400
  0.8310    0.50100
  0.8330    0.49800
  0.8350    0.49400
  0.8370    0.48900
  0.8390    0.48300
  0.8410    0.47600
  0.8430    0.46900
  0.8450    0.46100
  0.8470    0.45200
  0.8490    0.44300
  0.8510    0.43300
  0.8530    0.42200
  0.8550    0.41100
  0.8570    0.39900
  0.8590    0.38600
  0.8610    0.37300
  0.8630    0.36000
  0.8650    0.34600
  0.8670    0.33200
  0.8690    0.31700
  0.8710    0.30200
  0.8730    0.28700
  0.8750    0.27200
  0.8770    0.25600
  0.8790    0.24000
  0.8810    0.22300
  0.8830    0.20700
  0.8850    0.19100
  0.8870    0.17400
  0.8890    0.15800
  0.8910    0.14100
  0.8930    0.12500
  0.8950    0.10900
  0.8970    0.09200
  0.8990    0.07600
  0.9010    0.06100
  0.9030    0.04500
  0.9050    0.03000
  0.9070    0.01500
  0.9090    0.00000
  0.9110   -0.01400
  0.9130   -0.02800
  0.9150   -0.04100
  0.9170   -0.05400
  0.9190   -0.06700
  0.9210   -0.07900
  0.9230   -0.09100
  0.9250   -0.10200
  0.9270   -0.11300
  0.9290   -0.12300
  0.9310   -0.13300
  0.9330   -0.14200
  0.9350   -0.15000
  0.9370   -0.15800
  0.9390   -0.16500
  0.9410   -0.17200
  0.9430   -0.17900
  0.9450   -0.18500
  0.9470   -0.19000
  0.9490   -0.19400
  0.9510   -0.19900
  0.9530   -0.20200
  0.9550   -0.20500
  0.9570   -0.20800
  0.9590   -0.21000
  0.9610   -0.21100
  0.9630   -0.21200
  0.9650   -0.21300
  0.9670   -0.21300
  0.9690   -0.21200
  0.9710   -0.21200
  0.9730   -0.21000
  0.9750   -0.20900
  0.9770   -0.20700
  0.9790   -0.20500
  0.9810   -0.20200
  0.9830   -0.19900
  0.9850   -0.19500
  0.9870   -0.19100
  0.9890   -0.18700
  0.9910   -0.18300
  0.9930   -0.17800
  0.9950   -0.17300
  0.9970   -0.16800
  0.9990   -0.16300
  1.0010   -0.15700
  1.0030   -0.15200
  1.0050   -0.14600
  1.0070   -0.14000
  1.0090   -0.13300
  1.0110   -0.12700
  1.0130   -0.12000
  1.0150   -0.11400
  1.0170   -0.10700
  1.0190   -0.10000
  1.0210   -0.09300
  1.0230   -0.08600
  1.0250   -0.07900
  1.0270   -0.07200
  1.0290   -0.06500
  1.0310   -0.05700
  1.0330   -0.05000
  1.0350   -0.04300
  1.0370   -0.03500
  1.0390   -0.02800
  1.0410   -0.02000
  1.0430   -0.01300
  1.0450   -0.00500
  1.0470    0.00200
  1.0490    0.00900
  1.0510    0.01700
  1.0530    0.02400
  1.0550    0.03100
  1.0570    0.03800
  1.0590    0.04500
  1.0610    0.05200
  1.0630    0.05800
  1.0650    0.06500
  1.0670    0.07100
  1.0690    0.07800
  1.0710    0.08400
  1.0730    0.09000
  1.0750    0.09600
  1.0770    0.10100
  1.0790    0.10700
  1.0810    0.11200
  1.0830    0.11700
  1.0850    0.12200
  1.0870    0.12700
  1.0890    0.13100
  1.0910    0.13600
  1.0930    0.14000
  1.0950    0.14400
  1.0970    0.14700
  1.0990    0.15100
  1.1010    0.15400
  1.1030    0.15600
  1.1050    0.15900
  1.1070    0.16100
  1.1090    0.16300
  1.1110    0.16500
  1.1130    0.16700
  1.1150    0.16800
  1.1170    0.16900
  1.1190    0.17000
  1.1210    0.17100
  1.1230    0.17100
  1.1250    0.17100
  1.1270    0.17100
  1.1290    0.17100
  1.1310    0.17000
  1.1330    0.17000
  1.1350    0.16900
  1.1370    0.16800
  1.1390    0.16600
  1.1410    0.16500
  1.1430    0.16400
  1.1450    0.16200
  1.1470    0.16000
  1.1490    0.15800
  1.1510    0.15600
  1.1530    0.15300
  1.1550    0.15100
  1.1570    0.14900
  1.1590    0.14600
  1.1610    0.14300
  1.1630    0.14000
  1.1650    0.13700
  1.1670    0.13400
  1.1690    0.13100
  1.1710    0.12800
  1.1730    0.12500
  1.1750    0.12100
  1.1770    0.11800
  1.1790    0.11400
  1.1810    0.11100
  1.1830    0.10700
  1.1850    0.10400
  1.1870    0.10100
  1.1890    0.09700
  1.1910    0.09400
  1.1930    0.09000
  1.1950    0.08700
  1.1970    0.08300
  1.1990    0.07900
  1.2010    0.07600
  1.2030    0.07200
  1.2050    0.06900
  1.2070    0.06500
  1.2090    0.06200
  1.2110    0.05900
  1.2130    0.05500
  1.2150    0.05200
  1.2170    0.04900
  1.2190    0.04600
  1.2210    0.04300
  1.2230    0.04000
  1.2250    0.03700
  1.2270    0.03400
  1.2290    0.03200
  1.2310    0.02900
  1.2330    0.02700
  1.2350    0.02400
  1.2370    0.02200
  1.2390    0.02000
  1.2410    0.01700
  1.2430    0.01500
  1.2450    0.01300
  1.2470    0.01100
  1.2490    0.00900
  1.2510    0.00700
  1.2530    0.00500
  1.2550    0.00300
  1.2570    0.00100
  1.2590    0.00000
  1.2610   -0.00200
  1.2630   -0.00400
  1.2650   -0.00500
  1.2670   -0.00700
  1.2690   -0.00800
  1.2710   -0.01000
  1.2730   -0.01100
  1.2750   -0.01200
  1.2770   -0.01300
  1.2790   -0.01500
  1.2810   -0.01600
  1.2830   -0.01700
  1.2850   -0.01800
  1.2870   -0.02000
  1.2890   -0.02100
  1.2910   -0.02200
  1.2930   -0.02300
  1.2950   -0.02400
  1.2970   -0.02500
  1.2990   -0.02600
  1.3010   -0.02700
  1.3030   -0.02800
  1.3050   -0.02900
  1.3070   -0.03000
  1.3090   -0.03100
  1.3110   -0.03200
  1.3130   -0.03200
  1.3150   -0.03300
  1.3170   -0.03300
  1.3190   -0.03400
  1.3210   -0.03400
  1.3230   -0.03400
  1.3250   -0.03500
  1.3270   -0.03500
  1.3290   -0.03500
  1.3310   -0.03400
  1.3330   -0.03400
  1.3350   -0.03400
  1.3370   -0.03300
  1.3390   -0.03200
  1.3410   -0.03100
  1.3430   -0.03000
  1.3450   -0.02900
  1.3470   -0.02800
  1.3490   -0.02600
  1.3510   -0.02500
  1.3530   -0.02300
  1.3550   -0.02100
  1.3570   -0.01900
  1.3590   -0.01700
  1.3610   -0.01500
  1.3630   -0.01300
  1.3650   -0.01100
  1.3670   -0.00800
  1.3690   -0.00500
  1.3710   -0.00300
  1.3730    0.00000
  1.3750    0.00300
  1.3770    0.00600
  1.3790    0.00800
  1.3810    0.01100
  1.3830    0.01400
  1.3850    0.01600
  1.3870    0.01900
  1.3890    0.02100
  1.3910    0.02400
  1.3930    0.02600
  1.3950    0.02700
  1.3970    0.02900
  1.3990    0.03000
