# z (nm)   (kJ/mol)
  0.143000,  2.014000
  0.145000,  1.307000
  0.147000,  0.613000
  0.149000, -0.047000
  0.151000, -0.691000
  0.153000, -1.356000
  0.155000, -2.011000
  0.157000, -2.660000
  0.159000, -3.312000
  0.161000, -3.957000
  0.163000, -4.604000
  0.165000, -5.242000
  0.167000, -5.865000
  0.169000, -6.480000
  0.171000, -7.074000
  0.173000, -7.650000
  0.175000, -8.217000
  0.177000, -8.775000
  0.179000, -9.318000
  0.181000, -9.841000
  0.183000,-10.343000
  0.185000,-10.824000
  0.187000,-11.287000
  0.189000,-11.733000
  0.191000,-12.160000
  0.193000,-12.568000
  0.195000,-12.955000
  0.197000,-13.325000
  0.199000,-13.679000
  0.201000,-14.011000
  0.203000,-14.324000
  0.205000,-14.618000
  0.207000,-14.890000
  0.209000,-15.143000
  0.211000,-15.378000
  0.213000,-15.594000
  0.215000,-15.790000
  0.217000,-15.967000
  0.219000,-16.125000
  0.221000,-16.265000
  0.223000,-16.386000
  0.225000,-16.489000
  0.227000,-16.575000
  0.229000,-16.643000
  0.231000,-16.696000
  0.233000,-16.733000
  0.235000,-16.752000
  0.237000,-16.759000
  0.239000,-16.753000
  0.241000,-16.731000
  0.243000,-16.697000
  0.245000,-16.650000
  0.247000,-16.590000
  0.249000,-16.521000
  0.251000,-16.442000
  0.253000,-16.357000
  0.255000,-16.264000
  0.257000,-16.159000
  0.259000,-16.047000
  0.261000,-15.931000
  0.263000,-15.812000
  0.265000,-15.687000
  0.267000,-15.556000
  0.269000,-15.421000
  0.271000,-15.285000
  0.273000,-15.146000
  0.275000,-15.006000
  0.277000,-14.865000
  0.279000,-14.723000
  0.281000,-14.581000
  0.283000,-14.439000
  0.285000,-14.297000
  0.287000,-14.157000
  0.289000,-14.017000
  0.291000,-13.879000
  0.293000,-13.742000
  0.295000,-13.605000
  0.297000,-13.470000
  0.299000,-13.338000
  0.301000,-13.206000
  0.303000,-13.075000
  0.305000,-12.947000
  0.307000,-12.820000
  0.309000,-12.694000
  0.311000,-12.570000
  0.313000,-12.447000
  0.315000,-12.326000
  0.317000,-12.206000
  0.319000,-12.086000
  0.321000,-11.968000
  0.323000,-11.852000
  0.325000,-11.736000
  0.327000,-11.620000
  0.329000,-11.505000
  0.331000,-11.391000
  0.333000,-11.278000
  0.335000,-11.165000
  0.337000,-11.052000
  0.339000,-10.938000
  0.341000,-10.824000
  0.343000,-10.711000
  0.345000,-10.599000
  0.347000,-10.485000
  0.349000,-10.371000
  0.351000,-10.257000
  0.353000,-10.143000
  0.355000,-10.028000
  0.357000, -9.913000
  0.359000, -9.797000
  0.361000, -9.681000
  0.363000, -9.565000
  0.365000, -9.448000
  0.367000, -9.330000
  0.369000, -9.213000
  0.371000, -9.095000
  0.373000, -8.976000
  0.375000, -8.857000
  0.377000, -8.737000
  0.379000, -8.618000
  0.381000, -8.497000
  0.383000, -8.377000
  0.385000, -8.256000
  0.387000, -8.135000
  0.389000, -8.014000
  0.391000, -7.892000
  0.393000, -7.771000
  0.395000, -7.649000
  0.397000, -7.527000
  0.399000, -7.406000
  0.401000, -7.284000
  0.403000, -7.162000
  0.405000, -7.040000
  0.407000, -6.918000
  0.409000, -6.796000
  0.411000, -6.675000
  0.413000, -6.554000
  0.415000, -6.432000
  0.417000, -6.311000
  0.419000, -6.191000
  0.421000, -6.071000
  0.423000, -5.951000
  0.425000, -5.832000
  0.427000, -5.713000
  0.429000, -5.595000
  0.431000, -5.477000
  0.433000, -5.361000
  0.435000, -5.245000
  0.437000, -5.129000
  0.439000, -5.015000
  0.441000, -4.902000
  0.443000, -4.790000
  0.445000, -4.679000
  0.447000, -4.569000
  0.449000, -4.462000
  0.451000, -4.355000
  0.453000, -4.250000
  0.455000, -4.146000
  0.457000, -4.044000
  0.459000, -3.944000
  0.461000, -3.845000
  0.463000, -3.748000
  0.465000, -3.653000
  0.467000, -3.560000
  0.469000, -3.470000
  0.471000, -3.381000
  0.473000, -3.294000
  0.475000, -3.209000
  0.477000, -3.127000
  0.479000, -3.047000
  0.481000, -2.970000
  0.483000, -2.895000
  0.485000, -2.823000
  0.487000, -2.753000
  0.489000, -2.685000
  0.491000, -2.621000
  0.493000, -2.559000
  0.495000, -2.499000
  0.497000, -2.443000
  0.499000, -2.389000
  0.501000, -2.338000
  0.503000, -2.289000
  0.505000, -2.243000
  0.507000, -2.199000
  0.509000, -2.158000
  0.511000, -2.120000
  0.513000, -2.084000
  0.515000, -2.051000
  0.517000, -2.020000
  0.519000, -1.992000
  0.521000, -1.966000
  0.523000, -1.942000
  0.525000, -1.920000
  0.527000, -1.900000
  0.529000, -1.883000
  0.531000, -1.868000
  0.533000, -1.854000
  0.535000, -1.841000
  0.537000, -1.831000
  0.539000, -1.822000
  0.541000, -1.815000
  0.543000, -1.809000
  0.545000, -1.805000
  0.547000, -1.802000
  0.549000, -1.800000
  0.551000, -1.799000
  0.553000, -1.799000
  0.555000, -1.800000
  0.557000, -1.802000
  0.559000, -1.804000
  0.561000, -1.807000
  0.563000, -1.811000
  0.565000, -1.814000
  0.567000, -1.819000
  0.569000, -1.824000
  0.571000, -1.829000
  0.573000, -1.833000
  0.575000, -1.838000
  0.577000, -1.843000
  0.579000, -1.847000
  0.581000, -1.851000
  0.583000, -1.856000
  0.585000, -1.860000
  0.587000, -1.863000
  0.589000, -1.867000
  0.591000, -1.869000
  0.593000, -1.871000
  0.595000, -1.873000
  0.597000, -1.875000
  0.599000, -1.875000
  0.601000, -1.876000
  0.603000, -1.875000
  0.605000, -1.874000
  0.607000, -1.873000
  0.609000, -1.870000
  0.611000, -1.867000
  0.613000, -1.864000
  0.615000, -1.859000
  0.617000, -1.854000
  0.619000, -1.849000
  0.621000, -1.843000
  0.623000, -1.836000
  0.625000, -1.828000
  0.627000, -1.820000
  0.629000, -1.811000
  0.631000, -1.801000
  0.633000, -1.790000
  0.635000, -1.779000
  0.637000, -1.768000
  0.639000, -1.755000
  0.641000, -1.742000
  0.643000, -1.729000
  0.645000, -1.715000
  0.647000, -1.700000
  0.649000, -1.685000
  0.651000, -1.670000
  0.653000, -1.653000
  0.655000, -1.637000
  0.657000, -1.619000
  0.659000, -1.602000
  0.661000, -1.584000
  0.663000, -1.565000
  0.665000, -1.546000
  0.667000, -1.527000
  0.669000, -1.507000
  0.671000, -1.487000
  0.673000, -1.466000
  0.675000, -1.446000
  0.677000, -1.425000
  0.679000, -1.404000
  0.681000, -1.383000
  0.683000, -1.361000
  0.685000, -1.340000
  0.687000, -1.318000
  0.689000, -1.296000
  0.691000, -1.273000
  0.693000, -1.251000
  0.695000, -1.229000
  0.697000, -1.206000
  0.699000, -1.184000
  0.701000, -1.162000
  0.703000, -1.139000
  0.705000, -1.117000
  0.707000, -1.095000
  0.709000, -1.073000
  0.711000, -1.051000
  0.713000, -1.030000
  0.715000, -1.008000
  0.717000, -0.987000
  0.719000, -0.966000
  0.721000, -0.945000
  0.723000, -0.924000
  0.725000, -0.904000
  0.727000, -0.884000
  0.729000, -0.865000
  0.731000, -0.845000
  0.733000, -0.826000
  0.735000, -0.808000
  0.737000, -0.790000
  0.739000, -0.772000
  0.741000, -0.755000
  0.743000, -0.738000
  0.745000, -0.722000
  0.747000, -0.706000
  0.749000, -0.690000
  0.751000, -0.675000
  0.753000, -0.661000
  0.755000, -0.647000
  0.757000, -0.634000
  0.759000, -0.621000
  0.761000, -0.608000
  0.763000, -0.596000
  0.765000, -0.584000
  0.767000, -0.573000
  0.769000, -0.563000
  0.771000, -0.553000
  0.773000, -0.543000
  0.775000, -0.534000
  0.777000, -0.525000
  0.779000, -0.517000
  0.781000, -0.510000
  0.783000, -0.502000
  0.785000, -0.496000
  0.787000, -0.489000
  0.789000, -0.483000
  0.791000, -0.478000
  0.793000, -0.473000
  0.795000, -0.468000
  0.797000, -0.463000
  0.799000, -0.459000
  0.801000, -0.456000
  0.803000, -0.452000
  0.805000, -0.449000
  0.807000, -0.446000
  0.809000, -0.443000
  0.811000, -0.441000
  0.813000, -0.439000
  0.815000, -0.437000
  0.817000, -0.435000
  0.819000, -0.433000
  0.821000, -0.432000
  0.823000, -0.431000
  0.825000, -0.429000
  0.827000, -0.428000
  0.829000, -0.428000
  0.831000, -0.427000
  0.833000, -0.426000
  0.835000, -0.426000
  0.837000, -0.425000
  0.839000, -0.425000
  0.841000, -0.425000
  0.843000, -0.424000
  0.845000, -0.424000
  0.847000, -0.423000
  0.849000, -0.423000
  0.851000, -0.423000
  0.853000, -0.423000
  0.855000, -0.422000
  0.857000, -0.422000
  0.859000, -0.421000
  0.861000, -0.421000
  0.863000, -0.421000
  0.865000, -0.421000
  0.867000, -0.420000
  0.869000, -0.420000
  0.871000, -0.419000
  0.873000, -0.419000
  0.875000, -0.418000
  0.877000, -0.417000
  0.879000, -0.417000
  0.881000, -0.416000
  0.883000, -0.415000
  0.885000, -0.415000
  0.887000, -0.414000
  0.889000, -0.413000
  0.891000, -0.412000
  0.893000, -0.411000
  0.895000, -0.410000
  0.897000, -0.409000
  0.899000, -0.408000
  0.901000, -0.406000
  0.903000, -0.405000
  0.905000, -0.404000
  0.907000, -0.402000
  0.909000, -0.401000
  0.911000, -0.400000
  0.913000, -0.398000
  0.915000, -0.397000
  0.917000, -0.395000
  0.919000, -0.394000
  0.921000, -0.392000
  0.923000, -0.391000
  0.925000, -0.389000
  0.927000, -0.387000
  0.929000, -0.385000
  0.931000, -0.384000
  0.933000, -0.382000
  0.935000, -0.380000
  0.937000, -0.378000
  0.939000, -0.376000
  0.941000, -0.374000
  0.943000, -0.371000
  0.945000, -0.369000
  0.947000, -0.367000
  0.949000, -0.365000
  0.951000, -0.363000
  0.953000, -0.361000
  0.955000, -0.358000
  0.957000, -0.356000
  0.959000, -0.354000
  0.961000, -0.351000
  0.963000, -0.349000
  0.965000, -0.347000
  0.967000, -0.344000
  0.969000, -0.342000
  0.971000, -0.339000
  0.973000, -0.337000
  0.975000, -0.335000
  0.977000, -0.332000
  0.979000, -0.330000
  0.981000, -0.327000
  0.983000, -0.325000
  0.985000, -0.323000
  0.987000, -0.321000
  0.989000, -0.318000
  0.991000, -0.316000
  0.993000, -0.314000
  0.995000, -0.312000
  0.997000, -0.309000
  0.999000, -0.307000
  1.001000, -0.305000
  1.003000, -0.303000
  1.005000, -0.301000
  1.007000, -0.300000
  1.009000, -0.298000
  1.011000, -0.296000
  1.013000, -0.294000
  1.015000, -0.292000
  1.017000, -0.290000
  1.019000, -0.289000
  1.021000, -0.287000
  1.023000, -0.286000
  1.025000, -0.284000
  1.027000, -0.283000
  1.029000, -0.282000
  1.031000, -0.280000
  1.033000, -0.279000
  1.035000, -0.277000
  1.037000, -0.276000
  1.039000, -0.274000
  1.041000, -0.273000
  1.043000, -0.271000
  1.045000, -0.270000
  1.047000, -0.268000
  1.049000, -0.267000
  1.051000, -0.265000
  1.053000, -0.264000
  1.055000, -0.262000
  1.057000, -0.260000
  1.059000, -0.258000
  1.061000, -0.257000
  1.063000, -0.255000
  1.065000, -0.253000
  1.067000, -0.250000
  1.069000, -0.248000
  1.071000, -0.246000
  1.073000, -0.244000
  1.075000, -0.241000
  1.077000, -0.239000
  1.079000, -0.236000
  1.081000, -0.233000
  1.083000, -0.231000
  1.085000, -0.228000
  1.087000, -0.225000
  1.089000, -0.222000
  1.091000, -0.219000
  1.093000, -0.215000
  1.095000, -0.212000
  1.097000, -0.209000
  1.099000, -0.206000
  1.101000, -0.202000
  1.103000, -0.199000
  1.105000, -0.196000
  1.107000, -0.192000
  1.109000, -0.189000
  1.111000, -0.185000
  1.113000, -0.182000
  1.115000, -0.178000
  1.117000, -0.175000
  1.119000, -0.171000
  1.121000, -0.168000
  1.123000, -0.165000
  1.125000, -0.161000
  1.127000, -0.158000
  1.129000, -0.155000
  1.131000, -0.151000
  1.133000, -0.148000
  1.135000, -0.145000
  1.137000, -0.142000
  1.139000, -0.139000
  1.141000, -0.136000
  1.143000, -0.133000
  1.145000, -0.130000
  1.147000, -0.127000
  1.149000, -0.124000
  1.151000, -0.121000
  1.153000, -0.119000
  1.155000, -0.116000
  1.157000, -0.114000
  1.159000, -0.111000
  1.161000, -0.109000
  1.163000, -0.107000
  1.165000, -0.104000
  1.167000, -0.102000
  1.169000, -0.100000
  1.171000, -0.098000
  1.173000, -0.096000
  1.175000, -0.094000
  1.177000, -0.092000
  1.179000, -0.090000
  1.181000, -0.088000
  1.183000, -0.086000
  1.185000, -0.085000
  1.187000, -0.083000
  1.189000, -0.081000
  1.191000, -0.080000
  1.193000, -0.078000
  1.195000, -0.077000
  1.197000, -0.075000
  1.199000, -0.074000
  1.201000, -0.073000
  1.203000, -0.072000
  1.205000, -0.071000
  1.207000, -0.070000
  1.209000, -0.069000
  1.211000, -0.068000
  1.213000, -0.067000
  1.215000, -0.066000
  1.217000, -0.065000
  1.219000, -0.065000
  1.221000, -0.064000
  1.223000, -0.063000
  1.225000, -0.062000
  1.227000, -0.062000
  1.229000, -0.062000
  1.231000, -0.061000
  1.233000, -0.061000
  1.235000, -0.060000
  1.237000, -0.060000
  1.239000, -0.060000
  1.241000, -0.059000
  1.243000, -0.059000
  1.245000, -0.059000
  1.247000, -0.058000
  1.249000, -0.058000
  1.251000, -0.057000
  1.253000, -0.057000
  1.255000, -0.056000
  1.257000, -0.056000
  1.259000, -0.055000
  1.261000, -0.055000
  1.263000, -0.054000
  1.265000, -0.053000
  1.267000, -0.052000
  1.269000, -0.052000
  1.271000, -0.051000
  1.273000, -0.050000
  1.275000, -0.049000
  1.277000, -0.048000
  1.279000, -0.047000
  1.281000, -0.046000
  1.283000, -0.044000
  1.285000, -0.043000
  1.287000, -0.042000
  1.289000, -0.040000
  1.291000, -0.038000
  1.293000, -0.037000
  1.295000, -0.035000
  1.297000, -0.033000
  1.299000, -0.030000
  1.301000, -0.028000
  1.303000, -0.025000
  1.305000, -0.023000
  1.307000, -0.020000
  1.309000, -0.017000
  1.311000, -0.014000
  1.313000, -0.011000
  1.315000, -0.008000
  1.317000, -0.005000
  1.319000, -0.002000
  1.321000,  0.002000
  1.323000,  0.006000
  1.325000,  0.010000
  1.327000,  0.013000
  1.329000,  0.017000
  1.331000,  0.021000
  1.333000,  0.025000
  1.335000,  0.029000
  1.337000,  0.033000
  1.339000,  0.037000
  1.341000,  0.041000
  1.343000,  0.045000
  1.345000,  0.050000
  1.347000,  0.054000
  1.349000,  0.058000
  1.351000,  0.062000
  1.353000,  0.066000
  1.355000,  0.071000
  1.357000,  0.075000
  1.359000,  0.079000
  1.361000,  0.083000
  1.363000,  0.087000
  1.365000,  0.091000
  1.367000,  0.095000
  1.369000,  0.098000
  1.371000,  0.102000
  1.373000,  0.105000
  1.375000,  0.108000
  1.377000,  0.111000
  1.379000,  0.114000
  1.381000,  0.117000
  1.383000,  0.119000
  1.385000,  0.121000
  1.387000,  0.123000
  1.389000,  0.124000
  1.391000,  0.126000
  1.393000,  0.127000
  1.395000,  0.127000
  1.397000,  0.127000
  1.399000,  0.126000
