# z (nm)   (kJ/mol)
  0.155000,  5.252000
  0.157000,  4.763000
  0.159000,  4.242000
  0.161000,  3.776000
  0.163000,  3.304000
  0.165000,  2.812000
  0.167000,  2.323000
  0.169000,  1.830000
  0.171000,  1.317000
  0.173000,  0.786000
  0.175000,  0.249000
  0.177000, -0.281000
  0.179000, -0.814000
  0.181000, -1.362000
  0.183000, -1.921000
  0.185000, -2.490000
  0.187000, -3.065000
  0.189000, -3.643000
  0.191000, -4.225000
  0.193000, -4.813000
  0.195000, -5.405000
  0.197000, -5.991000
  0.199000, -6.577000
  0.201000, -7.163000
  0.203000, -7.741000
  0.205000, -8.320000
  0.207000, -8.893000
  0.209000, -9.454000
  0.211000,-10.010000
  0.213000,-10.553000
  0.215000,-11.083000
  0.217000,-11.603000
  0.219000,-12.111000
  0.221000,-12.606000
  0.223000,-13.083000
  0.225000,-13.541000
  0.227000,-13.980000
  0.229000,-14.402000
  0.231000,-14.806000
  0.233000,-15.192000
  0.235000,-15.559000
  0.237000,-15.904000
  0.239000,-16.229000
  0.241000,-16.532000
  0.243000,-16.813000
  0.245000,-17.072000
  0.247000,-17.310000
  0.249000,-17.527000
  0.251000,-17.722000
  0.253000,-17.896000
  0.255000,-18.049000
  0.257000,-18.181000
  0.259000,-18.292000
  0.261000,-18.384000
  0.263000,-18.456000
  0.265000,-18.508000
  0.267000,-18.543000
  0.269000,-18.561000
  0.271000,-18.559000
  0.273000,-18.540000
  0.275000,-18.507000
  0.277000,-18.459000
  0.279000,-18.398000
  0.281000,-18.322000
  0.283000,-18.233000
  0.285000,-18.133000
  0.287000,-18.023000
  0.289000,-17.905000
  0.291000,-17.779000
  0.293000,-17.647000
  0.295000,-17.507000
  0.297000,-17.361000
  0.299000,-17.211000
  0.301000,-17.056000
  0.303000,-16.897000
  0.305000,-16.737000
  0.307000,-16.576000
  0.309000,-16.414000
  0.311000,-16.249000
  0.313000,-16.083000
  0.315000,-15.920000
  0.317000,-15.758000
  0.319000,-15.599000
  0.321000,-15.441000
  0.323000,-15.285000
  0.325000,-15.132000
  0.327000,-14.981000
  0.329000,-14.835000
  0.331000,-14.693000
  0.333000,-14.555000
  0.335000,-14.421000
  0.337000,-14.290000
  0.339000,-14.164000
  0.341000,-14.042000
  0.343000,-13.923000
  0.345000,-13.809000
  0.347000,-13.698000
  0.349000,-13.590000
  0.351000,-13.486000
  0.353000,-13.386000
  0.355000,-13.289000
  0.357000,-13.195000
  0.359000,-13.103000
  0.361000,-13.013000
  0.363000,-12.926000
  0.365000,-12.841000
  0.367000,-12.758000
  0.369000,-12.677000
  0.371000,-12.596000
  0.373000,-12.517000
  0.375000,-12.439000
  0.377000,-12.362000
  0.379000,-12.284000
  0.381000,-12.207000
  0.383000,-12.130000
  0.385000,-12.052000
  0.387000,-11.974000
  0.389000,-11.896000
  0.391000,-11.817000
  0.393000,-11.737000
  0.395000,-11.655000
  0.397000,-11.572000
  0.399000,-11.488000
  0.401000,-11.402000
  0.403000,-11.315000
  0.405000,-11.226000
  0.407000,-11.137000
  0.409000,-11.045000
  0.411000,-10.951000
  0.413000,-10.856000
  0.415000,-10.758000
  0.417000,-10.659000
  0.419000,-10.558000
  0.421000,-10.455000
  0.423000,-10.350000
  0.425000,-10.243000
  0.427000,-10.135000
  0.429000,-10.025000
  0.431000, -9.913000
  0.433000, -9.800000
  0.435000, -9.685000
  0.437000, -9.568000
  0.439000, -9.450000
  0.441000, -9.330000
  0.443000, -9.208000
  0.445000, -9.085000
  0.447000, -8.961000
  0.449000, -8.836000
  0.451000, -8.709000
  0.453000, -8.582000
  0.455000, -8.453000
  0.457000, -8.323000
  0.459000, -8.192000
  0.461000, -8.061000
  0.463000, -7.929000
  0.465000, -7.796000
  0.467000, -7.663000
  0.469000, -7.529000
  0.471000, -7.395000
  0.473000, -7.260000
  0.475000, -7.126000
  0.477000, -6.992000
  0.479000, -6.858000
  0.481000, -6.723000
  0.483000, -6.590000
  0.485000, -6.457000
  0.487000, -6.325000
  0.489000, -6.194000
  0.491000, -6.063000
  0.493000, -5.934000
  0.495000, -5.805000
  0.497000, -5.678000
  0.499000, -5.552000
  0.501000, -5.428000
  0.503000, -5.305000
  0.505000, -5.184000
  0.507000, -5.065000
  0.509000, -4.947000
  0.511000, -4.832000
  0.513000, -4.719000
  0.515000, -4.608000
  0.517000, -4.500000
  0.519000, -4.394000
  0.521000, -4.289000
  0.523000, -4.188000
  0.525000, -4.089000
  0.527000, -3.993000
  0.529000, -3.900000
  0.531000, -3.808000
  0.533000, -3.720000
  0.535000, -3.635000
  0.537000, -3.552000
  0.539000, -3.472000
  0.541000, -3.394000
  0.543000, -3.320000
  0.545000, -3.248000
  0.547000, -3.179000
  0.549000, -3.113000
  0.551000, -3.049000
  0.553000, -2.988000
  0.555000, -2.930000
  0.557000, -2.874000
  0.559000, -2.821000
  0.561000, -2.771000
  0.563000, -2.723000
  0.565000, -2.677000
  0.567000, -2.634000
  0.569000, -2.594000
  0.571000, -2.555000
  0.573000, -2.519000
  0.575000, -2.485000
  0.577000, -2.453000
  0.579000, -2.424000
  0.581000, -2.395000
  0.583000, -2.369000
  0.585000, -2.344000
  0.587000, -2.321000
  0.589000, -2.299000
  0.591000, -2.280000
  0.593000, -2.261000
  0.595000, -2.244000
  0.597000, -2.227000
  0.599000, -2.213000
  0.601000, -2.199000
  0.603000, -2.186000
  0.605000, -2.175000
  0.607000, -2.163000
  0.609000, -2.153000
  0.611000, -2.144000
  0.613000, -2.135000
  0.615000, -2.126000
  0.617000, -2.118000
  0.619000, -2.111000
  0.621000, -2.104000
  0.623000, -2.097000
  0.625000, -2.090000
  0.627000, -2.084000
  0.629000, -2.079000
  0.631000, -2.073000
  0.633000, -2.067000
  0.635000, -2.061000
  0.637000, -2.056000
  0.639000, -2.050000
  0.641000, -2.044000
  0.643000, -2.038000
  0.645000, -2.032000
  0.647000, -2.027000
  0.649000, -2.021000
  0.651000, -2.015000
  0.653000, -2.009000
  0.655000, -2.003000
  0.657000, -1.997000
  0.659000, -1.991000
  0.661000, -1.984000
  0.663000, -1.978000
  0.665000, -1.971000
  0.667000, -1.964000
  0.669000, -1.957000
  0.671000, -1.950000
  0.673000, -1.943000
  0.675000, -1.936000
  0.677000, -1.929000
  0.679000, -1.921000
  0.681000, -1.914000
  0.683000, -1.906000
  0.685000, -1.898000
  0.687000, -1.890000
  0.689000, -1.882000
  0.691000, -1.873000
  0.693000, -1.865000
  0.695000, -1.857000
  0.697000, -1.848000
  0.699000, -1.839000
  0.701000, -1.831000
  0.703000, -1.822000
  0.705000, -1.813000
  0.707000, -1.804000
  0.709000, -1.795000
  0.711000, -1.786000
  0.713000, -1.777000
  0.715000, -1.768000
  0.717000, -1.759000
  0.719000, -1.749000
  0.721000, -1.740000
  0.723000, -1.731000
  0.725000, -1.721000
  0.727000, -1.712000
  0.729000, -1.702000
  0.731000, -1.693000
  0.733000, -1.684000
  0.735000, -1.674000
  0.737000, -1.665000
  0.739000, -1.656000
  0.741000, -1.646000
  0.743000, -1.637000
  0.745000, -1.627000
  0.747000, -1.618000
  0.749000, -1.608000
  0.751000, -1.599000
  0.753000, -1.589000
  0.755000, -1.579000
  0.757000, -1.570000
  0.759000, -1.560000
  0.761000, -1.550000
  0.763000, -1.540000
  0.765000, -1.530000
  0.767000, -1.520000
  0.769000, -1.510000
  0.771000, -1.499000
  0.773000, -1.489000
  0.775000, -1.479000
  0.777000, -1.468000
  0.779000, -1.457000
  0.781000, -1.446000
  0.783000, -1.435000
  0.785000, -1.424000
  0.787000, -1.413000
  0.789000, -1.401000
  0.791000, -1.390000
  0.793000, -1.378000
  0.795000, -1.366000
  0.797000, -1.354000
  0.799000, -1.341000
  0.801000, -1.329000
  0.803000, -1.316000
  0.805000, -1.304000
  0.807000, -1.291000
  0.809000, -1.278000
  0.811000, -1.265000
  0.813000, -1.252000
  0.815000, -1.238000
  0.817000, -1.225000
  0.819000, -1.212000
  0.821000, -1.198000
  0.823000, -1.184000
  0.825000, -1.171000
  0.827000, -1.157000
  0.829000, -1.144000
  0.831000, -1.130000
  0.833000, -1.116000
  0.835000, -1.102000
  0.837000, -1.088000
  0.839000, -1.075000
  0.841000, -1.062000
  0.843000, -1.049000
  0.845000, -1.036000
  0.847000, -1.023000
  0.849000, -1.010000
  0.851000, -0.997000
  0.853000, -0.985000
  0.855000, -0.973000
  0.857000, -0.961000
  0.859000, -0.949000
  0.861000, -0.937000
  0.863000, -0.926000
  0.865000, -0.915000
  0.867000, -0.905000
  0.869000, -0.894000
  0.871000, -0.883000
  0.873000, -0.873000
  0.875000, -0.864000
  0.877000, -0.855000
  0.879000, -0.845000
  0.881000, -0.837000
  0.883000, -0.828000
  0.885000, -0.820000
  0.887000, -0.812000
  0.889000, -0.804000
  0.891000, -0.797000
  0.893000, -0.790000
  0.895000, -0.782000
  0.897000, -0.776000
  0.899000, -0.769000
  0.901000, -0.763000
  0.903000, -0.758000
  0.905000, -0.752000
  0.907000, -0.746000
  0.909000, -0.741000
  0.911000, -0.736000
  0.913000, -0.731000
  0.915000, -0.726000
  0.917000, -0.721000
  0.919000, -0.717000
  0.921000, -0.712000
  0.923000, -0.708000
  0.925000, -0.704000
  0.927000, -0.700000
  0.929000, -0.696000
  0.931000, -0.692000
  0.933000, -0.688000
  0.935000, -0.684000
  0.937000, -0.680000
  0.939000, -0.676000
  0.941000, -0.672000
  0.943000, -0.668000
  0.945000, -0.664000
  0.947000, -0.660000
  0.949000, -0.657000
  0.951000, -0.653000
  0.953000, -0.649000
  0.955000, -0.645000
  0.957000, -0.641000
  0.959000, -0.637000
  0.961000, -0.633000
  0.963000, -0.629000
  0.965000, -0.625000
  0.967000, -0.620000
  0.969000, -0.616000
  0.971000, -0.612000
  0.973000, -0.607000
  0.975000, -0.602000
  0.977000, -0.598000
  0.979000, -0.593000
  0.981000, -0.589000
  0.983000, -0.584000
  0.985000, -0.579000
  0.987000, -0.574000
  0.989000, -0.569000
  0.991000, -0.564000
  0.993000, -0.559000
  0.995000, -0.554000
  0.997000, -0.549000
  0.999000, -0.544000
  1.001000, -0.538000
  1.003000, -0.533000
  1.005000, -0.528000
  1.007000, -0.522000
  1.009000, -0.517000
  1.011000, -0.511000
  1.013000, -0.505000
  1.015000, -0.500000
  1.017000, -0.494000
  1.019000, -0.488000
  1.021000, -0.482000
  1.023000, -0.476000
  1.025000, -0.470000
  1.027000, -0.463000
  1.029000, -0.457000
  1.031000, -0.451000
  1.033000, -0.444000
  1.035000, -0.438000
  1.037000, -0.431000
  1.039000, -0.424000
  1.041000, -0.418000
  1.043000, -0.411000
  1.045000, -0.404000
  1.047000, -0.397000
  1.049000, -0.391000
  1.051000, -0.384000
  1.053000, -0.378000
  1.055000, -0.371000
  1.057000, -0.364000
  1.059000, -0.358000
  1.061000, -0.351000
  1.063000, -0.344000
  1.065000, -0.338000
  1.067000, -0.332000
  1.069000, -0.326000
  1.071000, -0.320000
  1.073000, -0.314000
  1.075000, -0.308000
  1.077000, -0.302000
  1.079000, -0.297000
  1.081000, -0.291000
  1.083000, -0.286000
  1.085000, -0.281000
  1.087000, -0.276000
  1.089000, -0.271000
  1.091000, -0.266000
  1.093000, -0.262000
  1.095000, -0.257000
  1.097000, -0.253000
  1.099000, -0.249000
  1.101000, -0.245000
  1.103000, -0.241000
  1.105000, -0.238000
  1.107000, -0.234000
  1.109000, -0.231000
  1.111000, -0.228000
  1.113000, -0.225000
  1.115000, -0.222000
  1.117000, -0.219000
  1.119000, -0.216000
  1.121000, -0.213000
  1.123000, -0.210000
  1.125000, -0.208000
  1.127000, -0.205000
  1.129000, -0.202000
  1.131000, -0.199000
  1.133000, -0.197000
  1.135000, -0.194000
  1.137000, -0.192000
  1.139000, -0.189000
  1.141000, -0.186000
  1.143000, -0.184000
  1.145000, -0.181000
  1.147000, -0.178000
  1.149000, -0.175000
  1.151000, -0.172000
  1.153000, -0.169000
  1.155000, -0.166000
  1.157000, -0.163000
  1.159000, -0.159000
  1.161000, -0.156000
  1.163000, -0.152000
  1.165000, -0.149000
  1.167000, -0.145000
  1.169000, -0.141000
  1.171000, -0.138000
  1.173000, -0.133000
  1.175000, -0.130000
  1.177000, -0.126000
  1.179000, -0.122000
  1.181000, -0.118000
  1.183000, -0.113000
  1.185000, -0.109000
  1.187000, -0.105000
  1.189000, -0.101000
  1.191000, -0.097000
  1.193000, -0.093000
  1.195000, -0.089000
  1.197000, -0.084000
  1.199000, -0.080000
  1.201000, -0.076000
  1.203000, -0.072000
  1.205000, -0.068000
  1.207000, -0.064000
  1.209000, -0.061000
  1.211000, -0.057000
  1.213000, -0.053000
  1.215000, -0.049000
  1.217000, -0.046000
  1.219000, -0.042000
  1.221000, -0.039000
  1.223000, -0.036000
  1.225000, -0.032000
  1.227000, -0.029000
  1.229000, -0.026000
  1.231000, -0.023000
  1.233000, -0.021000
  1.235000, -0.018000
  1.237000, -0.015000
  1.239000, -0.012000
  1.241000, -0.010000
  1.243000, -0.008000
  1.245000, -0.006000
  1.247000, -0.003000
  1.249000, -0.001000
  1.251000,  0.000000
  1.253000,  0.002000
  1.255000,  0.004000
  1.257000,  0.005000
  1.259000,  0.007000
  1.261000,  0.009000
  1.263000,  0.010000
  1.265000,  0.011000
  1.267000,  0.012000
  1.269000,  0.013000
  1.271000,  0.013000
  1.273000,  0.014000
  1.275000,  0.015000
  1.277000,  0.015000
  1.279000,  0.016000
  1.281000,  0.016000
  1.283000,  0.016000
  1.285000,  0.016000
  1.287000,  0.016000
  1.289000,  0.016000
  1.291000,  0.016000
  1.293000,  0.015000
  1.295000,  0.015000
  1.297000,  0.014000
  1.299000,  0.014000
  1.301000,  0.013000
  1.303000,  0.012000
  1.305000,  0.011000
  1.307000,  0.010000
  1.309000,  0.009000
  1.311000,  0.008000
  1.313000,  0.006000
  1.315000,  0.005000
  1.317000,  0.004000
  1.319000,  0.003000
  1.321000,  0.002000
  1.323000,  0.000000
  1.325000, -0.001000
  1.327000, -0.002000
  1.329000, -0.003000
  1.331000, -0.004000
  1.333000, -0.005000
  1.335000, -0.005000
  1.337000, -0.006000
  1.339000, -0.006000
  1.341000, -0.007000
  1.343000, -0.007000
  1.345000, -0.006000
  1.347000, -0.006000
  1.349000, -0.005000
  1.351000, -0.005000
  1.353000, -0.004000
  1.355000, -0.003000
  1.357000, -0.002000
  1.359000,  0.000000
  1.361000,  0.002000
  1.363000,  0.004000
  1.365000,  0.006000
  1.367000,  0.008000
  1.369000,  0.011000
  1.371000,  0.014000
  1.373000,  0.018000
  1.375000,  0.021000
  1.377000,  0.025000
  1.379000,  0.028000
  1.381000,  0.032000
  1.383000,  0.036000
  1.385000,  0.040000
  1.387000,  0.044000
  1.389000,  0.048000
  1.391000,  0.052000
  1.393000,  0.056000
  1.395000,  0.059000
  1.397000,  0.063000
  1.399000,  0.067000
