# z (nm)   (kJ/mol)
  0.137000, -6.270000
  0.139000, -7.182000
  0.141000, -8.101000
  0.143000, -9.018000
  0.145000, -9.927000
  0.147000,-10.834000
  0.149000,-11.735000
  0.151000,-12.633000
  0.153000,-13.518000
  0.155000,-14.379000
  0.157000,-15.222000
  0.159000,-16.052000
  0.161000,-16.869000
  0.163000,-17.670000
  0.165000,-18.448000
  0.167000,-19.203000
  0.169000,-19.937000
  0.171000,-20.645000
  0.173000,-21.327000
  0.175000,-21.981000
  0.177000,-22.613000
  0.179000,-23.221000
  0.181000,-23.800000
  0.183000,-24.351000
  0.185000,-24.877000
  0.187000,-25.376000
  0.189000,-25.847000
  0.191000,-26.291000
  0.193000,-26.703000
  0.195000,-27.089000
  0.197000,-27.444000
  0.199000,-27.769000
  0.201000,-28.063000
  0.203000,-28.329000
  0.205000,-28.567000
  0.207000,-28.774000
  0.209000,-28.953000
  0.211000,-29.105000
  0.213000,-29.227000
  0.215000,-29.322000
  0.217000,-29.391000
  0.219000,-29.432000
  0.221000,-29.449000
  0.223000,-29.442000
  0.225000,-29.412000
  0.227000,-29.359000
  0.229000,-29.284000
  0.231000,-29.190000
  0.233000,-29.078000
  0.235000,-28.947000
  0.237000,-28.800000
  0.239000,-28.638000
  0.241000,-28.462000
  0.243000,-28.274000
  0.245000,-28.074000
  0.247000,-27.864000
  0.249000,-27.645000
  0.251000,-27.420000
  0.253000,-27.187000
  0.255000,-26.949000
  0.257000,-26.708000
  0.259000,-26.463000
  0.261000,-26.214000
  0.263000,-25.965000
  0.265000,-25.714000
  0.267000,-25.462000
  0.269000,-25.211000
  0.271000,-24.963000
  0.273000,-24.715000
  0.275000,-24.470000
  0.277000,-24.227000
  0.279000,-23.988000
  0.281000,-23.751000
  0.283000,-23.518000
  0.285000,-23.288000
  0.287000,-23.062000
  0.289000,-22.838000
  0.291000,-22.619000
  0.293000,-22.405000
  0.295000,-22.196000
  0.297000,-21.990000
  0.299000,-21.787000
  0.301000,-21.589000
  0.303000,-21.395000
  0.305000,-21.204000
  0.307000,-21.016000
  0.309000,-20.832000
  0.311000,-20.651000
  0.313000,-20.474000
  0.315000,-20.301000
  0.317000,-20.130000
  0.319000,-19.962000
  0.321000,-19.796000
  0.323000,-19.632000
  0.325000,-19.471000
  0.327000,-19.312000
  0.329000,-19.154000
  0.331000,-18.999000
  0.333000,-18.844000
  0.335000,-18.691000
  0.337000,-18.539000
  0.339000,-18.388000
  0.341000,-18.238000
  0.343000,-18.089000
  0.345000,-17.940000
  0.347000,-17.792000
  0.349000,-17.644000
  0.351000,-17.497000
  0.353000,-17.350000
  0.355000,-17.202000
  0.357000,-17.055000
  0.359000,-16.908000
  0.361000,-16.761000
  0.363000,-16.613000
  0.365000,-16.465000
  0.367000,-16.317000
  0.369000,-16.170000
  0.371000,-16.023000
  0.373000,-15.875000
  0.375000,-15.725000
  0.377000,-15.574000
  0.379000,-15.423000
  0.381000,-15.272000
  0.383000,-15.120000
  0.385000,-14.966000
  0.387000,-14.812000
  0.389000,-14.657000
  0.391000,-14.502000
  0.393000,-14.346000
  0.395000,-14.187000
  0.397000,-14.029000
  0.399000,-13.870000
  0.401000,-13.709000
  0.403000,-13.547000
  0.405000,-13.384000
  0.407000,-13.219000
  0.409000,-13.054000
  0.411000,-12.888000
  0.413000,-12.720000
  0.415000,-12.551000
  0.417000,-12.381000
  0.419000,-12.210000
  0.421000,-12.038000
  0.423000,-11.865000
  0.425000,-11.691000
  0.427000,-11.516000
  0.429000,-11.340000
  0.431000,-11.163000
  0.433000,-10.985000
  0.435000,-10.806000
  0.437000,-10.627000
  0.439000,-10.447000
  0.441000,-10.266000
  0.443000,-10.085000
  0.445000, -9.902000
  0.447000, -9.718000
  0.449000, -9.535000
  0.451000, -9.352000
  0.453000, -9.168000
  0.455000, -8.984000
  0.457000, -8.801000
  0.459000, -8.617000
  0.461000, -8.434000
  0.463000, -8.252000
  0.465000, -8.071000
  0.467000, -7.890000
  0.469000, -7.711000
  0.471000, -7.533000
  0.473000, -7.357000
  0.475000, -7.183000
  0.477000, -7.011000
  0.479000, -6.840000
  0.481000, -6.672000
  0.483000, -6.505000
  0.485000, -6.341000
  0.487000, -6.180000
  0.489000, -6.023000
  0.491000, -5.868000
  0.493000, -5.717000
  0.495000, -5.568000
  0.497000, -5.422000
  0.499000, -5.280000
  0.501000, -5.142000
  0.503000, -5.008000
  0.505000, -4.877000
  0.507000, -4.751000
  0.509000, -4.628000
  0.511000, -4.509000
  0.513000, -4.396000
  0.515000, -4.287000
  0.517000, -4.181000
  0.519000, -4.080000
  0.521000, -3.984000
  0.523000, -3.891000
  0.525000, -3.803000
  0.527000, -3.720000
  0.529000, -3.640000
  0.531000, -3.565000
  0.533000, -3.495000
  0.535000, -3.429000
  0.537000, -3.367000
  0.539000, -3.309000
  0.541000, -3.254000
  0.543000, -3.203000
  0.545000, -3.156000
  0.547000, -3.112000
  0.549000, -3.071000
  0.551000, -3.035000
  0.553000, -3.002000
  0.555000, -2.973000
  0.557000, -2.947000
  0.559000, -2.923000
  0.561000, -2.901000
  0.563000, -2.881000
  0.565000, -2.865000
  0.567000, -2.851000
  0.569000, -2.839000
  0.571000, -2.829000
  0.573000, -2.820000
  0.575000, -2.813000
  0.577000, -2.807000
  0.579000, -2.803000
  0.581000, -2.799000
  0.583000, -2.797000
  0.585000, -2.797000
  0.587000, -2.796000
  0.589000, -2.797000
  0.591000, -2.798000
  0.593000, -2.799000
  0.595000, -2.801000
  0.597000, -2.803000
  0.599000, -2.806000
  0.601000, -2.808000
  0.603000, -2.810000
  0.605000, -2.812000
  0.607000, -2.814000
  0.609000, -2.815000
  0.611000, -2.817000
  0.613000, -2.818000
  0.615000, -2.818000
  0.617000, -2.818000
  0.619000, -2.818000
  0.621000, -2.817000
  0.623000, -2.815000
  0.625000, -2.813000
  0.627000, -2.810000
  0.629000, -2.807000
  0.631000, -2.802000
  0.633000, -2.797000
  0.635000, -2.791000
  0.637000, -2.785000
  0.639000, -2.778000
  0.641000, -2.770000
  0.643000, -2.762000
  0.645000, -2.752000
  0.647000, -2.742000
  0.649000, -2.732000
  0.651000, -2.720000
  0.653000, -2.708000
  0.655000, -2.696000
  0.657000, -2.683000
  0.659000, -2.669000
  0.661000, -2.654000
  0.663000, -2.638000
  0.665000, -2.622000
  0.667000, -2.606000
  0.669000, -2.588000
  0.671000, -2.571000
  0.673000, -2.552000
  0.675000, -2.534000
  0.677000, -2.515000
  0.679000, -2.496000
  0.681000, -2.476000
  0.683000, -2.455000
  0.685000, -2.434000
  0.687000, -2.412000
  0.689000, -2.391000
  0.691000, -2.369000
  0.693000, -2.347000
  0.695000, -2.324000
  0.697000, -2.301000
  0.699000, -2.278000
  0.701000, -2.255000
  0.703000, -2.231000
  0.705000, -2.207000
  0.707000, -2.182000
  0.709000, -2.157000
  0.711000, -2.132000
  0.713000, -2.107000
  0.715000, -2.082000
  0.717000, -2.056000
  0.719000, -2.030000
  0.721000, -2.004000
  0.723000, -1.979000
  0.725000, -1.953000
  0.727000, -1.926000
  0.729000, -1.900000
  0.731000, -1.874000
  0.733000, -1.847000
  0.735000, -1.821000
  0.737000, -1.794000
  0.739000, -1.767000
  0.741000, -1.740000
  0.743000, -1.713000
  0.745000, -1.687000
  0.747000, -1.660000
  0.749000, -1.633000
  0.751000, -1.606000
  0.753000, -1.579000
  0.755000, -1.553000
  0.757000, -1.526000
  0.759000, -1.500000
  0.761000, -1.474000
  0.763000, -1.447000
  0.765000, -1.421000
  0.767000, -1.395000
  0.769000, -1.370000
  0.771000, -1.344000
  0.773000, -1.319000
  0.775000, -1.294000
  0.777000, -1.269000
  0.779000, -1.244000
  0.781000, -1.220000
  0.783000, -1.196000
  0.785000, -1.173000
  0.787000, -1.149000
  0.789000, -1.126000
  0.791000, -1.104000
  0.793000, -1.081000
  0.795000, -1.059000
  0.797000, -1.038000
  0.799000, -1.017000
  0.801000, -0.997000
  0.803000, -0.977000
  0.805000, -0.957000
  0.807000, -0.938000
  0.809000, -0.919000
  0.811000, -0.900000
  0.813000, -0.882000
  0.815000, -0.865000
  0.817000, -0.848000
  0.819000, -0.832000
  0.821000, -0.816000
  0.823000, -0.801000
  0.825000, -0.786000
  0.827000, -0.772000
  0.829000, -0.758000
  0.831000, -0.745000
  0.833000, -0.732000
  0.835000, -0.720000
  0.837000, -0.709000
  0.839000, -0.698000
  0.841000, -0.687000
  0.843000, -0.677000
  0.845000, -0.668000
  0.847000, -0.658000
  0.849000, -0.650000
  0.851000, -0.642000
  0.853000, -0.634000
  0.855000, -0.626000
  0.857000, -0.619000
  0.859000, -0.613000
  0.861000, -0.607000
  0.863000, -0.602000
  0.865000, -0.597000
  0.867000, -0.592000
  0.869000, -0.587000
  0.871000, -0.583000
  0.873000, -0.580000
  0.875000, -0.576000
  0.877000, -0.573000
  0.879000, -0.571000
  0.881000, -0.568000
  0.883000, -0.566000
  0.885000, -0.564000
  0.887000, -0.563000
  0.889000, -0.562000
  0.891000, -0.560000
  0.893000, -0.560000
  0.895000, -0.559000
  0.897000, -0.558000
  0.899000, -0.558000
  0.901000, -0.558000
  0.903000, -0.558000
  0.905000, -0.559000
  0.907000, -0.559000
  0.909000, -0.560000
  0.911000, -0.561000
  0.913000, -0.561000
  0.915000, -0.563000
  0.917000, -0.564000
  0.919000, -0.565000
  0.921000, -0.567000
  0.923000, -0.568000
  0.925000, -0.569000
  0.927000, -0.571000
  0.929000, -0.572000
  0.931000, -0.573000
  0.933000, -0.575000
  0.935000, -0.576000
  0.937000, -0.578000
  0.939000, -0.580000
  0.941000, -0.581000
  0.943000, -0.583000
  0.945000, -0.584000
  0.947000, -0.586000
  0.949000, -0.587000
  0.951000, -0.588000
  0.953000, -0.589000
  0.955000, -0.590000
  0.957000, -0.591000
  0.959000, -0.592000
  0.961000, -0.592000
  0.963000, -0.592000
  0.965000, -0.593000
  0.967000, -0.593000
  0.969000, -0.592000
  0.971000, -0.592000
  0.973000, -0.591000
  0.975000, -0.591000
  0.977000, -0.589000
  0.979000, -0.588000
  0.981000, -0.587000
  0.983000, -0.585000
  0.985000, -0.583000
  0.987000, -0.581000
  0.989000, -0.578000
  0.991000, -0.576000
  0.993000, -0.573000
  0.995000, -0.569000
  0.997000, -0.566000
  0.999000, -0.562000
  1.001000, -0.558000
  1.003000, -0.554000
  1.005000, -0.550000
  1.007000, -0.545000
  1.009000, -0.541000
  1.011000, -0.536000
  1.013000, -0.530000
  1.015000, -0.525000
  1.017000, -0.520000
  1.019000, -0.514000
  1.021000, -0.508000
  1.023000, -0.502000
  1.025000, -0.496000
  1.027000, -0.489000
  1.029000, -0.483000
  1.031000, -0.476000
  1.033000, -0.469000
  1.035000, -0.463000
  1.037000, -0.456000
  1.039000, -0.449000
  1.041000, -0.442000
  1.043000, -0.435000
  1.045000, -0.428000
  1.047000, -0.421000
  1.049000, -0.414000
  1.051000, -0.407000
  1.053000, -0.400000
  1.055000, -0.393000
  1.057000, -0.386000
  1.059000, -0.379000
  1.061000, -0.372000
  1.063000, -0.365000
  1.065000, -0.358000
  1.067000, -0.351000
  1.069000, -0.345000
  1.071000, -0.338000
  1.073000, -0.331000
  1.075000, -0.324000
  1.077000, -0.318000
  1.079000, -0.311000
  1.081000, -0.305000
  1.083000, -0.298000
  1.085000, -0.292000
  1.087000, -0.286000
  1.089000, -0.279000
  1.091000, -0.273000
  1.093000, -0.267000
  1.095000, -0.261000
  1.097000, -0.254000
  1.099000, -0.248000
  1.101000, -0.242000
  1.103000, -0.236000
  1.105000, -0.230000
  1.107000, -0.225000
  1.109000, -0.219000
  1.111000, -0.213000
  1.113000, -0.208000
  1.115000, -0.202000
  1.117000, -0.197000
  1.119000, -0.191000
  1.121000, -0.186000
  1.123000, -0.181000
  1.125000, -0.175000
  1.127000, -0.170000
  1.129000, -0.165000
  1.131000, -0.160000
  1.133000, -0.155000
  1.135000, -0.150000
  1.137000, -0.146000
  1.139000, -0.141000
  1.141000, -0.136000
  1.143000, -0.132000
  1.145000, -0.127000
  1.147000, -0.123000
  1.149000, -0.119000
  1.151000, -0.114000
  1.153000, -0.110000
  1.155000, -0.106000
  1.157000, -0.102000
  1.159000, -0.098000
  1.161000, -0.095000
  1.163000, -0.091000
  1.165000, -0.087000
  1.167000, -0.084000
  1.169000, -0.080000
  1.171000, -0.077000
  1.173000, -0.074000
  1.175000, -0.070000
  1.177000, -0.067000
  1.179000, -0.064000
  1.181000, -0.060000
  1.183000, -0.057000
  1.185000, -0.054000
  1.187000, -0.051000
  1.189000, -0.049000
  1.191000, -0.046000
  1.193000, -0.043000
  1.195000, -0.041000
  1.197000, -0.038000
  1.199000, -0.036000
  1.201000, -0.033000
  1.203000, -0.031000
  1.205000, -0.029000
  1.207000, -0.027000
  1.209000, -0.026000
  1.211000, -0.024000
  1.213000, -0.022000
  1.215000, -0.021000
  1.217000, -0.020000
  1.219000, -0.019000
  1.221000, -0.018000
  1.223000, -0.017000
  1.225000, -0.016000
  1.227000, -0.016000
  1.229000, -0.015000
  1.231000, -0.015000
  1.233000, -0.015000
  1.235000, -0.015000
  1.237000, -0.015000
  1.239000, -0.016000
  1.241000, -0.016000
  1.243000, -0.017000
  1.245000, -0.017000
  1.247000, -0.018000
  1.249000, -0.019000
  1.251000, -0.020000
  1.253000, -0.021000
  1.255000, -0.022000
  1.257000, -0.024000
  1.259000, -0.025000
  1.261000, -0.026000
  1.263000, -0.027000
  1.265000, -0.028000
  1.267000, -0.029000
  1.269000, -0.030000
  1.271000, -0.032000
  1.273000, -0.033000
  1.275000, -0.034000
  1.277000, -0.035000
  1.279000, -0.036000
  1.281000, -0.036000
  1.283000, -0.037000
  1.285000, -0.038000
  1.287000, -0.038000
  1.289000, -0.039000
  1.291000, -0.039000
  1.293000, -0.039000
  1.295000, -0.039000
  1.297000, -0.039000
  1.299000, -0.038000
  1.301000, -0.038000
  1.303000, -0.037000
  1.305000, -0.036000
  1.307000, -0.035000
  1.309000, -0.034000
  1.311000, -0.032000
  1.313000, -0.030000
  1.315000, -0.028000
  1.317000, -0.026000
  1.319000, -0.024000
  1.321000, -0.022000
  1.323000, -0.019000
  1.325000, -0.016000
  1.327000, -0.013000
  1.329000, -0.010000
  1.331000, -0.007000
  1.333000, -0.003000
  1.335000,  0.000000
  1.337000,  0.003000
  1.339000,  0.007000
  1.341000,  0.010000
  1.343000,  0.014000
  1.345000,  0.017000
  1.347000,  0.021000
  1.349000,  0.025000
  1.351000,  0.030000
  1.353000,  0.034000
  1.355000,  0.038000
  1.357000,  0.042000
  1.359000,  0.045000
  1.361000,  0.049000
  1.363000,  0.052000
  1.365000,  0.056000
  1.367000,  0.060000
  1.369000,  0.063000
  1.371000,  0.066000
  1.373000,  0.069000
  1.375000,  0.072000
  1.377000,  0.074000
  1.379000,  0.077000
  1.381000,  0.079000
  1.383000,  0.081000
  1.385000,  0.083000
  1.387000,  0.084000
  1.389000,  0.085000
  1.391000,  0.086000
  1.393000,  0.087000
  1.395000,  0.088000
  1.397000,  0.087000
  1.399000,  0.087000
