# z (nm)   (kJ/mol)
  0.123000,-16.841000
  0.125000,-17.876000
  0.127000,-18.912000
  0.129000,-19.920000
  0.131000,-20.896000
  0.133000,-21.883000
  0.135000,-22.853000
  0.137000,-23.796000
  0.139000,-24.724000
  0.141000,-25.617000
  0.143000,-26.484000
  0.145000,-27.322000
  0.147000,-28.128000
  0.149000,-28.903000
  0.151000,-29.644000
  0.153000,-30.350000
  0.155000,-31.021000
  0.157000,-31.655000
  0.159000,-32.249000
  0.161000,-32.805000
  0.163000,-33.324000
  0.165000,-33.806000
  0.167000,-34.248000
  0.169000,-34.649000
  0.171000,-35.012000
  0.173000,-35.332000
  0.175000,-35.613000
  0.177000,-35.853000
  0.179000,-36.053000
  0.181000,-36.214000
  0.183000,-36.336000
  0.185000,-36.419000
  0.187000,-36.465000
  0.189000,-36.474000
  0.191000,-36.447000
  0.193000,-36.387000
  0.195000,-36.293000
  0.197000,-36.168000
  0.199000,-36.013000
  0.201000,-35.829000
  0.203000,-35.618000
  0.205000,-35.382000
  0.207000,-35.124000
  0.209000,-34.841000
  0.211000,-34.540000
  0.213000,-34.219000
  0.215000,-33.880000
  0.217000,-33.527000
  0.219000,-33.159000
  0.221000,-32.783000
  0.223000,-32.400000
  0.225000,-32.006000
  0.227000,-31.606000
  0.229000,-31.203000
  0.231000,-30.798000
  0.233000,-30.390000
  0.235000,-29.981000
  0.237000,-29.574000
  0.239000,-29.169000
  0.241000,-28.766000
  0.243000,-28.369000
  0.245000,-27.976000
  0.247000,-27.589000
  0.249000,-27.207000
  0.251000,-26.832000
  0.253000,-26.464000
  0.255000,-26.104000
  0.257000,-25.753000
  0.259000,-25.408000
  0.261000,-25.072000
  0.263000,-24.743000
  0.265000,-24.423000
  0.267000,-24.111000
  0.269000,-23.807000
  0.271000,-23.510000
  0.273000,-23.220000
  0.275000,-22.938000
  0.277000,-22.663000
  0.279000,-22.396000
  0.281000,-22.135000
  0.283000,-21.879000
  0.285000,-21.630000
  0.287000,-21.386000
  0.289000,-21.148000
  0.291000,-20.914000
  0.293000,-20.685000
  0.295000,-20.461000
  0.297000,-20.240000
  0.299000,-20.023000
  0.301000,-19.809000
  0.303000,-19.599000
  0.305000,-19.391000
  0.307000,-19.186000
  0.309000,-18.983000
  0.311000,-18.783000
  0.313000,-18.584000
  0.315000,-18.388000
  0.317000,-18.193000
  0.319000,-18.000000
  0.321000,-17.808000
  0.323000,-17.618000
  0.325000,-17.429000
  0.327000,-17.241000
  0.329000,-17.054000
  0.331000,-16.868000
  0.333000,-16.683000
  0.335000,-16.499000
  0.337000,-16.316000
  0.339000,-16.134000
  0.341000,-15.954000
  0.343000,-15.775000
  0.345000,-15.597000
  0.347000,-15.420000
  0.349000,-15.245000
  0.351000,-15.071000
  0.353000,-14.898000
  0.355000,-14.727000
  0.357000,-14.557000
  0.359000,-14.388000
  0.361000,-14.222000
  0.363000,-14.056000
  0.365000,-13.891000
  0.367000,-13.729000
  0.369000,-13.567000
  0.371000,-13.406000
  0.373000,-13.247000
  0.375000,-13.089000
  0.377000,-12.932000
  0.379000,-12.777000
  0.381000,-12.623000
  0.383000,-12.470000
  0.385000,-12.319000
  0.387000,-12.169000
  0.389000,-12.020000
  0.391000,-11.872000
  0.393000,-11.725000
  0.395000,-11.580000
  0.397000,-11.435000
  0.399000,-11.292000
  0.401000,-11.149000
  0.403000,-11.008000
  0.405000,-10.867000
  0.407000,-10.728000
  0.409000,-10.589000
  0.411000,-10.452000
  0.413000,-10.315000
  0.415000,-10.180000
  0.417000,-10.045000
  0.419000, -9.910000
  0.421000, -9.777000
  0.423000, -9.644000
  0.425000, -9.512000
  0.427000, -9.381000
  0.429000, -9.250000
  0.431000, -9.119000
  0.433000, -8.988000
  0.435000, -8.859000
  0.437000, -8.730000
  0.439000, -8.602000
  0.441000, -8.474000
  0.443000, -8.346000
  0.445000, -8.218000
  0.447000, -8.092000
  0.449000, -7.967000
  0.451000, -7.841000
  0.453000, -7.716000
  0.455000, -7.590000
  0.457000, -7.466000
  0.459000, -7.341000
  0.461000, -7.217000
  0.463000, -7.094000
  0.465000, -6.972000
  0.467000, -6.851000
  0.469000, -6.730000
  0.471000, -6.609000
  0.473000, -6.488000
  0.475000, -6.368000
  0.477000, -6.249000
  0.479000, -6.131000
  0.481000, -6.013000
  0.483000, -5.896000
  0.485000, -5.780000
  0.487000, -5.666000
  0.489000, -5.551000
  0.491000, -5.438000
  0.493000, -5.326000
  0.495000, -5.214000
  0.497000, -5.104000
  0.499000, -4.996000
  0.501000, -4.888000
  0.503000, -4.782000
  0.505000, -4.678000
  0.507000, -4.575000
  0.509000, -4.473000
  0.511000, -4.373000
  0.513000, -4.274000
  0.515000, -4.176000
  0.517000, -4.082000
  0.519000, -3.989000
  0.521000, -3.898000
  0.523000, -3.808000
  0.525000, -3.722000
  0.527000, -3.636000
  0.529000, -3.553000
  0.531000, -3.471000
  0.533000, -3.392000
  0.535000, -3.316000
  0.537000, -3.241000
  0.539000, -3.168000
  0.541000, -3.098000
  0.543000, -3.029000
  0.545000, -2.963000
  0.547000, -2.898000
  0.549000, -2.836000
  0.551000, -2.776000
  0.553000, -2.718000
  0.555000, -2.663000
  0.557000, -2.609000
  0.559000, -2.557000
  0.561000, -2.507000
  0.563000, -2.459000
  0.565000, -2.413000
  0.567000, -2.368000
  0.569000, -2.326000
  0.571000, -2.286000
  0.573000, -2.247000
  0.575000, -2.210000
  0.577000, -2.175000
  0.579000, -2.142000
  0.581000, -2.110000
  0.583000, -2.079000
  0.585000, -2.051000
  0.587000, -2.024000
  0.589000, -1.998000
  0.591000, -1.974000
  0.593000, -1.950000
  0.595000, -1.928000
  0.597000, -1.908000
  0.599000, -1.888000
  0.601000, -1.870000
  0.603000, -1.853000
  0.605000, -1.836000
  0.607000, -1.821000
  0.609000, -1.807000
  0.611000, -1.793000
  0.613000, -1.781000
  0.615000, -1.769000
  0.617000, -1.758000
  0.619000, -1.747000
  0.621000, -1.737000
  0.623000, -1.728000
  0.625000, -1.719000
  0.627000, -1.711000
  0.629000, -1.703000
  0.631000, -1.696000
  0.633000, -1.689000
  0.635000, -1.682000
  0.637000, -1.676000
  0.639000, -1.670000
  0.641000, -1.664000
  0.643000, -1.659000
  0.645000, -1.653000
  0.647000, -1.648000
  0.649000, -1.643000
  0.651000, -1.637000
  0.653000, -1.632000
  0.655000, -1.627000
  0.657000, -1.622000
  0.659000, -1.617000
  0.661000, -1.611000
  0.663000, -1.606000
  0.665000, -1.600000
  0.667000, -1.594000
  0.669000, -1.588000
  0.671000, -1.582000
  0.673000, -1.575000
  0.675000, -1.568000
  0.677000, -1.561000
  0.679000, -1.554000
  0.681000, -1.546000
  0.683000, -1.538000
  0.685000, -1.530000
  0.687000, -1.521000
  0.689000, -1.512000
  0.691000, -1.503000
  0.693000, -1.493000
  0.695000, -1.483000
  0.697000, -1.473000
  0.699000, -1.463000
  0.701000, -1.452000
  0.703000, -1.440000
  0.705000, -1.429000
  0.707000, -1.417000
  0.709000, -1.405000
  0.711000, -1.392000
  0.713000, -1.380000
  0.715000, -1.367000
  0.717000, -1.353000
  0.719000, -1.340000
  0.721000, -1.326000
  0.723000, -1.312000
  0.725000, -1.297000
  0.727000, -1.283000
  0.729000, -1.268000
  0.731000, -1.254000
  0.733000, -1.239000
  0.735000, -1.224000
  0.737000, -1.209000
  0.739000, -1.194000
  0.741000, -1.178000
  0.743000, -1.163000
  0.745000, -1.148000
  0.747000, -1.133000
  0.749000, -1.117000
  0.751000, -1.102000
  0.753000, -1.086000
  0.755000, -1.071000
  0.757000, -1.055000
  0.759000, -1.040000
  0.761000, -1.024000
  0.763000, -1.009000
  0.765000, -0.994000
  0.767000, -0.979000
  0.769000, -0.964000
  0.771000, -0.949000
  0.773000, -0.935000
  0.775000, -0.920000
  0.777000, -0.905000
  0.779000, -0.891000
  0.781000, -0.876000
  0.783000, -0.862000
  0.785000, -0.848000
  0.787000, -0.833000
  0.789000, -0.819000
  0.791000, -0.805000
  0.793000, -0.792000
  0.795000, -0.778000
  0.797000, -0.765000
  0.799000, -0.752000
  0.801000, -0.738000
  0.803000, -0.726000
  0.805000, -0.713000
  0.807000, -0.701000
  0.809000, -0.689000
  0.811000, -0.677000
  0.813000, -0.665000
  0.815000, -0.653000
  0.817000, -0.642000
  0.819000, -0.631000
  0.821000, -0.620000
  0.823000, -0.609000
  0.825000, -0.598000
  0.827000, -0.588000
  0.829000, -0.578000
  0.831000, -0.568000
  0.833000, -0.558000
  0.835000, -0.549000
  0.837000, -0.540000
  0.839000, -0.531000
  0.841000, -0.523000
  0.843000, -0.514000
  0.845000, -0.506000
  0.847000, -0.499000
  0.849000, -0.491000
  0.851000, -0.484000
  0.853000, -0.477000
  0.855000, -0.471000
  0.857000, -0.465000
  0.859000, -0.459000
  0.861000, -0.453000
  0.863000, -0.448000
  0.865000, -0.443000
  0.867000, -0.438000
  0.869000, -0.434000
  0.871000, -0.429000
  0.873000, -0.425000
  0.875000, -0.421000
  0.877000, -0.418000
  0.879000, -0.415000
  0.881000, -0.412000
  0.883000, -0.409000
  0.885000, -0.406000
  0.887000, -0.404000
  0.889000, -0.402000
  0.891000, -0.400000
  0.893000, -0.398000
  0.895000, -0.397000
  0.897000, -0.395000
  0.899000, -0.394000
  0.901000, -0.393000
  0.903000, -0.392000
  0.905000, -0.391000
  0.907000, -0.390000
  0.909000, -0.390000
  0.911000, -0.389000
  0.913000, -0.389000
  0.915000, -0.388000
  0.917000, -0.388000
  0.919000, -0.387000
  0.921000, -0.387000
  0.923000, -0.386000
  0.925000, -0.386000
  0.927000, -0.385000
  0.929000, -0.385000
  0.931000, -0.384000
  0.933000, -0.384000
  0.935000, -0.383000
  0.937000, -0.383000
  0.939000, -0.382000
  0.941000, -0.381000
  0.943000, -0.380000
  0.945000, -0.379000
  0.947000, -0.378000
  0.949000, -0.377000
  0.951000, -0.376000
  0.953000, -0.374000
  0.955000, -0.373000
  0.957000, -0.372000
  0.959000, -0.370000
  0.961000, -0.368000
  0.963000, -0.367000
  0.965000, -0.365000
  0.967000, -0.363000
  0.969000, -0.361000
  0.971000, -0.359000
  0.973000, -0.356000
  0.975000, -0.354000
  0.977000, -0.352000
  0.979000, -0.350000
  0.981000, -0.347000
  0.983000, -0.345000
  0.985000, -0.342000
  0.987000, -0.340000
  0.989000, -0.337000
  0.991000, -0.334000
  0.993000, -0.332000
  0.995000, -0.329000
  0.997000, -0.326000
  0.999000, -0.323000
  1.001000, -0.320000
  1.003000, -0.317000
  1.005000, -0.314000
  1.007000, -0.311000
  1.009000, -0.308000
  1.011000, -0.305000
  1.013000, -0.302000
  1.015000, -0.299000
  1.017000, -0.296000
  1.019000, -0.292000
  1.021000, -0.289000
  1.023000, -0.286000
  1.025000, -0.283000
  1.027000, -0.280000
  1.029000, -0.276000
  1.031000, -0.273000
  1.033000, -0.269000
  1.035000, -0.266000
  1.037000, -0.262000
  1.039000, -0.259000
  1.041000, -0.255000
  1.043000, -0.252000
  1.045000, -0.248000
  1.047000, -0.244000
  1.049000, -0.241000
  1.051000, -0.237000
  1.053000, -0.233000
  1.055000, -0.229000
  1.057000, -0.225000
  1.059000, -0.221000
  1.061000, -0.218000
  1.063000, -0.214000
  1.065000, -0.210000
  1.067000, -0.206000
  1.069000, -0.202000
  1.071000, -0.198000
  1.073000, -0.194000
  1.075000, -0.190000
  1.077000, -0.186000
  1.079000, -0.182000
  1.081000, -0.178000
  1.083000, -0.174000
  1.085000, -0.170000
  1.087000, -0.166000
  1.089000, -0.163000
  1.091000, -0.159000
  1.093000, -0.155000
  1.095000, -0.151000
  1.097000, -0.147000
  1.099000, -0.143000
  1.101000, -0.140000
  1.103000, -0.136000
  1.105000, -0.132000
  1.107000, -0.129000
  1.109000, -0.125000
  1.111000, -0.121000
  1.113000, -0.118000
  1.115000, -0.114000
  1.117000, -0.111000
  1.119000, -0.108000
  1.121000, -0.104000
  1.123000, -0.101000
  1.125000, -0.098000
  1.127000, -0.094000
  1.129000, -0.091000
  1.131000, -0.088000
  1.133000, -0.085000
  1.135000, -0.082000
  1.137000, -0.079000
  1.139000, -0.076000
  1.141000, -0.074000
  1.143000, -0.071000
  1.145000, -0.068000
  1.147000, -0.066000
  1.149000, -0.063000
  1.151000, -0.060000
  1.153000, -0.058000
  1.155000, -0.055000
  1.157000, -0.053000
  1.159000, -0.051000
  1.161000, -0.048000
  1.163000, -0.046000
  1.165000, -0.044000
  1.167000, -0.042000
  1.169000, -0.040000
  1.171000, -0.038000
  1.173000, -0.036000
  1.175000, -0.034000
  1.177000, -0.032000
  1.179000, -0.031000
  1.181000, -0.029000
  1.183000, -0.027000
  1.185000, -0.026000
  1.187000, -0.025000
  1.189000, -0.023000
  1.191000, -0.022000
  1.193000, -0.020000
  1.195000, -0.019000
  1.197000, -0.018000
  1.199000, -0.017000
  1.201000, -0.016000
  1.203000, -0.015000
  1.205000, -0.014000
  1.207000, -0.014000
  1.209000, -0.013000
  1.211000, -0.012000
  1.213000, -0.012000
  1.215000, -0.011000
  1.217000, -0.011000
  1.219000, -0.010000
  1.221000, -0.010000
  1.223000, -0.010000
  1.225000, -0.009000
  1.227000, -0.009000
  1.229000, -0.009000
  1.231000, -0.009000
  1.233000, -0.009000
  1.235000, -0.009000
  1.237000, -0.009000
  1.239000, -0.009000
  1.241000, -0.009000
  1.243000, -0.009000
  1.245000, -0.009000
  1.247000, -0.009000
  1.249000, -0.009000
  1.251000, -0.010000
  1.253000, -0.010000
  1.255000, -0.010000
  1.257000, -0.010000
  1.259000, -0.010000
  1.261000, -0.011000
  1.263000, -0.011000
  1.265000, -0.011000
  1.267000, -0.011000
  1.269000, -0.011000
  1.271000, -0.011000
  1.273000, -0.012000
  1.275000, -0.012000
  1.277000, -0.012000
  1.279000, -0.012000
  1.281000, -0.012000
  1.283000, -0.012000
  1.285000, -0.012000
  1.287000, -0.012000
  1.289000, -0.012000
  1.291000, -0.012000
  1.293000, -0.011000
  1.295000, -0.011000
  1.297000, -0.011000
  1.299000, -0.011000
  1.301000, -0.011000
  1.303000, -0.011000
  1.305000, -0.010000
  1.307000, -0.010000
  1.309000, -0.009000
  1.311000, -0.009000
  1.313000, -0.008000
  1.315000, -0.007000
  1.317000, -0.007000
  1.319000, -0.006000
  1.321000, -0.005000
  1.323000, -0.004000
  1.325000, -0.003000
  1.327000, -0.002000
  1.329000, -0.001000
  1.331000,  0.000000
  1.333000,  0.001000
  1.335000,  0.002000
  1.337000,  0.003000
  1.339000,  0.004000
  1.341000,  0.006000
  1.343000,  0.007000
  1.345000,  0.008000
  1.347000,  0.009000
  1.349000,  0.011000
  1.351000,  0.012000
  1.353000,  0.013000
  1.355000,  0.015000
  1.357000,  0.016000
  1.359000,  0.018000
  1.361000,  0.019000
  1.363000,  0.020000
  1.365000,  0.021000
  1.367000,  0.023000
  1.369000,  0.024000
  1.371000,  0.025000
  1.373000,  0.026000
  1.375000,  0.027000
  1.377000,  0.028000
  1.379000,  0.029000
  1.381000,  0.030000
  1.383000,  0.030000
  1.385000,  0.031000
  1.387000,  0.031000
  1.389000,  0.031000
  1.391000,  0.031000
  1.393000,  0.031000
  1.395000,  0.030000
  1.397000,  0.030000
  1.399000,  0.028000
