# z (nm)   (kJ/mol)
  0.1190    0.94600
  0.1230   -0.47000
  0.1250   -1.13000
  0.1270   -1.79100
  0.1290   -2.44800
  0.1310   -3.09800
  0.1330   -3.74700
  0.1350   -4.38800
  0.1370   -5.01700
  0.1390   -5.63400
  0.1410   -6.23800
  0.1430   -6.83000
  0.1450   -7.41100
  0.1470   -7.98100
  0.1490   -8.53700
  0.1510   -9.07500
  0.1530   -9.59600
  0.1550  -10.10000
  0.1570  -10.58200
  0.1590  -11.04700
  0.1610  -11.49600
  0.1630  -11.92900
  0.1650  -12.33900
  0.1670  -12.73000
  0.1690  -13.10500
  0.1710  -13.45900
  0.1730  -13.79200
  0.1750  -14.10300
  0.1770  -14.39400
  0.1790  -14.66600
  0.1810  -14.92000
  0.1830  -15.15200
  0.1850  -15.36500
  0.1870  -15.55800
  0.1890  -15.73100
  0.1910  -15.88500
  0.1930  -16.02000
  0.1950  -16.13600
  0.1970  -16.23400
  0.1990  -16.31400
  0.2010  -16.37700
  0.2030  -16.42300
  0.2050  -16.45300
  0.2070  -16.46900
  0.2090  -16.46800
  0.2110  -16.45300
  0.2130  -16.42500
  0.2150  -16.38600
  0.2170  -16.33300
  0.2190  -16.26700
  0.2210  -16.19200
  0.2230  -16.10800
  0.2250  -16.01500
  0.2270  -15.91200
  0.2290  -15.80200
  0.2310  -15.68400
  0.2330  -15.56300
  0.2350  -15.43500
  0.2370  -15.30000
  0.2390  -15.16100
  0.2410  -15.02000
  0.2430  -14.87700
  0.2450  -14.73200
  0.2470  -14.58400
  0.2490  -14.43400
  0.2510  -14.28300
  0.2530  -14.13300
  0.2550  -13.98200
  0.2570  -13.83000
  0.2590  -13.67900
  0.2610  -13.52800
  0.2630  -13.37700
  0.2650  -13.22800
  0.2670  -13.07900
  0.2690  -12.93000
  0.2710  -12.78200
  0.2730  -12.63500
  0.2750  -12.48900
  0.2770  -12.34400
  0.2790  -12.19900
  0.2810  -12.05400
  0.2830  -11.91000
  0.2850  -11.76700
  0.2870  -11.62400
  0.2890  -11.48000
  0.2910  -11.33700
  0.2930  -11.19400
  0.2950  -11.05100
  0.2970  -10.90800
  0.2990  -10.76400
  0.3010  -10.62000
  0.3030  -10.47500
  0.3050  -10.33000
  0.3070  -10.18300
  0.3090  -10.03700
  0.3110   -9.88900
  0.3130   -9.74000
  0.3150   -9.59100
  0.3170   -9.44100
  0.3190   -9.28900
  0.3210   -9.13600
  0.3230   -8.98300
  0.3250   -8.82800
  0.3270   -8.67300
  0.3290   -8.51600
  0.3310   -8.35900
  0.3330   -8.20100
  0.3350   -8.04100
  0.3370   -7.88100
  0.3390   -7.72100
  0.3410   -7.56000
  0.3430   -7.39800
  0.3450   -7.23700
  0.3470   -7.07500
  0.3490   -6.91300
  0.3510   -6.75100
  0.3530   -6.58800
  0.3550   -6.42500
  0.3570   -6.26300
  0.3590   -6.10100
  0.3610   -5.93800
  0.3630   -5.77600
  0.3650   -5.61400
  0.3670   -5.45200
  0.3690   -5.29100
  0.3710   -5.13200
  0.3730   -4.97300
  0.3750   -4.81400
  0.3770   -4.65600
  0.3790   -4.49900
  0.3810   -4.34300
  0.3830   -4.18800
  0.3850   -4.03400
  0.3870   -3.88200
  0.3890   -3.73000
  0.3910   -3.57900
  0.3930   -3.43000
  0.3950   -3.28200
  0.3970   -3.13500
  0.3990   -2.99000
  0.4010   -2.84700
  0.4030   -2.70500
  0.4050   -2.56400
  0.4070   -2.42400
  0.4090   -2.28800
  0.4110   -2.15300
  0.4130   -2.02000
  0.4150   -1.88800
  0.4170   -1.75800
  0.4190   -1.63000
  0.4210   -1.50400
  0.4230   -1.38100
  0.4250   -1.26200
  0.4270   -1.14300
  0.4290   -1.02600
  0.4310   -0.91300
  0.4330   -0.80200
  0.4350   -0.69400
  0.4370   -0.58900
  0.4390   -0.48700
  0.4410   -0.38800
  0.4430   -0.29200
  0.4450   -0.19900
  0.4470   -0.11000
  0.4490   -0.02300
  0.4510    0.06100
  0.4530    0.14000
  0.4550    0.21700
  0.4570    0.28900
  0.4590    0.35800
  0.4610    0.42400
  0.4630    0.48500
  0.4650    0.54300
  0.4670    0.59600
  0.4690    0.64500
  0.4710    0.69100
  0.4730    0.73200
  0.4750    0.77000
  0.4770    0.80400
  0.4790    0.83300
  0.4810    0.85900
  0.4830    0.88000
  0.4850    0.89800
  0.4870    0.91200
  0.4890    0.92200
  0.4910    0.92800
  0.4930    0.93000
  0.4950    0.92800
  0.4970    0.92300
  0.4990    0.91400
  0.5010    0.90300
  0.5030    0.88800
  0.5050    0.86900
  0.5070    0.84800
  0.5090    0.82400
  0.5110    0.79700
  0.5130    0.76800
  0.5150    0.73500
  0.5170    0.69900
  0.5190    0.66200
  0.5210    0.62300
  0.5230    0.58100
  0.5250    0.53900
  0.5270    0.49400
  0.5290    0.44700
  0.5310    0.40000
  0.5330    0.35200
  0.5350    0.30200
  0.5370    0.25200
  0.5390    0.20000
  0.5410    0.14800
  0.5430    0.09500
  0.5450    0.04300
  0.5470   -0.00900
  0.5490   -0.06100
  0.5510   -0.11300
  0.5530   -0.16500
  0.5550   -0.21600
  0.5570   -0.26600
  0.5590   -0.31600
  0.5610   -0.36600
  0.5630   -0.41400
  0.5650   -0.46200
  0.5670   -0.50800
  0.5690   -0.55300
  0.5710   -0.59800
  0.5730   -0.64200
  0.5750   -0.68400
  0.5770   -0.72500
  0.5790   -0.76500
  0.5810   -0.80200
  0.5830   -0.83800
  0.5850   -0.87300
  0.5870   -0.90600
  0.5890   -0.93800
  0.5910   -0.96800
  0.5930   -0.99600
  0.5950   -1.02300
  0.5970   -1.04800
  0.5990   -1.07200
  0.6010   -1.09400
  0.6030   -1.11400
  0.6050   -1.13300
  0.6070   -1.15000
  0.6090   -1.16500
  0.6110   -1.18000
  0.6130   -1.19200
  0.6150   -1.20400
  0.6170   -1.21300
  0.6190   -1.22100
  0.6210   -1.22800
  0.6230   -1.23300
  0.6250   -1.23600
  0.6270   -1.23900
  0.6290   -1.24000
  0.6310   -1.23900
  0.6330   -1.23800
  0.6350   -1.23500
  0.6370   -1.23100
  0.6390   -1.22600
  0.6410   -1.22000
  0.6430   -1.21200
  0.6450   -1.20400
  0.6470   -1.19400
  0.6490   -1.18300
  0.6510   -1.17200
  0.6530   -1.16000
  0.6550   -1.14600
  0.6570   -1.13200
  0.6590   -1.11700
  0.6610   -1.10000
  0.6630   -1.08300
  0.6650   -1.06600
  0.6670   -1.04700
  0.6690   -1.02800
  0.6710   -1.00900
  0.6730   -0.98800
  0.6750   -0.96700
  0.6770   -0.94500
  0.6790   -0.92300
  0.6810   -0.90000
  0.6830   -0.87700
  0.6850   -0.85300
  0.6870   -0.82900
  0.6890   -0.80500
  0.6910   -0.78100
  0.6930   -0.75600
  0.6950   -0.73000
  0.6970   -0.70500
  0.6990   -0.68000
  0.7010   -0.65400
  0.7030   -0.62800
  0.7050   -0.60200
  0.7070   -0.57600
  0.7090   -0.54900
  0.7110   -0.52300
  0.7130   -0.49800
  0.7150   -0.47200
  0.7170   -0.44600
  0.7190   -0.42100
  0.7210   -0.39600
  0.7230   -0.37100
  0.7250   -0.34700
  0.7270   -0.32300
  0.7290   -0.29800
  0.7310   -0.27400
  0.7330   -0.25100
  0.7350   -0.22800
  0.7370   -0.20600
  0.7390   -0.18400
  0.7410   -0.16300
  0.7430   -0.14200
  0.7450   -0.12200
  0.7470   -0.10200
  0.7490   -0.08300
  0.7510   -0.06500
  0.7530   -0.04700
  0.7550   -0.03100
  0.7570   -0.01500
  0.7590    0.00100
  0.7610    0.01600
  0.7630    0.02900
  0.7650    0.04300
  0.7670    0.05500
  0.7690    0.06700
  0.7710    0.07800
  0.7730    0.08900
  0.7750    0.09800
  0.7770    0.10700
  0.7790    0.11400
  0.7810    0.12100
  0.7830    0.12800
  0.7850    0.13300
  0.7870    0.13800
  0.7890    0.14200
  0.7910    0.14500
  0.7930    0.14700
  0.7950    0.14900
  0.7970    0.15000
  0.7990    0.15000
  0.8010    0.14900
  0.8030    0.14800
  0.8050    0.14600
  0.8070    0.14300
  0.8090    0.14000
  0.8110    0.13600
  0.8130    0.13200
  0.8150    0.12700
  0.8170    0.12100
  0.8190    0.11400
  0.8210    0.10800
  0.8230    0.10000
  0.8250    0.09300
  0.8270    0.08400
  0.8290    0.07600
  0.8310    0.06700
  0.8330    0.05700
  0.8350    0.04700
  0.8370    0.03700
  0.8390    0.02700
  0.8410    0.01600
  0.8430    0.00500
  0.8450   -0.00700
  0.8470   -0.01800
  0.8490   -0.03000
  0.8510   -0.04200
  0.8530   -0.05400
  0.8550   -0.06600
  0.8570   -0.07800
  0.8590   -0.09000
  0.8610   -0.10200
  0.8630   -0.11400
  0.8650   -0.12600
  0.8670   -0.13800
  0.8690   -0.15000
  0.8710   -0.16200
  0.8730   -0.17400
  0.8750   -0.18500
  0.8770   -0.19600
  0.8790   -0.20800
  0.8810   -0.21900
  0.8830   -0.22900
  0.8850   -0.23900
  0.8870   -0.25000
  0.8890   -0.25900
  0.8910   -0.26900
  0.8930   -0.27800
  0.8950   -0.28600
  0.8970   -0.29500
  0.8990   -0.30200
  0.9010   -0.31000
  0.9030   -0.31700
  0.9050   -0.32400
  0.9070   -0.33000
  0.9090   -0.33600
  0.9110   -0.34100
  0.9130   -0.34600
  0.9150   -0.35100
  0.9170   -0.35500
  0.9190   -0.35800
  0.9210   -0.36100
  0.9230   -0.36400
  0.9250   -0.36600
  0.9270   -0.36800
  0.9290   -0.36900
  0.9310   -0.37000
  0.9330   -0.37000
  0.9350   -0.37000
  0.9370   -0.36900
  0.9390   -0.36800
  0.9410   -0.36700
  0.9430   -0.36500
  0.9450   -0.36300
  0.9470   -0.36000
  0.9490   -0.35700
  0.9510   -0.35300
  0.9530   -0.35000
  0.9550   -0.34600
  0.9570   -0.34200
  0.9590   -0.33700
  0.9610   -0.33200
  0.9630   -0.32600
  0.9650   -0.32100
  0.9670   -0.31500
  0.9690   -0.30900
  0.9710   -0.30200
  0.9730   -0.29600
  0.9750   -0.28900
  0.9770   -0.28200
  0.9790   -0.27500
  0.9810   -0.26800
  0.9830   -0.26000
  0.9850   -0.25200
  0.9870   -0.24400
  0.9890   -0.23700
  0.9910   -0.22900
  0.9930   -0.22100
  0.9950   -0.21200
  0.9970   -0.20400
  0.9990   -0.19600
  1.0010   -0.18700
  1.0030   -0.17900
  1.0050   -0.17100
  1.0070   -0.16300
  1.0090   -0.15400
  1.0110   -0.14600
  1.0130   -0.13700
  1.0150   -0.12900
  1.0170   -0.12100
  1.0190   -0.11300
  1.0210   -0.10500
  1.0230   -0.09600
  1.0250   -0.08900
  1.0270   -0.08100
  1.0290   -0.07300
  1.0310   -0.06500
  1.0330   -0.05700
  1.0350   -0.05000
  1.0370   -0.04200
  1.0390   -0.03500
  1.0410   -0.02800
  1.0430   -0.02100
  1.0450   -0.01400
  1.0470   -0.00700
  1.0490    0.00000
  1.0510    0.00600
  1.0530    0.01300
  1.0550    0.01900
  1.0570    0.02500
  1.0590    0.03100
  1.0610    0.03600
  1.0630    0.04200
  1.0650    0.04700
  1.0670    0.05200
  1.0690    0.05700
  1.0710    0.06200
  1.0730    0.06600
  1.0750    0.07000
  1.0770    0.07400
  1.0790    0.07800
  1.0810    0.08200
  1.0830    0.08500
  1.0850    0.08800
  1.0870    0.09100
  1.0890    0.09400
  1.0910    0.09600
  1.0930    0.09900
  1.0950    0.10100
  1.0970    0.10200
  1.0990    0.10400
  1.1010    0.10500
  1.1030    0.10600
  1.1050    0.10700
  1.1070    0.10700
  1.1090    0.10700
  1.1110    0.10700
  1.1130    0.10700
  1.1150    0.10700
  1.1170    0.10600
  1.1190    0.10500
  1.1210    0.10500
  1.1230    0.10300
  1.1250    0.10200
  1.1270    0.10000
  1.1290    0.09900
  1.1310    0.09700
  1.1330    0.09500
  1.1350    0.09300
  1.1370    0.09000
  1.1390    0.08800
  1.1410    0.08500
  1.1430    0.08300
  1.1450    0.08000
  1.1470    0.07700
  1.1490    0.07500
  1.1510    0.07200
  1.1530    0.06900
  1.1550    0.06600
  1.1570    0.06300
  1.1590    0.06000
  1.1610    0.05700
  1.1630    0.05400
  1.1650    0.05100
  1.1670    0.04800
  1.1690    0.04400
  1.1710    0.04100
  1.1730    0.03800
  1.1750    0.03500
  1.1770    0.03200
  1.1790    0.02900
  1.1810    0.02600
  1.1830    0.02300
  1.1850    0.02000
  1.1870    0.01700
  1.1890    0.01400
  1.1910    0.01100
  1.1930    0.00900
  1.1950    0.00600
  1.1970    0.00300
  1.1990    0.00000
  1.2010   -0.00200
  1.2030   -0.00500
  1.2050   -0.00800
  1.2070   -0.01000
  1.2090   -0.01300
  1.2110   -0.01500
  1.2130   -0.01800
  1.2150   -0.02000
  1.2170   -0.02200
  1.2190   -0.02500
  1.2210   -0.02700
  1.2230   -0.02900
  1.2250   -0.03100
  1.2270   -0.03200
  1.2290   -0.03400
  1.2310   -0.03600
  1.2330   -0.03800
  1.2350   -0.03900
  1.2370   -0.04000
  1.2390   -0.04200
  1.2410   -0.04300
  1.2430   -0.04400
  1.2450   -0.04500
  1.2470   -0.04500
  1.2490   -0.04600
  1.2510   -0.04700
  1.2530   -0.04700
  1.2550   -0.04700
  1.2570   -0.04800
  1.2590   -0.04800
  1.2610   -0.04700
  1.2630   -0.04700
  1.2650   -0.04700
  1.2670   -0.04600
  1.2690   -0.04600
  1.2710   -0.04500
  1.2730   -0.04400
  1.2750   -0.04300
  1.2770   -0.04200
  1.2790   -0.04100
  1.2810   -0.04000
  1.2830   -0.03800
  1.2850   -0.03700
  1.2870   -0.03500
  1.2890   -0.03400
  1.2910   -0.03200
  1.2930   -0.03000
  1.2950   -0.02800
  1.2970   -0.02600
  1.2990   -0.02400
  1.3010   -0.02200
  1.3030   -0.02000
  1.3050   -0.01800
  1.3070   -0.01600
  1.3090   -0.01400
  1.3110   -0.01100
  1.3130   -0.00900
  1.3150   -0.00700
  1.3170   -0.00500
  1.3190   -0.00200
  1.3210    0.00000
  1.3230    0.00200
  1.3250    0.00500
  1.3270    0.00700
  1.3290    0.00900
  1.3310    0.01200
  1.3330    0.01400
  1.3350    0.01700
  1.3370    0.01900
  1.3390    0.02100
  1.3410    0.02400
  1.3430    0.02600
  1.3450    0.02900
  1.3470    0.03100
  1.3490    0.03400
  1.3510    0.03600
  1.3530    0.03900
  1.3550    0.04200
  1.3570    0.04400
  1.3590    0.04700
  1.3610    0.04900
  1.3630    0.05200
  1.3650    0.05500
  1.3670    0.05700
  1.3690    0.06000
  1.3710    0.06200
  1.3730    0.06500
  1.3750    0.06700
  1.3770    0.07000
  1.3790    0.07200
  1.3810    0.07500
  1.3830    0.07700
  1.3850    0.07900
  1.3870    0.08000
  1.3890    0.08200
  1.3910    0.08300
  1.3930    0.08400
  1.3950    0.08500
  1.3970    0.08600
  1.3990    0.08600
