# z (nm)   (kJ/mol)
  0.060000,287.395040
  0.062000,284.589000
  0.064000,281.808900
  0.066000,278.551340
  0.068000,275.444080
  0.070000,272.546160
  0.072000,269.578160
  0.074000,266.689070
  0.076000,263.742930
  0.078000,260.783740
  0.080000,257.788460
  0.082000,254.755910
  0.084000,251.669550
  0.086000,248.514700
  0.088000,245.293130
  0.090000,241.998400
  0.092000,238.611730
  0.094000,235.129600
  0.096000,231.548080
  0.098000,227.867210
  0.100000,224.098770
  0.102000,220.245780
  0.104000,216.329470
  0.106000,212.362680
  0.108000,208.356760
  0.110000,204.323410
  0.112000,200.273620
  0.114000,196.210790
  0.116000,192.152340
  0.118000,188.106590
  0.120000,184.082160
  0.122000,180.098850
  0.124000,176.161230
  0.126000,172.274190
  0.128000,168.437600
  0.130000,164.651670
  0.132000,160.936660
  0.134000,157.287620
  0.136000,153.704840
  0.138000,150.196680
  0.140000,146.757440
  0.142000,143.390140
  0.144000,140.093220
  0.146000,136.859110
  0.148000,133.685260
  0.150000,130.562250
  0.152000,127.492820
  0.154000,124.468680
  0.156000,121.491720
  0.158000,118.551500
  0.160000,115.646230
  0.162000,112.774580
  0.164000,109.932110
  0.166000,107.112260
  0.168000,104.316910
  0.170000,101.549270
  0.172000, 98.799400
  0.174000, 96.069530
  0.176000, 93.353610
  0.178000, 90.657010
  0.180000, 87.978310
  0.182000, 85.316500
  0.184000, 82.677720
  0.186000, 80.059460
  0.188000, 77.477610
  0.190000, 74.934450
  0.192000, 72.433570
  0.194000, 69.984940
  0.196000, 67.593780
  0.198000, 65.265520
  0.200000, 62.996810
  0.202000, 60.782330
  0.204000, 58.616560
  0.206000, 56.491660
  0.208000, 54.400510
  0.210000, 52.340540
  0.212000, 50.301200
  0.214000, 48.277820
  0.216000, 46.270200
  0.218000, 44.286070
  0.220000, 42.331190
  0.222000, 40.410340
  0.224000, 38.533910
  0.226000, 36.700800
  0.228000, 34.926370
  0.230000, 33.204960
  0.232000, 31.541180
  0.234000, 29.926220
  0.236000, 28.363810
  0.238000, 26.846940
  0.240000, 25.372660
  0.242000, 23.937680
  0.244000, 22.534640
  0.246000, 21.168720
  0.248000, 19.834210
  0.250000, 18.534610
  0.252000, 17.274230
  0.254000, 16.055010
  0.256000, 14.876060
  0.258000, 13.741970
  0.260000, 12.647560
  0.262000, 11.593730
  0.264000, 10.582870
  0.266000,  9.612130
  0.268000,  8.668230
  0.270000,  7.766520
  0.272000,  6.891870
  0.274000,  6.051360
  0.276000,  5.238900
  0.278000,  4.460380
  0.280000,  3.711180
  0.282000,  2.984410
  0.284000,  2.293230
  0.286000,  1.636760
  0.288000,  1.015310
  0.290000,  0.434700
  0.292000, -0.116270
  0.294000, -0.626400
  0.296000, -1.098110
  0.298000, -1.531300
  0.300000, -1.933470
  0.302000, -2.303820
  0.304000, -2.641250
  0.306000, -2.951950
  0.308000, -3.237820
  0.310000, -3.506680
  0.312000, -3.753840
  0.314000, -3.981340
  0.316000, -4.201110
  0.318000, -4.400980
  0.320000, -4.582940
  0.322000, -4.749320
  0.324000, -4.900060
  0.326000, -5.029430
  0.328000, -5.143260
  0.330000, -5.231450
  0.332000, -5.306940
  0.334000, -5.359390
  0.336000, -5.392290
  0.338000, -5.409580
  0.340000, -5.408940
  0.342000, -5.387050
  0.344000, -5.349110
  0.346000, -5.296450
  0.348000, -5.231940
  0.350000, -5.154850
  0.352000, -5.067720
  0.354000, -4.972270
  0.356000, -4.870860
  0.358000, -4.766170
  0.360000, -4.655420
  0.362000, -4.535490
  0.364000, -4.416390
  0.366000, -4.292670
  0.368000, -4.164780
  0.370000, -4.039120
  0.372000, -3.912380
  0.374000, -3.780890
  0.376000, -3.645350
  0.378000, -3.506540
  0.380000, -3.366670
  0.382000, -3.225210
  0.384000, -3.075430
  0.386000, -2.922220
  0.388000, -2.770640
  0.390000, -2.618570
  0.392000, -2.465790
  0.394000, -2.311590
  0.396000, -2.148820
  0.398000, -1.988920
  0.400000, -1.826490
  0.402000, -1.667150
  0.404000, -1.503850
  0.406000, -1.340890
  0.408000, -1.174930
  0.410000, -1.008500
  0.412000, -0.841830
  0.414000, -0.675290
  0.416000, -0.513090
  0.418000, -0.360500
  0.420000, -0.203010
  0.422000, -0.054540
  0.424000,  0.096570
  0.426000,  0.238900
  0.428000,  0.375180
  0.430000,  0.505160
  0.432000,  0.634690
  0.434000,  0.755960
  0.436000,  0.873410
  0.438000,  0.993280
  0.440000,  1.103660
  0.442000,  1.211370
  0.444000,  1.321650
  0.446000,  1.432240
  0.448000,  1.542690
  0.450000,  1.654830
  0.452000,  1.766930
  0.454000,  1.875010
  0.456000,  1.981620
  0.458000,  2.087700
  0.460000,  2.193780
  0.462000,  2.296320
  0.464000,  2.403030
  0.466000,  2.496260
  0.468000,  2.588960
  0.470000,  2.670700
  0.472000,  2.747170
  0.474000,  2.821760
  0.476000,  2.892240
  0.478000,  2.957340
  0.480000,  3.020040
  0.482000,  3.072320
  0.484000,  3.118060
  0.486000,  3.161480
  0.488000,  3.202740
  0.490000,  3.240080
  0.492000,  3.275090
  0.494000,  3.308070
  0.496000,  3.338930
  0.498000,  3.370240
  0.500000,  3.403420
  0.502000,  3.433930
  0.504000,  3.467740
  0.506000,  3.498900
  0.508000,  3.533030
  0.510000,  3.561900
  0.512000,  3.590850
  0.514000,  3.615590
  0.516000,  3.633680
  0.518000,  3.651190
  0.520000,  3.671580
  0.522000,  3.685390
  0.524000,  3.703130
  0.526000,  3.709270
  0.528000,  3.712360
  0.530000,  3.717120
  0.532000,  3.709120
  0.534000,  3.704250
  0.536000,  3.699540
  0.538000,  3.688680
  0.540000,  3.674650
  0.542000,  3.656060
  0.544000,  3.635180
  0.546000,  3.602070
  0.548000,  3.563530
  0.550000,  3.516150
  0.552000,  3.463890
  0.554000,  3.408650
  0.556000,  3.344140
  0.558000,  3.275060
  0.560000,  3.200060
  0.562000,  3.121600
  0.564000,  3.039260
  0.566000,  2.957990
  0.568000,  2.876490
  0.570000,  2.792270
  0.572000,  2.706930
  0.574000,  2.624450
  0.576000,  2.537190
  0.578000,  2.449950
  0.580000,  2.362890
  0.582000,  2.273520
  0.584000,  2.175200
  0.586000,  2.082570
  0.588000,  1.982640
  0.590000,  1.878890
  0.592000,  1.775160
  0.594000,  1.669470
  0.596000,  1.557930
  0.598000,  1.442070
  0.600000,  1.325500
  0.602000,  1.210930
  0.604000,  1.087130
  0.606000,  0.968120
  0.608000,  0.850900
  0.610000,  0.735480
  0.612000,  0.622120
  0.614000,  0.511130
  0.616000,  0.411350
  0.618000,  0.315430
  0.620000,  0.222680
  0.622000,  0.132210
  0.624000,  0.050500
  0.626000, -0.024610
  0.628000, -0.090930
  0.630000, -0.161730
  0.632000, -0.223390
  0.634000, -0.278190
  0.636000, -0.325310
  0.638000, -0.372230
  0.640000, -0.417170
  0.642000, -0.455360
  0.644000, -0.494950
  0.646000, -0.531540
  0.648000, -0.567540
  0.650000, -0.606200
  0.652000, -0.645950
  0.654000, -0.679320
  0.656000, -0.697070
  0.658000, -0.726180
  0.660000, -0.753610
  0.662000, -0.772660
  0.664000, -0.790300
  0.666000, -0.801170
  0.668000, -0.806970
  0.670000, -0.808700
  0.672000, -0.802430
  0.674000, -0.792210
  0.676000, -0.777060
  0.678000, -0.754030
  0.680000, -0.732770
  0.682000, -0.709140
  0.684000, -0.683730
  0.686000, -0.653690
  0.688000, -0.625930
  0.690000, -0.597680
  0.692000, -0.571790
  0.694000, -0.539670
  0.696000, -0.514420
  0.698000, -0.488210
  0.700000, -0.466230
  0.702000, -0.448720
  0.704000, -0.431960
  0.706000, -0.415040
  0.708000, -0.400060
  0.710000, -0.387060
  0.712000, -0.373500
  0.714000, -0.360140
  0.716000, -0.342610
  0.718000, -0.327100
  0.720000, -0.306420
  0.722000, -0.286260
  0.724000, -0.263780
  0.726000, -0.237940
  0.728000, -0.207920
  0.730000, -0.178850
  0.732000, -0.146240
  0.734000, -0.113530
  0.736000, -0.082310
  0.738000, -0.038800
  0.740000,  0.001350
  0.742000,  0.039360
  0.744000,  0.081880
  0.746000,  0.121910
  0.748000,  0.165680
  0.750000,  0.202420
  0.752000,  0.244530
  0.754000,  0.281430
  0.756000,  0.317330
  0.758000,  0.346890
  0.760000,  0.372980
  0.762000,  0.398950
  0.764000,  0.421380
  0.766000,  0.443650
  0.768000,  0.464140
  0.770000,  0.479940
  0.772000,  0.497550
  0.774000,  0.515030
  0.776000,  0.535650
  0.778000,  0.555880
  0.780000,  0.574720
  0.782000,  0.590960
  0.784000,  0.611240
  0.786000,  0.635800
  0.788000,  0.660510
  0.790000,  0.676470
  0.792000,  0.688610
  0.794000,  0.709150
  0.796000,  0.723760
  0.798000,  0.741970
  0.800000,  0.755910
  0.802000,  0.773250
  0.804000,  0.792770
  0.806000,  0.805730
  0.808000,  0.818740
  0.810000,  0.835050
  0.812000,  0.844640
  0.814000,  0.852100
  0.816000,  0.857270
  0.818000,  0.860130
  0.820000,  0.865780
  0.822000,  0.865630
  0.824000,  0.862840
  0.826000,  0.859310
  0.828000,  0.858050
  0.830000,  0.853470
  0.832000,  0.842380
  0.834000,  0.837690
  0.836000,  0.833050
  0.838000,  0.828480
  0.840000,  0.821410
  0.842000,  0.815720
  0.844000,  0.807420
  0.846000,  0.797980
  0.848000,  0.787470
  0.850000,  0.778120
  0.852000,  0.771720
  0.854000,  0.761080
  0.856000,  0.752330
  0.858000,  0.741800
  0.860000,  0.729380
  0.862000,  0.717350
  0.864000,  0.700330
  0.866000,  0.682870
  0.868000,  0.662450
  0.870000,  0.641040
  0.872000,  0.617760
  0.874000,  0.593460
  0.876000,  0.569210
  0.878000,  0.548030
  0.880000,  0.529110
  0.882000,  0.509830
  0.884000,  0.489850
  0.886000,  0.476760
  0.888000,  0.462180
  0.890000,  0.445330
  0.892000,  0.429890
  0.894000,  0.412870
  0.896000,  0.393900
  0.898000,  0.378160
  0.900000,  0.361930
  0.902000,  0.340260
  0.904000,  0.321580
  0.906000,  0.304210
  0.908000,  0.284490
  0.910000,  0.265250
  0.912000,  0.243640
  0.914000,  0.224600
  0.916000,  0.198870
  0.918000,  0.176330
  0.920000,  0.150110
  0.922000,  0.126660
  0.924000,  0.101350
  0.926000,  0.074450
  0.928000,  0.052110
  0.930000,  0.033720
  0.932000,  0.013460
  0.934000,  0.001320
  0.936000, -0.009350
  0.938000, -0.018030
  0.940000, -0.027350
  0.942000, -0.035840
  0.944000, -0.043580
  0.946000, -0.050570
  0.948000, -0.058910
  0.950000, -0.067280
  0.952000, -0.071030
  0.954000, -0.074310
  0.956000, -0.079870
  0.958000, -0.082480
  0.960000, -0.083610
  0.962000, -0.084860
  0.964000, -0.085330
  0.966000, -0.081430
  0.968000, -0.077960
  0.970000, -0.079520
  0.972000, -0.080430
  0.974000, -0.085890
  0.976000, -0.093020
  0.978000, -0.099620
  0.980000, -0.109650
  0.982000, -0.117560
  0.984000, -0.125650
  0.986000, -0.133400
  0.988000, -0.138480
  0.990000, -0.134170
  0.992000, -0.138800
  0.994000, -0.141970
  0.996000, -0.136710
  0.998000, -0.137820
  1.000000, -0.127940
