# z (nm)   (kJ/mol)
  0.078000,272.162160
  0.080000,268.170770
  0.082000,264.266960
  0.084000,260.848890
  0.086000,257.769330
  0.088000,254.571190
  0.090000,251.492520
  0.092000,248.414090
  0.094000,245.284760
  0.096000,242.103130
  0.098000,238.855770
  0.100000,235.524000
  0.102000,232.103650
  0.104000,228.576680
  0.106000,224.940690
  0.108000,221.178880
  0.110000,217.301460
  0.112000,213.312260
  0.114000,209.218960
  0.116000,205.039750
  0.118000,200.798480
  0.120000,196.516810
  0.122000,192.220080
  0.124000,187.930590
  0.126000,183.671220
  0.128000,179.450780
  0.130000,175.282140
  0.132000,171.165510
  0.134000,167.108500
  0.136000,163.122010
  0.138000,159.203530
  0.140000,155.359970
  0.142000,151.596000
  0.144000,147.907730
  0.146000,144.290270
  0.148000,140.745550
  0.150000,137.269380
  0.152000,133.869740
  0.154000,130.552880
  0.156000,127.322300
  0.158000,124.176800
  0.160000,121.103660
  0.162000,118.075920
  0.164000,115.071630
  0.166000,112.070970
  0.168000,109.055650
  0.170000,106.028640
  0.172000,102.993830
  0.174000, 99.978200
  0.176000, 96.985910
  0.178000, 94.043290
  0.180000, 91.151650
  0.182000, 88.307810
  0.184000, 85.514770
  0.186000, 82.769490
  0.188000, 80.067260
  0.190000, 77.402810
  0.192000, 74.768420
  0.194000, 72.169650
  0.196000, 69.588460
  0.198000, 67.024330
  0.200000, 64.484370
  0.202000, 61.965750
  0.204000, 59.480540
  0.206000, 57.039530
  0.208000, 54.650950
  0.210000, 52.327290
  0.212000, 50.073190
  0.214000, 47.885270
  0.216000, 45.754350
  0.218000, 43.667370
  0.220000, 41.622140
  0.222000, 39.599190
  0.224000, 37.588760
  0.226000, 35.603640
  0.228000, 33.650760
  0.230000, 31.749710
  0.232000, 29.909320
  0.234000, 28.146050
  0.236000, 26.459700
  0.238000, 24.848950
  0.240000, 23.283630
  0.242000, 21.759680
  0.244000, 20.264140
  0.246000, 18.775190
  0.248000, 17.290710
  0.250000, 15.805150
  0.252000, 14.337020
  0.254000, 12.886910
  0.256000, 11.469530
  0.258000, 10.097620
  0.260000,  8.787140
  0.262000,  7.537230
  0.264000,  6.351490
  0.266000,  5.229170
  0.268000,  4.169500
  0.270000,  3.169300
  0.272000,  2.227440
  0.274000,  1.332110
  0.276000,  0.477910
  0.278000, -0.341030
  0.280000, -1.154150
  0.282000, -1.951850
  0.284000, -2.738570
  0.286000, -3.514240
  0.288000, -4.271630
  0.290000, -4.990790
  0.292000, -5.657930
  0.294000, -6.273320
  0.296000, -6.827580
  0.298000, -7.326150
  0.300000, -7.764820
  0.302000, -8.170380
  0.304000, -8.541280
  0.306000, -8.876750
  0.308000, -9.195070
  0.310000, -9.489110
  0.312000, -9.763300
  0.314000,-10.014160
  0.316000,-10.242400
  0.318000,-10.451260
  0.320000,-10.635090
  0.322000,-10.794110
  0.324000,-10.931020
  0.326000,-11.040060
  0.328000,-11.128150
  0.330000,-11.189650
  0.332000,-11.230970
  0.334000,-11.256470
  0.336000,-11.259720
  0.338000,-11.243400
  0.340000,-11.223840
  0.342000,-11.175450
  0.344000,-11.115940
  0.346000,-11.040880
  0.348000,-10.952160
  0.350000,-10.849970
  0.352000,-10.745240
  0.354000,-10.627610
  0.356000,-10.508750
  0.358000,-10.383050
  0.360000,-10.250360
  0.362000,-10.123040
  0.364000, -9.993570
  0.366000, -9.861880
  0.368000, -9.727720
  0.370000, -9.599690
  0.372000, -9.471280
  0.374000, -9.337940
  0.376000, -9.209490
  0.378000, -9.079260
  0.380000, -8.938230
  0.382000, -8.803420
  0.384000, -8.661580
  0.386000, -8.521070
  0.388000, -8.377250
  0.390000, -8.224960
  0.392000, -8.075860
  0.394000, -7.932450
  0.396000, -7.784710
  0.398000, -7.638840
  0.400000, -7.493910
  0.402000, -7.349220
  0.404000, -7.205410
  0.406000, -7.061700
  0.408000, -6.917160
  0.410000, -6.762800
  0.412000, -6.609650
  0.414000, -6.458310
  0.416000, -6.309720
  0.418000, -6.165390
  0.420000, -6.021760
  0.422000, -5.891460
  0.424000, -5.767230
  0.426000, -5.654680
  0.428000, -5.551510
  0.430000, -5.454830
  0.432000, -5.369720
  0.434000, -5.296640
  0.436000, -5.220640
  0.438000, -5.153630
  0.440000, -5.088760
  0.442000, -5.027310
  0.444000, -4.965750
  0.446000, -4.910570
  0.448000, -4.862300
  0.450000, -4.809700
  0.452000, -4.748940
  0.454000, -4.686410
  0.456000, -4.619200
  0.458000, -4.545580
  0.460000, -4.473550
  0.462000, -4.398470
  0.464000, -4.325990
  0.466000, -4.245480
  0.468000, -4.166010
  0.470000, -4.087870
  0.472000, -4.010150
  0.474000, -3.922060
  0.476000, -3.837080
  0.478000, -3.728330
  0.480000, -3.612420
  0.482000, -3.478100
  0.484000, -3.332090
  0.486000, -3.172230
  0.488000, -3.004010
  0.490000, -2.828860
  0.492000, -2.652510
  0.494000, -2.473320
  0.496000, -2.304270
  0.498000, -2.142940
  0.500000, -1.981160
  0.502000, -1.822510
  0.504000, -1.670630
  0.506000, -1.518250
  0.508000, -1.357960
  0.510000, -1.189070
  0.512000, -1.008390
  0.514000, -0.830720
  0.516000, -0.644820
  0.518000, -0.459640
  0.520000, -0.268830
  0.522000, -0.089270
  0.524000,  0.079510
  0.526000,  0.233130
  0.528000,  0.374070
  0.530000,  0.507310
  0.532000,  0.625460
  0.534000,  0.737040
  0.536000,  0.836700
  0.538000,  0.933270
  0.540000,  1.019680
  0.542000,  1.103010
  0.544000,  1.182970
  0.546000,  1.256820
  0.548000,  1.336160
  0.550000,  1.413460
  0.552000,  1.482900
  0.554000,  1.556450
  0.556000,  1.631620
  0.558000,  1.694320
  0.560000,  1.750890
  0.562000,  1.786550
  0.564000,  1.813270
  0.566000,  1.826740
  0.568000,  1.830810
  0.570000,  1.830600
  0.572000,  1.830410
  0.574000,  1.824020
  0.576000,  1.808860
  0.578000,  1.785350
  0.580000,  1.757970
  0.582000,  1.722260
  0.584000,  1.671670
  0.586000,  1.617140
  0.588000,  1.561590
  0.590000,  1.506390
  0.592000,  1.460650
  0.594000,  1.423110
  0.596000,  1.386630
  0.598000,  1.352130
  0.600000,  1.314310
  0.602000,  1.281260
  0.604000,  1.237540
  0.606000,  1.188040
  0.608000,  1.128420
  0.610000,  1.059530
  0.612000,  0.989990
  0.614000,  0.908520
  0.616000,  0.822690
  0.618000,  0.733870
  0.620000,  0.640260
  0.622000,  0.544190
  0.624000,  0.447230
  0.626000,  0.352000
  0.628000,  0.253750
  0.630000,  0.157240
  0.632000,  0.064550
  0.634000, -0.014800
  0.636000, -0.086490
  0.638000, -0.161420
  0.640000, -0.225580
  0.642000, -0.283630
  0.644000, -0.337420
  0.646000, -0.393110
  0.648000, -0.443160
  0.650000, -0.492960
  0.652000, -0.536760
  0.654000, -0.583040
  0.656000, -0.625440
  0.658000, -0.664120
  0.660000, -0.705070
  0.662000, -0.738700
  0.664000, -0.773060
  0.666000, -0.805990
  0.668000, -0.839140
  0.670000, -0.877620
  0.672000, -0.912620
  0.674000, -0.944810
  0.676000, -0.980240
  0.678000, -1.012420
  0.680000, -1.037060
  0.682000, -1.066280
  0.684000, -1.084160
  0.686000, -1.093190
  0.688000, -1.092670
  0.690000, -1.094070
  0.692000, -1.092360
  0.694000, -1.088280
  0.696000, -1.079520
  0.698000, -1.071370
  0.700000, -1.064230
  0.702000, -1.058300
  0.704000, -1.049630
  0.706000, -1.046110
  0.708000, -1.045900
  0.710000, -1.046890
  0.712000, -1.048150
  0.714000, -1.040830
  0.716000, -1.038350
  0.718000, -1.029080
  0.720000, -1.020070
  0.722000, -1.014830
  0.724000, -1.001980
  0.726000, -0.987580
  0.728000, -0.966630
  0.730000, -0.940740
  0.732000, -0.908350
  0.734000, -0.876420
  0.736000, -0.842430
  0.738000, -0.812050
  0.740000, -0.780820
  0.742000, -0.744750
  0.744000, -0.714080
  0.746000, -0.685670
  0.748000, -0.658870
  0.750000, -0.643700
  0.752000, -0.630100
  0.754000, -0.614850
  0.756000, -0.607100
  0.758000, -0.601510
  0.760000, -0.595170
  0.762000, -0.586880
  0.764000, -0.578790
  0.766000, -0.577030
  0.768000, -0.564460
  0.770000, -0.552010
  0.772000, -0.538180
  0.774000, -0.521200
  0.776000, -0.497450
  0.778000, -0.472470
  0.780000, -0.444950
  0.782000, -0.425540
  0.784000, -0.399700
  0.786000, -0.375270
  0.788000, -0.360120
  0.790000, -0.346890
  0.792000, -0.328580
  0.794000, -0.313380
  0.796000, -0.297220
  0.798000, -0.277350
  0.800000, -0.248660
  0.802000, -0.212740
  0.804000, -0.176550
  0.806000, -0.135730
  0.808000, -0.089080
  0.810000, -0.038930
  0.812000,  0.014150
  0.814000,  0.069920
  0.816000,  0.118470
  0.818000,  0.160210
  0.820000,  0.199250
  0.822000,  0.231340
  0.824000,  0.252840
  0.826000,  0.267420
  0.828000,  0.282380
  0.830000,  0.291810
  0.832000,  0.287030
  0.834000,  0.293230
  0.836000,  0.297930
  0.838000,  0.308750
  0.840000,  0.316640
  0.842000,  0.328740
  0.844000,  0.342090
  0.846000,  0.357110
  0.848000,  0.375870
  0.850000,  0.401760
  0.852000,  0.418390
  0.854000,  0.439620
  0.856000,  0.449900
  0.858000,  0.457470
  0.860000,  0.461220
  0.862000,  0.462980
  0.864000,  0.454990
  0.866000,  0.441700
  0.868000,  0.422340
  0.870000,  0.410260
  0.872000,  0.396150
  0.874000,  0.382400
  0.876000,  0.375780
  0.878000,  0.368340
  0.880000,  0.366440
  0.882000,  0.370030
  0.884000,  0.369220
  0.886000,  0.377420
  0.888000,  0.374660
  0.890000,  0.368280
  0.892000,  0.365350
  0.894000,  0.367670
  0.896000,  0.367430
  0.898000,  0.368000
  0.900000,  0.364640
  0.902000,  0.360250
  0.904000,  0.354760
  0.906000,  0.348580
  0.908000,  0.339550
  0.910000,  0.330350
  0.912000,  0.317120
  0.914000,  0.303790
  0.916000,  0.269850
  0.918000,  0.241250
  0.920000,  0.216380
  0.922000,  0.186360
  0.924000,  0.158830
  0.926000,  0.129640
  0.928000,  0.101400
  0.930000,  0.080510
  0.932000,  0.060920
  0.934000,  0.046180
  0.936000,  0.031490
  0.938000,  0.020990
  0.940000,  0.009450
  0.942000, -0.001060
  0.944000, -0.012040
  0.946000, -0.026510
  0.948000, -0.044840
  0.950000, -0.066470
  0.952000, -0.086960
  0.954000, -0.106350
  0.956000, -0.129450
  0.958000, -0.143370
  0.960000, -0.155670
  0.962000, -0.165150
  0.964000, -0.162220
  0.966000, -0.158400
  0.968000, -0.160020
  0.970000, -0.159460
  0.972000, -0.159890
  0.974000, -0.157380
  0.976000, -0.159470
  0.978000, -0.157090
  0.980000, -0.149260
  0.982000, -0.147810
  0.984000, -0.146570
  0.986000, -0.146300
  0.988000, -0.145680
  0.990000, -0.147210
  0.992000, -0.148930
  0.994000, -0.153640
  0.996000, -0.159700
  0.998000, -0.169870
  1.000000, -0.180880
