# z (nm)   (kJ/mol)
  0.144000,273.656990
  0.146000,270.952100
  0.148000,267.764190
  0.150000,264.632990
  0.152000,261.545990
  0.154000,258.598800
  0.156000,255.662030
  0.158000,252.672960
  0.160000,249.645930
  0.162000,246.575560
  0.164000,243.448670
  0.166000,240.263560
  0.168000,237.007970
  0.170000,233.678570
  0.172000,230.271060
  0.174000,226.785830
  0.176000,223.225760
  0.178000,219.582680
  0.180000,215.861110
  0.182000,212.058590
  0.184000,208.181600
  0.186000,204.224010
  0.188000,200.191830
  0.190000,196.088810
  0.192000,191.914380
  0.194000,187.682750
  0.196000,183.420300
  0.198000,179.160890
  0.200000,174.938620
  0.202000,170.779940
  0.204000,166.704920
  0.206000,162.728060
  0.208000,158.851050
  0.210000,155.073880
  0.212000,151.397920
  0.214000,147.811440
  0.216000,144.298530
  0.218000,140.848270
  0.220000,137.456350
  0.222000,134.108940
  0.224000,130.800350
  0.226000,127.526200
  0.228000,124.283740
  0.230000,121.079780
  0.232000,117.922520
  0.234000,114.827170
  0.236000,111.806710
  0.238000,108.868210
  0.240000,106.007780
  0.242000,103.215950
  0.244000,100.478920
  0.246000, 97.760270
  0.248000, 95.057060
  0.250000, 92.346500
  0.252000, 89.625490
  0.254000, 86.894240
  0.256000, 84.167510
  0.258000, 81.461260
  0.260000, 78.793850
  0.262000, 76.175740
  0.264000, 73.619280
  0.266000, 71.122910
  0.268000, 68.679660
  0.270000, 66.277170
  0.272000, 63.903870
  0.274000, 61.554530
  0.276000, 59.223360
  0.278000, 56.914310
  0.280000, 54.629790
  0.282000, 52.380310
  0.284000, 50.183270
  0.286000, 48.046880
  0.288000, 45.988570
  0.290000, 44.009670
  0.292000, 42.108690
  0.294000, 40.281020
  0.296000, 38.513110
  0.298000, 36.777840
  0.300000, 35.070270
  0.302000, 33.371210
  0.304000, 31.691110
  0.306000, 30.033210
  0.308000, 28.415600
  0.310000, 26.842010
  0.312000, 25.356570
  0.314000, 23.934890
  0.316000, 22.578820
  0.318000, 21.265370
  0.320000, 19.968740
  0.322000, 18.676970
  0.324000, 17.369450
  0.326000, 16.064120
  0.328000, 14.764100
  0.330000, 13.509820
  0.332000, 12.312040
  0.334000, 11.191640
  0.336000, 10.167620
  0.338000,  9.234990
  0.340000,  8.373860
  0.342000,  7.571280
  0.344000,  6.794090
  0.346000,  6.023940
  0.348000,  5.263440
  0.350000,  4.490970
  0.352000,  3.717160
  0.354000,  2.948700
  0.356000,  2.197120
  0.358000,  1.474860
  0.360000,  0.793940
  0.362000,  0.160250
  0.364000, -0.420620
  0.366000, -0.950390
  0.368000, -1.424290
  0.370000, -1.868630
  0.372000, -2.278120
  0.374000, -2.656590
  0.376000, -3.015830
  0.378000, -3.358600
  0.380000, -3.688570
  0.382000, -3.999240
  0.384000, -4.289130
  0.386000, -4.557190
  0.388000, -4.800200
  0.390000, -5.031830
  0.392000, -5.244870
  0.394000, -5.440820
  0.396000, -5.622170
  0.398000, -5.784690
  0.400000, -5.927610
  0.402000, -6.047840
  0.404000, -6.146230
  0.406000, -6.218260
  0.408000, -6.269620
  0.410000, -6.294950
  0.412000, -6.294600
  0.414000, -6.274660
  0.416000, -6.233330
  0.418000, -6.178200
  0.420000, -6.112450
  0.422000, -6.035520
  0.424000, -5.957690
  0.426000, -5.877450
  0.428000, -5.791600
  0.430000, -5.700720
  0.432000, -5.605510
  0.434000, -5.505000
  0.436000, -5.402740
  0.438000, -5.293980
  0.440000, -5.181750
  0.442000, -5.065460
  0.444000, -4.945700
  0.446000, -4.818500
  0.448000, -4.690660
  0.450000, -4.563970
  0.452000, -4.440220
  0.454000, -4.319350
  0.456000, -4.204710
  0.458000, -4.097690
  0.460000, -3.987750
  0.462000, -3.884400
  0.464000, -3.788740
  0.466000, -3.688390
  0.468000, -3.582210
  0.470000, -3.476340
  0.472000, -3.363630
  0.474000, -3.248670
  0.476000, -3.127840
  0.478000, -3.005990
  0.480000, -2.877040
  0.482000, -2.739020
  0.484000, -2.601560
  0.486000, -2.470080
  0.488000, -2.333730
  0.490000, -2.205980
  0.492000, -2.078290
  0.494000, -1.956240
  0.496000, -1.832170
  0.498000, -1.714850
  0.500000, -1.590110
  0.502000, -1.467570
  0.504000, -1.347980
  0.506000, -1.230200
  0.508000, -1.094240
  0.510000, -0.967710
  0.512000, -0.828250
  0.514000, -0.687650
  0.516000, -0.542820
  0.518000, -0.400190
  0.520000, -0.266240
  0.522000, -0.130910
  0.524000, -0.001920
  0.526000,  0.118100
  0.528000,  0.240670
  0.530000,  0.351420
  0.532000,  0.461670
  0.534000,  0.567940
  0.536000,  0.676470
  0.538000,  0.777370
  0.540000,  0.871010
  0.542000,  0.957370
  0.544000,  1.038770
  0.546000,  1.110140
  0.548000,  1.177110
  0.550000,  1.237240
  0.552000,  1.297090
  0.554000,  1.357740
  0.556000,  1.427680
  0.558000,  1.507060
  0.560000,  1.595720
  0.562000,  1.697010
  0.564000,  1.807410
  0.566000,  1.918360
  0.568000,  2.019050
  0.570000,  2.108540
  0.572000,  2.174390
  0.574000,  2.222600
  0.576000,  2.247490
  0.578000,  2.253470
  0.580000,  2.240840
  0.582000,  2.214210
  0.584000,  2.185950
  0.586000,  2.155300
  0.588000,  2.133070
  0.590000,  2.124520
  0.592000,  2.124510
  0.594000,  2.141770
  0.596000,  2.161590
  0.598000,  2.189350
  0.600000,  2.208620
  0.602000,  2.209480
  0.604000,  2.196210
  0.606000,  2.165130
  0.608000,  2.108150
  0.610000,  2.034580
  0.612000,  1.962860
  0.614000,  1.886970
  0.616000,  1.815370
  0.618000,  1.736790
  0.620000,  1.664840
  0.622000,  1.595820
  0.624000,  1.514890
  0.626000,  1.424810
  0.628000,  1.319320
  0.630000,  1.193010
  0.632000,  1.049190
  0.634000,  0.892810
  0.636000,  0.729010
  0.638000,  0.564210
  0.640000,  0.403470
  0.642000,  0.259350
  0.644000,  0.118980
  0.646000, -0.014440
  0.648000, -0.149270
  0.650000, -0.281140
  0.652000, -0.413200
  0.654000, -0.554940
  0.656000, -0.695740
  0.658000, -0.839530
  0.660000, -0.983050
  0.662000, -1.112030
  0.664000, -1.231190
  0.666000, -1.339220
  0.668000, -1.438240
  0.670000, -1.527300
  0.672000, -1.606510
  0.674000, -1.686870
  0.676000, -1.770070
  0.678000, -1.843360
  0.680000, -1.931400
  0.682000, -2.016980
  0.684000, -2.104820
  0.686000, -2.180950
  0.688000, -2.252400
  0.690000, -2.316450
  0.692000, -2.352680
  0.694000, -2.385870
  0.696000, -2.402250
  0.698000, -2.403700
  0.700000, -2.395200
  0.702000, -2.388600
  0.704000, -2.381000
  0.706000, -2.378550
  0.708000, -2.382290
  0.710000, -2.395260
  0.712000, -2.416360
  0.714000, -2.457530
  0.716000, -2.504190
  0.718000, -2.568760
  0.720000, -2.636500
  0.722000, -2.700000
  0.724000, -2.747520
  0.726000, -2.775520
  0.728000, -2.766080
  0.730000, -2.734540
  0.732000, -2.675370
  0.734000, -2.591720
  0.736000, -2.498120
  0.738000, -2.398540
  0.740000, -2.302710
  0.742000, -2.225140
  0.744000, -2.162930
  0.746000, -2.126960
  0.748000, -2.114680
  0.750000, -2.114070
  0.752000, -2.120720
  0.754000, -2.136100
  0.756000, -2.148010
  0.758000, -2.155150
  0.760000, -2.146610
  0.762000, -2.125730
  0.764000, -2.091850
  0.766000, -2.043020
  0.768000, -1.982800
  0.770000, -1.901060
  0.772000, -1.820110
  0.774000, -1.727050
  0.776000, -1.621700
  0.778000, -1.524190
  0.780000, -1.431680
  0.782000, -1.345250
  0.784000, -1.269440
  0.786000, -1.213940
  0.788000, -1.178420
  0.790000, -1.161770
  0.792000, -1.157060
  0.794000, -1.163310
  0.796000, -1.174050
  0.798000, -1.177220
  0.800000, -1.166900
  0.802000, -1.130610
  0.804000, -1.078790
  0.806000, -1.002720
  0.808000, -0.907610
  0.810000, -0.789610
  0.812000, -0.660680
  0.814000, -0.529890
  0.816000, -0.412510
  0.818000, -0.306310
  0.820000, -0.231240
  0.822000, -0.177360
  0.824000, -0.151260
  0.826000, -0.166310
  0.828000, -0.192280
  0.830000, -0.221660
  0.832000, -0.247190
  0.834000, -0.266520
  0.836000, -0.261770
  0.838000, -0.232810
  0.840000, -0.181540
  0.842000, -0.102490
  0.844000, -0.019060
  0.846000,  0.062920
  0.848000,  0.135910
  0.850000,  0.199280
  0.852000,  0.236140
  0.854000,  0.255670
  0.856000,  0.261130
  0.858000,  0.257270
  0.860000,  0.247080
  0.862000,  0.235720
  0.864000,  0.218550
  0.866000,  0.204780
  0.868000,  0.203220
  0.870000,  0.208180
  0.872000,  0.216450
  0.874000,  0.224050
  0.876000,  0.238220
  0.878000,  0.257310
  0.880000,  0.278380
  0.882000,  0.298620
  0.884000,  0.318110
  0.886000,  0.347760
  0.888000,  0.372700
  0.890000,  0.396230
  0.892000,  0.416320
  0.894000,  0.432590
  0.896000,  0.443560
  0.898000,  0.447270
  0.900000,  0.442390
  0.902000,  0.433600
  0.904000,  0.418380
  0.906000,  0.384220
  0.908000,  0.349600
  0.910000,  0.316840
  0.912000,  0.292130
  0.914000,  0.272150
  0.916000,  0.254860
  0.918000,  0.249430
  0.920000,  0.243880
  0.922000,  0.237700
  0.924000,  0.229290
  0.926000,  0.219270
  0.928000,  0.208390
  0.930000,  0.192580
  0.932000,  0.179800
  0.934000,  0.170770
  0.936000,  0.163500
  0.938000,  0.157050
  0.940000,  0.153500
  0.942000,  0.143290
  0.944000,  0.131790
  0.946000,  0.116730
  0.948000,  0.089240
  0.950000,  0.064220
  0.952000,  0.034820
  0.954000,  0.000740
  0.956000, -0.044240
  0.958000, -0.086790
  0.960000, -0.122710
  0.962000, -0.155980
  0.964000, -0.184160
  0.966000, -0.202660
  0.968000, -0.213320
  0.970000, -0.218740
  0.972000, -0.221850
  0.974000, -0.223240
  0.976000, -0.219930
  0.978000, -0.220130
  0.980000, -0.230430
  0.982000, -0.245910
  0.984000, -0.264800
  0.986000, -0.288130
  0.988000, -0.313250
  0.990000, -0.338570
  0.992000, -0.358610
  0.994000, -0.377550
  0.996000, -0.389420
  0.998000, -0.396310
  1.000000, -0.391030
