# z (nm)   (kJ/mol)
  0.096000,273.057610
  0.098000,269.299830
  0.100000,265.640890
  0.102000,262.278430
  0.104000,259.246430
  0.106000,256.410680
  0.108000,253.444990
  0.110000,250.545830
  0.112000,247.626710
  0.114000,244.691000
  0.116000,241.736860
  0.118000,238.731490
  0.120000,235.681220
  0.122000,232.570550
  0.124000,229.395670
  0.126000,226.143720
  0.128000,222.814620
  0.130000,219.403390
  0.132000,215.904870
  0.134000,212.324270
  0.136000,208.673840
  0.138000,204.954290
  0.140000,201.177080
  0.142000,197.351210
  0.144000,193.488480
  0.146000,189.594610
  0.148000,185.676210
  0.150000,181.747350
  0.152000,177.821980
  0.154000,173.908810
  0.156000,170.037940
  0.158000,166.227260
  0.160000,162.492300
  0.162000,158.843320
  0.164000,155.302600
  0.166000,151.871230
  0.168000,148.546640
  0.170000,145.328770
  0.172000,142.206420
  0.174000,139.172790
  0.176000,136.211710
  0.178000,133.320020
  0.180000,130.479240
  0.182000,127.676660
  0.184000,124.902110
  0.186000,122.141610
  0.188000,119.393190
  0.190000,116.648050
  0.192000,113.913150
  0.194000,111.198080
  0.196000,108.514440
  0.198000,105.868420
  0.200000,103.269760
  0.202000,100.717080
  0.204000, 98.203540
  0.206000, 95.724270
  0.208000, 93.268190
  0.210000, 90.837600
  0.212000, 88.430720
  0.214000, 86.054690
  0.216000, 83.718300
  0.218000, 81.424950
  0.220000, 79.178190
  0.222000, 76.978220
  0.224000, 74.825530
  0.226000, 72.720420
  0.228000, 70.663660
  0.230000, 68.647280
  0.232000, 66.673320
  0.234000, 64.733840
  0.236000, 62.830240
  0.238000, 60.962140
  0.240000, 59.136250
  0.242000, 57.345430
  0.244000, 55.597990
  0.246000, 53.904700
  0.248000, 52.264340
  0.250000, 50.668570
  0.252000, 49.122780
  0.254000, 47.614590
  0.256000, 46.134320
  0.258000, 44.680930
  0.260000, 43.246330
  0.262000, 41.823240
  0.264000, 40.419350
  0.266000, 39.037620
  0.268000, 37.691200
  0.270000, 36.385400
  0.272000, 35.126950
  0.274000, 33.920960
  0.276000, 32.763230
  0.278000, 31.655230
  0.280000, 30.585250
  0.282000, 29.539110
  0.284000, 28.511870
  0.286000, 27.495010
  0.288000, 26.495210
  0.290000, 25.506330
  0.292000, 24.533680
  0.294000, 23.587810
  0.296000, 22.671470
  0.298000, 21.788830
  0.300000, 20.958280
  0.302000, 20.157070
  0.304000, 19.409210
  0.306000, 18.702070
  0.308000, 18.027480
  0.310000, 17.378950
  0.312000, 16.750570
  0.314000, 16.136530
  0.316000, 15.530170
  0.318000, 14.929720
  0.320000, 14.339460
  0.322000, 13.753930
  0.324000, 13.185480
  0.326000, 12.631950
  0.328000, 12.096250
  0.330000, 11.578770
  0.332000, 11.092420
  0.334000, 10.622180
  0.336000, 10.176120
  0.338000,  9.748370
  0.340000,  9.328230
  0.342000,  8.931330
  0.344000,  8.535550
  0.346000,  8.137820
  0.348000,  7.736730
  0.350000,  7.338070
  0.352000,  6.931370
  0.354000,  6.528370
  0.356000,  6.122130
  0.358000,  5.728430
  0.360000,  5.339090
  0.362000,  4.965240
  0.364000,  4.604330
  0.366000,  4.250400
  0.368000,  3.908820
  0.370000,  3.571770
  0.372000,  3.233730
  0.374000,  2.890910
  0.376000,  2.539320
  0.378000,  2.177840
  0.380000,  1.811970
  0.382000,  1.434260
  0.384000,  1.054650
  0.386000,  0.673660
  0.388000,  0.299210
  0.390000, -0.071150
  0.392000, -0.424780
  0.394000, -0.770310
  0.396000, -1.097170
  0.398000, -1.413460
  0.400000, -1.714810
  0.402000, -1.999430
  0.404000, -2.271200
  0.406000, -2.535950
  0.408000, -2.783600
  0.410000, -3.029950
  0.412000, -3.261010
  0.414000, -3.479740
  0.416000, -3.685340
  0.418000, -3.869220
  0.420000, -4.020490
  0.422000, -4.154240
  0.424000, -4.253760
  0.426000, -4.333010
  0.428000, -4.388790
  0.430000, -4.428960
  0.432000, -4.454570
  0.434000, -4.465870
  0.436000, -4.462520
  0.438000, -4.459920
  0.440000, -4.436750
  0.442000, -4.406820
  0.444000, -4.369720
  0.446000, -4.318740
  0.448000, -4.257760
  0.450000, -4.185390
  0.452000, -4.104560
  0.454000, -4.001490
  0.456000, -3.886370
  0.458000, -3.759470
  0.460000, -3.615390
  0.462000, -3.454220
  0.464000, -3.287790
  0.466000, -3.109900
  0.468000, -2.928240
  0.470000, -2.754770
  0.472000, -2.587630
  0.474000, -2.435980
  0.476000, -2.285050
  0.478000, -2.136570
  0.480000, -1.990440
  0.482000, -1.852290
  0.484000, -1.714620
  0.486000, -1.574380
  0.488000, -1.427030
  0.490000, -1.272420
  0.492000, -1.122610
  0.494000, -0.966100
  0.496000, -0.813000
  0.498000, -0.645480
  0.500000, -0.471320
  0.502000, -0.298740
  0.504000, -0.128380
  0.506000,  0.028880
  0.508000,  0.174900
  0.510000,  0.286260
  0.512000,  0.366960
  0.514000,  0.410870
  0.516000,  0.418610
  0.518000,  0.387660
  0.520000,  0.338200
  0.522000,  0.280910
  0.524000,  0.251310
  0.526000,  0.240890
  0.528000,  0.266030
  0.530000,  0.309760
  0.532000,  0.376480
  0.534000,  0.446080
  0.536000,  0.502090
  0.538000,  0.534940
  0.540000,  0.534620
  0.542000,  0.508970
  0.544000,  0.465430
  0.546000,  0.405890
  0.548000,  0.336580
  0.550000,  0.277840
  0.552000,  0.221570
  0.554000,  0.174570
  0.556000,  0.138590
  0.558000,  0.094730
  0.560000,  0.051410
  0.562000, -0.000490
  0.564000, -0.051350
  0.566000, -0.101680
  0.568000, -0.141290
  0.570000, -0.193500
  0.572000, -0.229040
  0.574000, -0.271980
  0.576000, -0.311200
  0.578000, -0.359140
  0.580000, -0.407590
  0.582000, -0.457210
  0.584000, -0.503790
  0.586000, -0.541100
  0.588000, -0.573140
  0.590000, -0.593060
  0.592000, -0.595980
  0.594000, -0.594410
  0.596000, -0.593100
  0.598000, -0.588450
  0.600000, -0.585160
  0.602000, -0.586070
  0.604000, -0.600420
  0.606000, -0.625710
  0.608000, -0.660740
  0.610000, -0.705390
  0.612000, -0.747370
  0.614000, -0.790170
  0.616000, -0.826570
  0.618000, -0.855940
  0.620000, -0.872180
  0.622000, -0.884600
  0.624000, -0.883860
  0.626000, -0.867280
  0.628000, -0.846120
  0.630000, -0.815220
  0.632000, -0.777590
  0.634000, -0.742740
  0.636000, -0.708150
  0.638000, -0.682220
  0.640000, -0.659040
  0.642000, -0.649150
  0.644000, -0.641980
  0.646000, -0.643980
  0.648000, -0.642840
  0.650000, -0.643890
  0.652000, -0.642080
  0.654000, -0.637520
  0.656000, -0.634180
  0.658000, -0.620990
  0.660000, -0.602980
  0.662000, -0.586170
  0.664000, -0.566340
  0.666000, -0.545200
  0.668000, -0.517570
  0.670000, -0.505480
  0.672000, -0.489470
  0.674000, -0.477360
  0.676000, -0.464320
  0.678000, -0.453290
  0.680000, -0.443620
  0.682000, -0.441840
  0.684000, -0.441900
  0.686000, -0.444410
  0.688000, -0.452800
  0.690000, -0.469970
  0.692000, -0.487560
  0.694000, -0.512630
  0.696000, -0.533530
  0.698000, -0.555670
  0.700000, -0.583830
  0.702000, -0.609740
  0.704000, -0.636080
  0.706000, -0.658220
  0.708000, -0.678090
  0.710000, -0.693330
  0.712000, -0.706200
  0.714000, -0.717480
  0.716000, -0.717600
  0.718000, -0.717820
  0.720000, -0.707200
  0.722000, -0.695590
  0.724000, -0.679560
  0.726000, -0.655570
  0.728000, -0.630880
  0.730000, -0.611780
  0.732000, -0.598000
  0.734000, -0.594090
  0.736000, -0.611060
  0.738000, -0.646270
  0.740000, -0.694580
  0.742000, -0.754020
  0.744000, -0.813510
  0.746000, -0.862440
  0.748000, -0.894620
  0.750000, -0.910930
  0.752000, -0.904980
  0.754000, -0.877930
  0.756000, -0.840560
  0.758000, -0.795240
  0.760000, -0.748070
  0.762000, -0.702360
  0.764000, -0.670990
  0.766000, -0.656100
  0.768000, -0.656750
  0.770000, -0.677700
  0.772000, -0.700610
  0.774000, -0.723250
  0.776000, -0.747410
  0.778000, -0.773380
  0.780000, -0.798790
  0.782000, -0.817120
  0.784000, -0.822460
  0.786000, -0.813850
  0.788000, -0.802140
  0.790000, -0.797920
  0.792000, -0.785390
  0.794000, -0.769680
  0.796000, -0.749790
  0.798000, -0.735670
  0.800000, -0.720620
  0.802000, -0.706690
  0.804000, -0.691090
  0.806000, -0.681660
  0.808000, -0.667770
  0.810000, -0.650940
  0.812000, -0.629280
  0.814000, -0.598250
  0.816000, -0.567080
  0.818000, -0.533030
  0.820000, -0.496440
  0.822000, -0.457800
  0.824000, -0.422010
  0.826000, -0.393000
  0.828000, -0.364830
  0.830000, -0.343420
  0.832000, -0.332530
  0.834000, -0.325440
  0.836000, -0.320360
  0.838000, -0.314980
  0.840000, -0.316270
  0.842000, -0.311540
  0.844000, -0.302460
  0.846000, -0.290470
  0.848000, -0.276690
  0.850000, -0.262560
  0.852000, -0.236930
  0.854000, -0.212740
  0.856000, -0.182290
  0.858000, -0.150830
  0.860000, -0.113810
  0.862000, -0.079230
  0.864000, -0.047830
  0.866000, -0.018660
  0.868000,  0.013290
  0.870000,  0.028170
  0.872000,  0.054800
  0.874000,  0.068930
  0.876000,  0.066850
  0.878000,  0.057530
  0.880000,  0.047800
  0.882000,  0.027280
  0.884000,  0.008710
  0.886000, -0.008480
  0.888000, -0.022650
  0.890000, -0.033790
  0.892000, -0.034230
  0.894000, -0.026990
  0.896000, -0.010050
  0.898000,  0.012130
  0.900000,  0.039180
  0.902000,  0.076100
  0.904000,  0.103730
  0.906000,  0.136870
  0.908000,  0.160210
  0.910000,  0.177170
  0.912000,  0.192400
  0.914000,  0.192610
  0.916000,  0.189610
  0.918000,  0.173790
  0.920000,  0.155270
  0.922000,  0.139450
  0.924000,  0.122220
  0.926000,  0.113700
  0.928000,  0.105690
  0.930000,  0.110680
  0.932000,  0.108020
  0.934000,  0.110560
  0.936000,  0.103760
  0.938000,  0.091080
  0.940000,  0.079050
  0.942000,  0.059760
  0.944000,  0.032220
  0.946000, -0.000180
  0.948000, -0.021300
  0.950000, -0.039510
  0.952000, -0.050440
  0.954000, -0.058070
  0.956000, -0.060940
  0.958000, -0.058990
  0.960000, -0.052770
  0.962000, -0.047110
  0.964000, -0.041470
  0.966000, -0.038370
  0.968000, -0.036770
  0.970000, -0.039470
  0.972000, -0.046050
  0.974000, -0.059660
  0.976000, -0.081540
  0.978000, -0.094940
  0.980000, -0.118190
  0.982000, -0.138950
  0.984000, -0.160610
  0.986000, -0.178800
  0.988000, -0.187260
  0.990000, -0.198070
  0.992000, -0.200960
  0.994000, -0.196900
  0.996000, -0.189180
  0.998000, -0.177640
  1.000000, -0.159790
