# z (nm)   (kJ/mol)
  0.080000,274.448860
  0.082000,271.808580
  0.084000,270.999910
  0.086000,267.979710
  0.088000,264.849800
  0.090000,261.617320
  0.092000,258.671460
  0.094000,255.761020
  0.096000,252.841580
  0.098000,249.786150
  0.100000,246.702110
  0.102000,243.582720
  0.104000,240.370310
  0.106000,237.082410
  0.108000,233.704900
  0.110000,230.229920
  0.112000,226.663760
  0.114000,222.996340
  0.116000,219.239890
  0.118000,215.385790
  0.120000,211.433260
  0.122000,207.377430
  0.124000,203.221560
  0.126000,198.967820
  0.128000,194.634840
  0.130000,190.243940
  0.132000,185.830510
  0.134000,181.426360
  0.136000,177.061010
  0.138000,172.752180
  0.140000,168.497790
  0.142000,164.303170
  0.144000,160.166180
  0.146000,156.081370
  0.148000,152.061320
  0.150000,148.105720
  0.152000,144.231630
  0.154000,140.453280
  0.156000,136.769990
  0.158000,133.183320
  0.160000,129.686010
  0.162000,126.268050
  0.164000,122.920030
  0.166000,119.636100
  0.168000,116.402100
  0.170000,113.206350
  0.172000,110.044590
  0.174000,106.893110
  0.176000,103.740770
  0.178000,100.593670
  0.180000, 97.445940
  0.182000, 94.318630
  0.184000, 91.228180
  0.186000, 88.197360
  0.188000, 85.228550
  0.190000, 82.337520
  0.192000, 79.520990
  0.194000, 76.768870
  0.196000, 74.062450
  0.198000, 71.397240
  0.200000, 68.758740
  0.202000, 66.140250
  0.204000, 63.538700
  0.206000, 60.962000
  0.208000, 58.399290
  0.210000, 55.867570
  0.212000, 53.373530
  0.214000, 50.928510
  0.216000, 48.540890
  0.218000, 46.220340
  0.220000, 43.973120
  0.222000, 41.797890
  0.224000, 39.693280
  0.226000, 37.653880
  0.228000, 35.666520
  0.230000, 33.724220
  0.232000, 31.822290
  0.234000, 29.944880
  0.236000, 28.099910
  0.238000, 26.300530
  0.240000, 24.532410
  0.242000, 22.812260
  0.244000, 21.136110
  0.246000, 19.517860
  0.248000, 17.949090
  0.250000, 16.425840
  0.252000, 14.953200
  0.254000, 13.519610
  0.256000, 12.127010
  0.258000, 10.773820
  0.260000,  9.451240
  0.262000,  8.157620
  0.264000,  6.903590
  0.266000,  5.688160
  0.268000,  4.510480
  0.270000,  3.375130
  0.272000,  2.280980
  0.274000,  1.219380
  0.276000,  0.210960
  0.278000, -0.756780
  0.280000, -1.668590
  0.282000, -2.532450
  0.284000, -3.349350
  0.286000, -4.124010
  0.288000, -4.858480
  0.290000, -5.551660
  0.292000, -6.215560
  0.294000, -6.841450
  0.296000, -7.440080
  0.298000, -8.007490
  0.300000, -8.534930
  0.302000, -9.027210
  0.304000, -9.480690
  0.306000, -9.891890
  0.308000,-10.275300
  0.310000,-10.615320
  0.312000,-10.929830
  0.314000,-11.219530
  0.316000,-11.484350
  0.318000,-11.724370
  0.320000,-11.942930
  0.322000,-12.133910
  0.324000,-12.305850
  0.326000,-12.451750
  0.328000,-12.567810
  0.330000,-12.647720
  0.332000,-12.705500
  0.334000,-12.731660
  0.336000,-12.735910
  0.338000,-12.707540
  0.340000,-12.654460
  0.342000,-12.585720
  0.344000,-12.502150
  0.346000,-12.412030
  0.348000,-12.305550
  0.350000,-12.195460
  0.352000,-12.079150
  0.354000,-11.969780
  0.356000,-11.854910
  0.358000,-11.738820
  0.360000,-11.617050
  0.362000,-11.499020
  0.364000,-11.372610
  0.366000,-11.231950
  0.368000,-11.080810
  0.370000,-10.913930
  0.372000,-10.730940
  0.374000,-10.534610
  0.376000,-10.329180
  0.378000,-10.118670
  0.380000, -9.905900
  0.382000, -9.695120
  0.384000, -9.490760
  0.386000, -9.291020
  0.388000, -9.113200
  0.390000, -8.941790
  0.392000, -8.774780
  0.394000, -8.611210
  0.396000, -8.454300
  0.398000, -8.292410
  0.400000, -8.134070
  0.402000, -7.976370
  0.404000, -7.812960
  0.406000, -7.647480
  0.408000, -7.483020
  0.410000, -7.318640
  0.412000, -7.156310
  0.414000, -6.991290
  0.416000, -6.829440
  0.418000, -6.671480
  0.420000, -6.523250
  0.422000, -6.371190
  0.424000, -6.224790
  0.426000, -6.087520
  0.428000, -5.955830
  0.430000, -5.833160
  0.432000, -5.724010
  0.434000, -5.622780
  0.436000, -5.528260
  0.438000, -5.434410
  0.440000, -5.345220
  0.442000, -5.252830
  0.444000, -5.154660
  0.446000, -5.059410
  0.448000, -4.963420
  0.450000, -4.873520
  0.452000, -4.791640
  0.454000, -4.710710
  0.456000, -4.639870
  0.458000, -4.583420
  0.460000, -4.536660
  0.462000, -4.488370
  0.464000, -4.454350
  0.466000, -4.417000
  0.468000, -4.396060
  0.470000, -4.371810
  0.472000, -4.351240
  0.474000, -4.327370
  0.476000, -4.309980
  0.478000, -4.294930
  0.480000, -4.280410
  0.482000, -4.267040
  0.484000, -4.246700
  0.486000, -4.227020
  0.488000, -4.206210
  0.490000, -4.182960
  0.492000, -4.147890
  0.494000, -4.114380
  0.496000, -4.073100
  0.498000, -4.029480
  0.500000, -3.989760
  0.502000, -3.937020
  0.504000, -3.888180
  0.506000, -3.837040
  0.508000, -3.777240
  0.510000, -3.710420
  0.512000, -3.632390
  0.514000, -3.544060
  0.516000, -3.436090
  0.518000, -3.318430
  0.520000, -3.188880
  0.522000, -3.049860
  0.524000, -2.909030
  0.526000, -2.765030
  0.528000, -2.623630
  0.530000, -2.491570
  0.532000, -2.359690
  0.534000, -2.231800
  0.536000, -2.096970
  0.538000, -1.950130
  0.540000, -1.790530
  0.542000, -1.617730
  0.544000, -1.439100
  0.546000, -1.251890
  0.548000, -1.079410
  0.550000, -0.914870
  0.552000, -0.759240
  0.554000, -0.623170
  0.556000, -0.488590
  0.558000, -0.351970
  0.560000, -0.211370
  0.562000, -0.069130
  0.564000,  0.087800
  0.566000,  0.250000
  0.568000,  0.410670
  0.570000,  0.573350
  0.572000,  0.725670
  0.574000,  0.871720
  0.576000,  1.012160
  0.578000,  1.137810
  0.580000,  1.243420
  0.582000,  1.335960
  0.584000,  1.410480
  0.586000,  1.480330
  0.588000,  1.538850
  0.590000,  1.595390
  0.592000,  1.642860
  0.594000,  1.684780
  0.596000,  1.720180
  0.598000,  1.763620
  0.600000,  1.801390
  0.602000,  1.849980
  0.604000,  1.883190
  0.606000,  1.907810
  0.608000,  1.926680
  0.610000,  1.943290
  0.612000,  1.938120
  0.614000,  1.921420
  0.616000,  1.887970
  0.618000,  1.836110
  0.620000,  1.774550
  0.622000,  1.692790
  0.624000,  1.605300
  0.626000,  1.512940
  0.628000,  1.425950
  0.630000,  1.332510
  0.632000,  1.240950
  0.634000,  1.158850
  0.636000,  1.084650
  0.638000,  1.013190
  0.640000,  0.945690
  0.642000,  0.875420
  0.644000,  0.805110
  0.646000,  0.738460
  0.648000,  0.674850
  0.650000,  0.607760
  0.652000,  0.549630
  0.654000,  0.497380
  0.656000,  0.435880
  0.658000,  0.380470
  0.660000,  0.323450
  0.662000,  0.265060
  0.664000,  0.207610
  0.666000,  0.145180
  0.668000,  0.087310
  0.670000,  0.027780
  0.672000, -0.024160
  0.674000, -0.075620
  0.676000, -0.112270
  0.678000, -0.151040
  0.680000, -0.185270
  0.682000, -0.220710
  0.684000, -0.244310
  0.686000, -0.267760
  0.688000, -0.286320
  0.690000, -0.301420
  0.692000, -0.309220
  0.694000, -0.323270
  0.696000, -0.332180
  0.698000, -0.347160
  0.700000, -0.355410
  0.702000, -0.364330
  0.704000, -0.373970
  0.706000, -0.377400
  0.708000, -0.388490
  0.710000, -0.395880
  0.712000, -0.404460
  0.714000, -0.406370
  0.716000, -0.410830
  0.718000, -0.418350
  0.720000, -0.426910
  0.722000, -0.429670
  0.724000, -0.428640
  0.726000, -0.427480
  0.728000, -0.428840
  0.730000, -0.430090
  0.732000, -0.428560
  0.734000, -0.424980
  0.736000, -0.420450
  0.738000, -0.415060
  0.740000, -0.413200
  0.742000, -0.417850
  0.744000, -0.415500
  0.746000, -0.418770
  0.748000, -0.425040
  0.750000, -0.430250
  0.752000, -0.435110
  0.754000, -0.442590
  0.756000, -0.454730
  0.758000, -0.463370
  0.760000, -0.471920
  0.762000, -0.477200
  0.764000, -0.487680
  0.766000, -0.497740
  0.768000, -0.509480
  0.770000, -0.513600
  0.772000, -0.523340
  0.774000, -0.531870
  0.776000, -0.547860
  0.778000, -0.559200
  0.780000, -0.579140
  0.782000, -0.601030
  0.784000, -0.623660
  0.786000, -0.638000
  0.788000, -0.656940
  0.790000, -0.673180
  0.792000, -0.682550
  0.794000, -0.689470
  0.796000, -0.693810
  0.798000, -0.687480
  0.800000, -0.682500
  0.802000, -0.671290
  0.804000, -0.654690
  0.806000, -0.638010
  0.808000, -0.618340
  0.810000, -0.600320
  0.812000, -0.582580
  0.814000, -0.562730
  0.816000, -0.540410
  0.818000, -0.523650
  0.820000, -0.505000
  0.822000, -0.484870
  0.824000, -0.470710
  0.826000, -0.454190
  0.828000, -0.435860
  0.830000, -0.414000
  0.832000, -0.394710
  0.834000, -0.372190
  0.836000, -0.347610
  0.838000, -0.319260
  0.840000, -0.297370
  0.842000, -0.271310
  0.844000, -0.250290
  0.846000, -0.230900
  0.848000, -0.207450
  0.850000, -0.188350
  0.852000, -0.161680
  0.854000, -0.139090
  0.856000, -0.118250
  0.858000, -0.094520
  0.860000, -0.074660
  0.862000, -0.052650
  0.864000, -0.034490
  0.866000, -0.017110
  0.868000, -0.008800
  0.870000, -0.004510
  0.872000, -0.005660
  0.874000, -0.010120
  0.876000, -0.011800
  0.878000, -0.022160
  0.880000, -0.031190
  0.882000, -0.040280
  0.884000, -0.043080
  0.886000, -0.046760
  0.888000, -0.039020
  0.890000, -0.028230
  0.892000, -0.014460
  0.894000,  0.004960
  0.896000,  0.026860
  0.898000,  0.053130
  0.900000,  0.082110
  0.902000,  0.111000
  0.904000,  0.142190
  0.906000,  0.172010
  0.908000,  0.199470
  0.910000,  0.216220
  0.912000,  0.229970
  0.914000,  0.236710
  0.916000,  0.234390
  0.918000,  0.235130
  0.920000,  0.224260
  0.922000,  0.206670
  0.924000,  0.188660
  0.926000,  0.167390
  0.928000,  0.143530
  0.930000,  0.119860
  0.932000,  0.099780
  0.934000,  0.082830
  0.936000,  0.075190
  0.938000,  0.078210
  0.940000,  0.084900
  0.942000,  0.086740
  0.944000,  0.090750
  0.946000,  0.094250
  0.948000,  0.087250
  0.950000,  0.077300
  0.952000,  0.063900
  0.954000,  0.043920
  0.956000,  0.018150
  0.958000, -0.013660
  0.960000, -0.045660
  0.962000, -0.076300
  0.964000, -0.101580
  0.966000, -0.128950
  0.968000, -0.158830
  0.970000, -0.179660
  0.972000, -0.198390
  0.974000, -0.214220
  0.976000, -0.228690
  0.978000, -0.236610
  0.980000, -0.234190
  0.982000, -0.235670
  0.984000, -0.229630
  0.986000, -0.219310
  0.988000, -0.215330
  0.990000, -0.205850
  0.992000, -0.192440
  0.994000, -0.185570
  0.996000, -0.177030
  0.998000, -0.170410
  1.000000, -0.162630
