# z (nm)   (kJ/mol)
  0.088000,271.326160
  0.090000,266.753390
  0.092000,263.821600
  0.094000,260.998420
  0.096000,258.199090
  0.098000,255.284210
  0.100000,252.414880
  0.102000,249.538500
  0.104000,246.612490
  0.106000,243.635160
  0.108000,240.595140
  0.110000,237.487330
  0.112000,234.294090
  0.114000,231.008080
  0.116000,227.616610
  0.118000,224.119320
  0.120000,220.505770
  0.122000,216.767570
  0.124000,212.905250
  0.126000,208.926530
  0.128000,204.835770
  0.130000,200.646300
  0.132000,196.372970
  0.134000,192.035940
  0.136000,187.660840
  0.138000,183.267940
  0.140000,178.891310
  0.142000,174.548230
  0.144000,170.265740
  0.146000,166.062570
  0.148000,161.956910
  0.150000,157.963250
  0.152000,154.091620
  0.154000,150.338390
  0.156000,146.682790
  0.158000,143.096890
  0.160000,139.544330
  0.162000,136.015880
  0.164000,132.503830
  0.166000,129.022930
  0.168000,125.600220
  0.170000,122.246000
  0.172000,118.972930
  0.174000,115.758500
  0.176000,112.587270
  0.178000,109.433330
  0.180000,106.276940
  0.182000,103.125870
  0.184000, 99.982680
  0.186000, 96.861060
  0.188000, 93.787120
  0.190000, 90.761190
  0.192000, 87.793060
  0.194000, 84.882470
  0.196000, 82.025800
  0.198000, 79.211200
  0.200000, 76.431530
  0.202000, 73.682690
  0.204000, 70.963700
  0.206000, 68.271930
  0.208000, 65.614890
  0.210000, 62.993210
  0.212000, 60.413400
  0.214000, 57.892230
  0.216000, 55.432720
  0.218000, 53.033760
  0.220000, 50.698740
  0.222000, 48.413500
  0.224000, 46.175560
  0.226000, 43.970080
  0.228000, 41.791150
  0.230000, 39.637660
  0.232000, 37.506960
  0.234000, 35.410290
  0.236000, 33.353270
  0.238000, 31.350830
  0.240000, 29.407230
  0.242000, 27.527740
  0.244000, 25.712940
  0.246000, 23.955910
  0.248000, 22.244850
  0.250000, 20.558040
  0.252000, 18.908760
  0.254000, 17.284920
  0.256000, 15.691790
  0.258000, 14.131860
  0.260000, 12.615000
  0.262000, 11.145220
  0.264000,  9.727650
  0.266000,  8.365880
  0.268000,  7.062300
  0.270000,  5.804670
  0.272000,  4.604450
  0.274000,  3.439680
  0.276000,  2.321210
  0.278000,  1.237770
  0.280000,  0.197920
  0.282000, -0.806030
  0.284000, -1.780070
  0.286000, -2.715650
  0.288000, -3.608890
  0.290000, -4.461180
  0.292000, -5.267470
  0.294000, -6.034020
  0.296000, -6.752640
  0.298000, -7.439010
  0.300000, -8.085490
  0.302000, -8.686380
  0.304000, -9.249670
  0.306000, -9.775160
  0.308000,-10.269870
  0.310000,-10.729650
  0.312000,-11.159110
  0.314000,-11.559420
  0.316000,-11.931520
  0.318000,-12.280410
  0.320000,-12.595010
  0.322000,-12.877050
  0.324000,-13.122410
  0.326000,-13.325070
  0.328000,-13.482700
  0.330000,-13.609400
  0.332000,-13.704130
  0.334000,-13.776950
  0.336000,-13.838680
  0.338000,-13.900710
  0.340000,-13.952290
  0.342000,-14.008730
  0.344000,-14.053780
  0.346000,-14.083840
  0.348000,-14.090170
  0.350000,-14.067540
  0.352000,-14.007880
  0.354000,-13.909360
  0.356000,-13.782900
  0.358000,-13.633460
  0.360000,-13.469420
  0.362000,-13.301080
  0.364000,-13.145130
  0.366000,-12.990550
  0.368000,-12.836040
  0.370000,-12.684590
  0.372000,-12.535630
  0.374000,-12.383660
  0.376000,-12.224560
  0.378000,-12.054570
  0.380000,-11.879830
  0.382000,-11.692300
  0.384000,-11.507960
  0.386000,-11.323740
  0.388000,-11.145190
  0.390000,-10.963770
  0.392000,-10.785660
  0.394000,-10.613120
  0.396000,-10.433350
  0.398000,-10.258590
  0.400000,-10.078550
  0.402000, -9.909190
  0.404000, -9.733110
  0.406000, -9.559140
  0.408000, -9.387910
  0.410000, -9.221550
  0.412000, -9.059230
  0.414000, -8.907620
  0.416000, -8.761890
  0.418000, -8.622830
  0.420000, -8.501150
  0.422000, -8.383670
  0.424000, -8.273020
  0.426000, -8.164750
  0.428000, -8.057930
  0.430000, -7.953590
  0.432000, -7.844510
  0.434000, -7.734900
  0.436000, -7.614580
  0.438000, -7.494240
  0.440000, -7.367120
  0.442000, -7.244360
  0.444000, -7.124590
  0.446000, -7.009540
  0.448000, -6.912260
  0.450000, -6.819730
  0.452000, -6.753870
  0.454000, -6.700490
  0.456000, -6.637010
  0.458000, -6.576710
  0.460000, -6.505000
  0.462000, -6.433270
  0.464000, -6.347600
  0.466000, -6.259360
  0.468000, -6.172490
  0.470000, -6.082030
  0.472000, -6.000500
  0.474000, -5.918840
  0.476000, -5.839540
  0.478000, -5.755950
  0.480000, -5.672970
  0.482000, -5.585290
  0.484000, -5.484420
  0.486000, -5.384110
  0.488000, -5.270950
  0.490000, -5.149630
  0.492000, -5.018070
  0.494000, -4.882750
  0.496000, -4.736740
  0.498000, -4.585340
  0.500000, -4.435520
  0.502000, -4.323660
  0.504000, -4.235870
  0.506000, -4.195950
  0.508000, -4.201600
  0.510000, -4.243880
  0.512000, -4.292580
  0.514000, -4.310980
  0.516000, -4.267600
  0.518000, -4.143640
  0.520000, -3.944130
  0.522000, -3.683020
  0.524000, -3.404980
  0.526000, -3.137670
  0.528000, -2.903510
  0.530000, -2.738890
  0.532000, -2.635600
  0.534000, -2.581710
  0.536000, -2.558380
  0.538000, -2.547880
  0.540000, -2.529730
  0.542000, -2.487800
  0.544000, -2.417740
  0.546000, -2.315060
  0.548000, -2.176620
  0.550000, -2.024410
  0.552000, -1.850460
  0.554000, -1.664450
  0.556000, -1.481700
  0.558000, -1.300190
  0.560000, -1.129740
  0.562000, -0.965610
  0.564000, -0.808470
  0.566000, -0.671340
  0.568000, -0.548580
  0.570000, -0.432020
  0.572000, -0.329310
  0.574000, -0.237590
  0.576000, -0.147420
  0.578000, -0.061540
  0.580000,  0.026470
  0.582000,  0.114530
  0.584000,  0.206960
  0.586000,  0.298200
  0.588000,  0.384680
  0.590000,  0.466040
  0.592000,  0.540320
  0.594000,  0.605230
  0.596000,  0.656590
  0.598000,  0.697090
  0.600000,  0.730160
  0.602000,  0.751670
  0.604000,  0.769810
  0.606000,  0.776050
  0.608000,  0.784230
  0.610000,  0.786020
  0.612000,  0.775260
  0.614000,  0.758800
  0.616000,  0.719190
  0.618000,  0.667650
  0.620000,  0.607760
  0.622000,  0.538470
  0.624000,  0.457790
  0.626000,  0.382050
  0.628000,  0.323870
  0.630000,  0.264520
  0.632000,  0.220740
  0.634000,  0.193810
  0.636000,  0.161710
  0.638000,  0.137870
  0.640000,  0.100790
  0.642000,  0.064210
  0.644000,  0.020820
  0.646000, -0.025870
  0.648000, -0.083890
  0.650000, -0.142530
  0.652000, -0.202100
  0.654000, -0.267090
  0.656000, -0.322840
  0.658000, -0.383450
  0.660000, -0.437470
  0.662000, -0.488320
  0.664000, -0.540130
  0.666000, -0.584120
  0.668000, -0.625230
  0.670000, -0.661290
  0.672000, -0.691320
  0.674000, -0.716200
  0.676000, -0.738600
  0.678000, -0.758080
  0.680000, -0.775310
  0.682000, -0.782440
  0.684000, -0.796120
  0.686000, -0.809350
  0.688000, -0.812780
  0.690000, -0.823150
  0.692000, -0.829570
  0.694000, -0.833760
  0.696000, -0.840260
  0.698000, -0.844900
  0.700000, -0.852690
  0.702000, -0.862460
  0.704000, -0.866420
  0.706000, -0.868430
  0.708000, -0.869570
  0.710000, -0.867340
  0.712000, -0.859370
  0.714000, -0.849640
  0.716000, -0.833170
  0.718000, -0.814680
  0.720000, -0.794020
  0.722000, -0.770950
  0.724000, -0.746310
  0.726000, -0.736010
  0.728000, -0.720360
  0.730000, -0.709930
  0.732000, -0.703540
  0.734000, -0.700990
  0.736000, -0.701390
  0.738000, -0.708860
  0.740000, -0.709300
  0.742000, -0.710790
  0.744000, -0.710090
  0.746000, -0.704170
  0.748000, -0.690310
  0.750000, -0.674280
  0.752000, -0.657020
  0.754000, -0.637840
  0.756000, -0.617590
  0.758000, -0.600840
  0.760000, -0.580000
  0.762000, -0.563120
  0.764000, -0.549640
  0.766000, -0.541750
  0.768000, -0.529940
  0.770000, -0.514890
  0.772000, -0.504630
  0.774000, -0.490600
  0.776000, -0.475550
  0.778000, -0.456010
  0.780000, -0.444780
  0.782000, -0.430220
  0.784000, -0.418150
  0.786000, -0.417130
  0.788000, -0.419800
  0.790000, -0.426970
  0.792000, -0.433810
  0.794000, -0.436180
  0.796000, -0.438380
  0.798000, -0.427470
  0.800000, -0.406270
  0.802000, -0.374290
  0.804000, -0.344400
  0.806000, -0.310690
  0.808000, -0.286110
  0.810000, -0.272100
  0.812000, -0.266970
  0.814000, -0.269880
  0.816000, -0.284820
  0.818000, -0.307600
  0.820000, -0.322730
  0.822000, -0.331270
  0.824000, -0.337610
  0.826000, -0.329460
  0.828000, -0.312160
  0.830000, -0.286680
  0.832000, -0.256790
  0.834000, -0.222090
  0.836000, -0.184660
  0.838000, -0.145990
  0.840000, -0.108360
  0.842000, -0.076070
  0.844000, -0.051900
  0.846000, -0.035920
  0.848000, -0.019770
  0.850000, -0.004440
  0.852000,  0.002240
  0.854000,  0.014800
  0.856000,  0.020600
  0.858000,  0.025190
  0.860000,  0.023510
  0.862000,  0.015210
  0.864000,  0.014820
  0.866000,  0.013200
  0.868000,  0.010690
  0.870000,  0.009390
  0.872000,  0.009780
  0.874000,  0.011440
  0.876000,  0.013840
  0.878000,  0.023800
  0.880000,  0.035160
  0.882000,  0.054680
  0.884000,  0.068570
  0.886000,  0.089310
  0.888000,  0.106210
  0.890000,  0.127810
  0.892000,  0.138440
  0.894000,  0.151080
  0.896000,  0.161400
  0.898000,  0.175980
  0.900000,  0.183210
  0.902000,  0.191080
  0.904000,  0.194740
  0.906000,  0.190910
  0.908000,  0.181410
  0.910000,  0.164640
  0.912000,  0.150680
  0.914000,  0.129230
  0.916000,  0.109160
  0.918000,  0.084010
  0.920000,  0.064030
  0.922000,  0.048450
  0.924000,  0.039120
  0.926000,  0.034080
  0.928000,  0.033040
  0.930000,  0.035790
  0.932000,  0.039910
  0.934000,  0.044240
  0.936000,  0.048340
  0.938000,  0.039650
  0.940000,  0.027570
  0.942000,  0.011870
  0.944000, -0.013090
  0.946000, -0.032690
  0.948000, -0.061640
  0.950000, -0.088460
  0.952000, -0.108170
  0.954000, -0.122100
  0.956000, -0.126580
  0.958000, -0.122340
  0.960000, -0.113000
  0.962000, -0.099360
  0.964000, -0.089110
  0.966000, -0.074590
  0.968000, -0.057920
  0.970000, -0.046740
  0.972000, -0.039340
  0.974000, -0.029110
  0.976000, -0.023890
  0.978000, -0.020620
  0.980000, -0.019890
  0.982000, -0.018110
  0.984000, -0.018940
  0.986000, -0.026140
  0.988000, -0.032790
  0.990000, -0.045510
  0.992000, -0.056750
  0.994000, -0.067350
  0.996000, -0.083100
  0.998000, -0.102290
  1.000000, -0.122330
