# z (nm)   (kJ/mol)
  0.090000,272.290720
  0.092000,269.247590
  0.094000,266.675710
  0.096000,263.758160
  0.098000,260.956860
  0.100000,258.128000
  0.102000,255.398520
  0.104000,252.547580
  0.106000,249.674330
  0.108000,246.725270
  0.110000,243.706130
  0.112000,240.594110
  0.114000,237.385910
  0.116000,234.073560
  0.118000,230.646940
  0.120000,227.099080
  0.122000,223.430320
  0.124000,219.637410
  0.126000,215.720530
  0.128000,211.695420
  0.130000,207.574260
  0.132000,203.364980
  0.134000,199.081080
  0.136000,194.744950
  0.138000,190.374610
  0.140000,185.998900
  0.142000,181.650770
  0.144000,177.358780
  0.146000,173.147650
  0.148000,169.037130
  0.150000,165.048120
  0.152000,161.173900
  0.154000,157.402440
  0.156000,153.714060
  0.158000,150.100830
  0.160000,146.555190
  0.162000,143.072080
  0.164000,139.646010
  0.166000,136.270290
  0.168000,132.942050
  0.170000,129.643640
  0.172000,126.368390
  0.174000,123.104990
  0.176000,119.853060
  0.178000,116.611770
  0.180000,113.386870
  0.182000,110.173240
  0.184000,106.983640
  0.186000,103.813290
  0.188000,100.683730
  0.190000, 97.597770
  0.192000, 94.566110
  0.194000, 91.589690
  0.196000, 88.668160
  0.198000, 85.802360
  0.200000, 82.973490
  0.202000, 80.171950
  0.204000, 77.408920
  0.206000, 74.670580
  0.208000, 71.963700
  0.210000, 69.290790
  0.212000, 66.657910
  0.214000, 64.064580
  0.216000, 61.520950
  0.218000, 59.022570
  0.220000, 56.565180
  0.222000, 54.156640
  0.224000, 51.791250
  0.226000, 49.467780
  0.228000, 47.188240
  0.230000, 44.951030
  0.232000, 42.756310
  0.234000, 40.615730
  0.236000, 38.523800
  0.238000, 36.489760
  0.240000, 34.516410
  0.242000, 32.602490
  0.244000, 30.747240
  0.246000, 28.957140
  0.248000, 27.224110
  0.250000, 25.540510
  0.252000, 23.899020
  0.254000, 22.287070
  0.256000, 20.701850
  0.258000, 19.124450
  0.260000, 17.549180
  0.262000, 15.976840
  0.264000, 14.414210
  0.266000, 12.880480
  0.268000, 11.400780
  0.270000, 10.003750
  0.272000,  8.712110
  0.274000,  7.545290
  0.276000,  6.478480
  0.278000,  5.488810
  0.280000,  4.535790
  0.282000,  3.581400
  0.284000,  2.611110
  0.286000,  1.625440
  0.288000,  0.622130
  0.290000, -0.386030
  0.292000, -1.362290
  0.294000, -2.291770
  0.296000, -3.146330
  0.298000, -3.924100
  0.300000, -4.620400
  0.302000, -5.242100
  0.304000, -5.801130
  0.306000, -6.318780
  0.308000, -6.803040
  0.310000, -7.259180
  0.312000, -7.706230
  0.314000, -8.150460
  0.316000, -8.577690
  0.318000, -8.976530
  0.320000, -9.347330
  0.322000, -9.687460
  0.324000,-10.004100
  0.326000,-10.295680
  0.328000,-10.563190
  0.330000,-10.821960
  0.332000,-11.083410
  0.334000,-11.336330
  0.336000,-11.570570
  0.338000,-11.770590
  0.340000,-11.931040
  0.342000,-12.034930
  0.344000,-12.078790
  0.346000,-12.078580
  0.348000,-12.030330
  0.350000,-11.972040
  0.352000,-11.921740
  0.354000,-11.888720
  0.356000,-11.863590
  0.358000,-11.862560
  0.360000,-11.872770
  0.362000,-11.893190
  0.364000,-11.926130
  0.366000,-11.960660
  0.368000,-11.987550
  0.370000,-11.990650
  0.372000,-11.948090
  0.374000,-11.852260
  0.376000,-11.708440
  0.378000,-11.528330
  0.380000,-11.304900
  0.382000,-11.077320
  0.384000,-10.859360
  0.386000,-10.667970
  0.388000,-10.511040
  0.390000,-10.388630
  0.392000,-10.291010
  0.394000,-10.205290
  0.396000,-10.117140
  0.398000,-10.028490
  0.400000, -9.929500
  0.402000, -9.817520
  0.404000, -9.692700
  0.406000, -9.554620
  0.408000, -9.412930
  0.410000, -9.258860
  0.412000, -9.111390
  0.414000, -8.966720
  0.416000, -8.815890
  0.418000, -8.681680
  0.420000, -8.556110
  0.422000, -8.434440
  0.424000, -8.320770
  0.426000, -8.211120
  0.428000, -8.111580
  0.430000, -8.017850
  0.432000, -7.928820
  0.434000, -7.845140
  0.436000, -7.765040
  0.438000, -7.689780
  0.440000, -7.617720
  0.442000, -7.541740
  0.444000, -7.457890
  0.446000, -7.379810
  0.448000, -7.301130
  0.450000, -7.219940
  0.452000, -7.132700
  0.454000, -7.043340
  0.456000, -6.956660
  0.458000, -6.866790
  0.460000, -6.773520
  0.462000, -6.665220
  0.464000, -6.552810
  0.466000, -6.431290
  0.468000, -6.306760
  0.470000, -6.184310
  0.472000, -6.064270
  0.474000, -5.951470
  0.476000, -5.854710
  0.478000, -5.769930
  0.480000, -5.694970
  0.482000, -5.628080
  0.484000, -5.563720
  0.486000, -5.498480
  0.488000, -5.426080
  0.490000, -5.345260
  0.492000, -5.251720
  0.494000, -5.146580
  0.496000, -5.023220
  0.498000, -4.900990
  0.500000, -4.769120
  0.502000, -4.639840
  0.504000, -4.512770
  0.506000, -4.392990
  0.508000, -4.285750
  0.510000, -4.196910
  0.512000, -4.113860
  0.514000, -4.043490
  0.516000, -3.980350
  0.518000, -3.918640
  0.520000, -3.850270
  0.522000, -3.770770
  0.524000, -3.684290
  0.526000, -3.590890
  0.528000, -3.476180
  0.530000, -3.345970
  0.532000, -3.211140
  0.534000, -3.059220
  0.536000, -2.903100
  0.538000, -2.742930
  0.540000, -2.583110
  0.542000, -2.424940
  0.544000, -2.268910
  0.546000, -2.115800
  0.548000, -1.963850
  0.550000, -1.814880
  0.552000, -1.666370
  0.554000, -1.519160
  0.556000, -1.365090
  0.558000, -1.202740
  0.560000, -1.040230
  0.562000, -0.876720
  0.564000, -0.710620
  0.566000, -0.545640
  0.568000, -0.388020
  0.570000, -0.243260
  0.572000, -0.110920
  0.574000,  0.007530
  0.576000,  0.112350
  0.578000,  0.201110
  0.580000,  0.289950
  0.582000,  0.371270
  0.584000,  0.460800
  0.586000,  0.553510
  0.588000,  0.654330
  0.590000,  0.759020
  0.592000,  0.855590
  0.594000,  0.947390
  0.596000,  1.039300
  0.598000,  1.101500
  0.600000,  1.149710
  0.602000,  1.176710
  0.604000,  1.185890
  0.606000,  1.180480
  0.608000,  1.162230
  0.610000,  1.139370
  0.612000,  1.114870
  0.614000,  1.080220
  0.616000,  1.045890
  0.618000,  1.008030
  0.620000,  0.968710
  0.622000,  0.928690
  0.624000,  0.882630
  0.626000,  0.838630
  0.628000,  0.799120
  0.630000,  0.752590
  0.632000,  0.708000
  0.634000,  0.663960
  0.636000,  0.619070
  0.638000,  0.565730
  0.640000,  0.505740
  0.642000,  0.446290
  0.644000,  0.371590
  0.646000,  0.287370
  0.648000,  0.195860
  0.650000,  0.105330
  0.652000,  0.015050
  0.654000, -0.070900
  0.656000, -0.156280
  0.658000, -0.237180
  0.660000, -0.308250
  0.662000, -0.373730
  0.664000, -0.424410
  0.666000, -0.467670
  0.668000, -0.503600
  0.670000, -0.534600
  0.672000, -0.563320
  0.674000, -0.593660
  0.676000, -0.618200
  0.678000, -0.641200
  0.680000, -0.682500
  0.682000, -0.725870
  0.684000, -0.770440
  0.686000, -0.821300
  0.688000, -0.871410
  0.690000, -0.923050
  0.692000, -0.969600
  0.694000, -1.009550
  0.696000, -1.045760
  0.698000, -1.072130
  0.700000, -1.091840
  0.702000, -1.102190
  0.704000, -1.101800
  0.706000, -1.104540
  0.708000, -1.102510
  0.710000, -1.100110
  0.712000, -1.107350
  0.714000, -1.118520
  0.716000, -1.127950
  0.718000, -1.139710
  0.720000, -1.153700
  0.722000, -1.167470
  0.724000, -1.177610
  0.726000, -1.185150
  0.728000, -1.191660
  0.730000, -1.198600
  0.732000, -1.207380
  0.734000, -1.207720
  0.736000, -1.219150
  0.738000, -1.217840
  0.740000, -1.214010
  0.742000, -1.201180
  0.744000, -1.182620
  0.746000, -1.162400
  0.748000, -1.134020
  0.750000, -1.096840
  0.752000, -1.056270
  0.754000, -1.019900
  0.756000, -0.985640
  0.758000, -0.959190
  0.760000, -0.933460
  0.762000, -0.918150
  0.764000, -0.908450
  0.766000, -0.904930
  0.768000, -0.909370
  0.770000, -0.905030
  0.772000, -0.897560
  0.774000, -0.888150
  0.776000, -0.866690
  0.778000, -0.844410
  0.780000, -0.817510
  0.782000, -0.785050
  0.784000, -0.748500
  0.786000, -0.702690
  0.788000, -0.660770
  0.790000, -0.623640
  0.792000, -0.593310
  0.794000, -0.570810
  0.796000, -0.550360
  0.798000, -0.533580
  0.800000, -0.520320
  0.802000, -0.509120
  0.804000, -0.499250
  0.806000, -0.495450
  0.808000, -0.486990
  0.810000, -0.475900
  0.812000, -0.459270
  0.814000, -0.432100
  0.816000, -0.401460
  0.818000, -0.368100
  0.820000, -0.328190
  0.822000, -0.284790
  0.824000, -0.243800
  0.826000, -0.200690
  0.828000, -0.151040
  0.830000, -0.107300
  0.832000, -0.067310
  0.834000, -0.031940
  0.836000, -0.001990
  0.838000,  0.017050
  0.840000,  0.031910
  0.842000,  0.037850
  0.844000,  0.035620
  0.846000,  0.026820
  0.848000,  0.022140
  0.850000,  0.017950
  0.852000,  0.023720
  0.854000,  0.032000
  0.856000,  0.048980
  0.858000,  0.071400
  0.860000,  0.095960
  0.862000,  0.125630
  0.864000,  0.158270
  0.866000,  0.194470
  0.868000,  0.230930
  0.870000,  0.265440
  0.872000,  0.289940
  0.874000,  0.313130
  0.876000,  0.329250
  0.878000,  0.339190
  0.880000,  0.338450
  0.882000,  0.332110
  0.884000,  0.315300
  0.886000,  0.301110
  0.888000,  0.275870
  0.890000,  0.243800
  0.892000,  0.219890
  0.894000,  0.192160
  0.896000,  0.164990
  0.898000,  0.147230
  0.900000,  0.143800
  0.902000,  0.144160
  0.904000,  0.156180
  0.906000,  0.177800
  0.908000,  0.205000
  0.910000,  0.233330
  0.912000,  0.257520
  0.914000,  0.284340
  0.916000,  0.300290
  0.918000,  0.307960
  0.920000,  0.309150
  0.922000,  0.296000
  0.924000,  0.277310
  0.926000,  0.249700
  0.928000,  0.220730
  0.930000,  0.192280
  0.932000,  0.167820
  0.934000,  0.142690
  0.936000,  0.123700
  0.938000,  0.107880
  0.940000,  0.097310
  0.942000,  0.093070
  0.944000,  0.085970
  0.946000,  0.077960
  0.948000,  0.068000
  0.950000,  0.050510
  0.952000,  0.034450
  0.954000,  0.004180
  0.956000, -0.023000
  0.958000, -0.054770
  0.960000, -0.089680
  0.962000, -0.120340
  0.964000, -0.147080
  0.966000, -0.176000
  0.968000, -0.201120
  0.970000, -0.217590
  0.972000, -0.228520
  0.974000, -0.232670
  0.976000, -0.225920
  0.978000, -0.226400
  0.980000, -0.226200
  0.982000, -0.225570
  0.984000, -0.226200
  0.986000, -0.227000
  0.988000, -0.229870
  0.990000, -0.241800
  0.992000, -0.252790
  0.994000, -0.262890
  0.996000, -0.269350
  0.998000, -0.275380
  1.000000, -0.285130
