# z (nm)   (kJ/mol)
  0.104000,266.949500
  0.106000,262.537840
  0.108000,259.832120
  0.110000,256.978140
  0.112000,254.229420
  0.114000,251.443030
  0.116000,248.648660
  0.118000,245.842800
  0.120000,243.018250
  0.122000,240.138060
  0.124000,237.214430
  0.126000,234.230250
  0.128000,231.170760
  0.130000,228.025590
  0.132000,224.781070
  0.134000,221.423030
  0.136000,217.929090
  0.138000,214.295890
  0.140000,210.509460
  0.142000,206.574810
  0.144000,202.496520
  0.146000,198.304910
  0.148000,194.020160
  0.150000,189.688220
  0.152000,185.358520
  0.154000,181.066860
  0.156000,176.848060
  0.158000,172.727500
  0.160000,168.712750
  0.162000,164.801630
  0.164000,160.983980
  0.166000,157.242670
  0.168000,153.562720
  0.170000,149.936790
  0.172000,146.365060
  0.174000,142.856150
  0.176000,139.417770
  0.178000,136.068090
  0.180000,132.793250
  0.182000,129.603730
  0.184000,126.485110
  0.186000,123.412430
  0.188000,120.370820
  0.190000,117.336360
  0.192000,114.303990
  0.194000,111.270930
  0.196000,108.253050
  0.198000,105.266420
  0.200000,102.332810
  0.202000, 99.460700
  0.204000, 96.652680
  0.206000, 93.909430
  0.208000, 91.218780
  0.210000, 88.564760
  0.212000, 85.936010
  0.214000, 83.331570
  0.216000, 80.752480
  0.218000, 78.206120
  0.220000, 75.695870
  0.222000, 73.232410
  0.224000, 70.816890
  0.226000, 68.449930
  0.228000, 66.126180
  0.230000, 63.848360
  0.232000, 61.614540
  0.234000, 59.422660
  0.236000, 57.273540
  0.238000, 55.164880
  0.240000, 53.104970
  0.242000, 51.098330
  0.244000, 49.148210
  0.246000, 47.261350
  0.248000, 45.427700
  0.250000, 43.645480
  0.252000, 41.913060
  0.254000, 40.221600
  0.256000, 38.563070
  0.258000, 36.925030
  0.260000, 35.317880
  0.262000, 33.743020
  0.264000, 32.191820
  0.266000, 30.671970
  0.268000, 29.195890
  0.270000, 27.764070
  0.272000, 26.378060
  0.274000, 25.046740
  0.276000, 23.767260
  0.278000, 22.531360
  0.280000, 21.342670
  0.282000, 20.183410
  0.284000, 19.062330
  0.286000, 17.974140
  0.288000, 16.906920
  0.290000, 15.874980
  0.292000, 14.875850
  0.294000, 13.909830
  0.296000, 12.979780
  0.298000, 12.086010
  0.300000, 11.230700
  0.302000, 10.404680
  0.304000,  9.600160
  0.306000,  8.810560
  0.308000,  8.043620
  0.310000,  7.290640
  0.312000,  6.559060
  0.314000,  5.851170
  0.316000,  5.176610
  0.318000,  4.530100
  0.320000,  3.917480
  0.322000,  3.338230
  0.324000,  2.786980
  0.326000,  2.259010
  0.328000,  1.752220
  0.330000,  1.264320
  0.332000,  0.786310
  0.334000,  0.319600
  0.336000, -0.134200
  0.338000, -0.578850
  0.340000, -1.008340
  0.342000, -1.427910
  0.344000, -1.816380
  0.346000, -2.189910
  0.348000, -2.535980
  0.350000, -2.856180
  0.352000, -3.157590
  0.354000, -3.430850
  0.356000, -3.678560
  0.358000, -3.900830
  0.360000, -4.096380
  0.362000, -4.260880
  0.364000, -4.411890
  0.366000, -4.549120
  0.368000, -4.680450
  0.370000, -4.821150
  0.372000, -4.963960
  0.374000, -5.111780
  0.376000, -5.260390
  0.378000, -5.401240
  0.380000, -5.522200
  0.382000, -5.627630
  0.384000, -5.721730
  0.386000, -5.801610
  0.388000, -5.880210
  0.390000, -5.957030
  0.392000, -6.054900
  0.394000, -6.165500
  0.396000, -6.290540
  0.398000, -6.419510
  0.400000, -6.553280
  0.402000, -6.676540
  0.404000, -6.787120
  0.406000, -6.879060
  0.408000, -6.968990
  0.410000, -7.042270
  0.412000, -7.118140
  0.414000, -7.209230
  0.416000, -7.315030
  0.418000, -7.435630
  0.420000, -7.560810
  0.422000, -7.686730
  0.424000, -7.795260
  0.426000, -7.873050
  0.428000, -7.893960
  0.430000, -7.869570
  0.432000, -7.788120
  0.434000, -7.675480
  0.436000, -7.569830
  0.438000, -7.521830
  0.440000, -7.566560
  0.442000, -7.716960
  0.444000, -7.942520
  0.446000, -8.158050
  0.448000, -8.258870
  0.450000, -8.198400
  0.452000, -7.979920
  0.454000, -7.681310
  0.456000, -7.387980
  0.458000, -7.174210
  0.460000, -7.063430
  0.462000, -7.044560
  0.464000, -7.063490
  0.466000, -7.089210
  0.468000, -7.080240
  0.470000, -7.028770
  0.472000, -6.930990
  0.474000, -6.814810
  0.476000, -6.679750
  0.478000, -6.543110
  0.480000, -6.421350
  0.482000, -6.311240
  0.484000, -6.217200
  0.486000, -6.128380
  0.488000, -6.044870
  0.490000, -5.951490
  0.492000, -5.843220
  0.494000, -5.711400
  0.496000, -5.558440
  0.498000, -5.399030
  0.500000, -5.233650
  0.502000, -5.074910
  0.504000, -4.919540
  0.506000, -4.787200
  0.508000, -4.672790
  0.510000, -4.577730
  0.512000, -4.489200
  0.514000, -4.411830
  0.516000, -4.325700
  0.518000, -4.235890
  0.520000, -4.124480
  0.522000, -4.006100
  0.524000, -3.876650
  0.526000, -3.727660
  0.528000, -3.564800
  0.530000, -3.401060
  0.532000, -3.230460
  0.534000, -3.067520
  0.536000, -2.906140
  0.538000, -2.769550
  0.540000, -2.639210
  0.542000, -2.510110
  0.544000, -2.389640
  0.546000, -2.274970
  0.548000, -2.155970
  0.550000, -2.034190
  0.552000, -1.899630
  0.554000, -1.745670
  0.556000, -1.587150
  0.558000, -1.433480
  0.560000, -1.282830
  0.562000, -1.136770
  0.564000, -1.001340
  0.566000, -0.879370
  0.568000, -0.766300
  0.570000, -0.660380
  0.572000, -0.567600
  0.574000, -0.477400
  0.576000, -0.390570
  0.578000, -0.310630
  0.580000, -0.243810
  0.582000, -0.189120
  0.584000, -0.150940
  0.586000, -0.130770
  0.588000, -0.124400
  0.590000, -0.116210
  0.592000, -0.114590
  0.594000, -0.110120
  0.596000, -0.103010
  0.598000, -0.100980
  0.600000, -0.101210
  0.602000, -0.110890
  0.604000, -0.137690
  0.606000, -0.175930
  0.608000, -0.226150
  0.610000, -0.281250
  0.612000, -0.338000
  0.614000, -0.393260
  0.616000, -0.443990
  0.618000, -0.488810
  0.620000, -0.532540
  0.622000, -0.578090
  0.624000, -0.630020
  0.626000, -0.697680
  0.628000, -0.769020
  0.630000, -0.848050
  0.632000, -0.932100
  0.634000, -1.020700
  0.636000, -1.105570
  0.638000, -1.174180
  0.640000, -1.232120
  0.642000, -1.275710
  0.644000, -1.300860
  0.646000, -1.326220
  0.648000, -1.339350
  0.650000, -1.345960
  0.652000, -1.350130
  0.654000, -1.357260
  0.656000, -1.377530
  0.658000, -1.407270
  0.660000, -1.450990
  0.662000, -1.498200
  0.664000, -1.541780
  0.666000, -1.579430
  0.668000, -1.597460
  0.670000, -1.608470
  0.672000, -1.606110
  0.674000, -1.586250
  0.676000, -1.557220
  0.678000, -1.526500
  0.680000, -1.498830
  0.682000, -1.474940
  0.684000, -1.458320
  0.686000, -1.456060
  0.688000, -1.459320
  0.690000, -1.465670
  0.692000, -1.463830
  0.694000, -1.459050
  0.696000, -1.461680
  0.698000, -1.453640
  0.700000, -1.445560
  0.702000, -1.434780
  0.704000, -1.418880
  0.706000, -1.405000
  0.708000, -1.386610
  0.710000, -1.375920
  0.712000, -1.368500
  0.714000, -1.356720
  0.716000, -1.350210
  0.718000, -1.346870
  0.720000, -1.338490
  0.722000, -1.333030
  0.724000, -1.321150
  0.726000, -1.305400
  0.728000, -1.291280
  0.730000, -1.269590
  0.732000, -1.249720
  0.734000, -1.224270
  0.736000, -1.195530
  0.738000, -1.158390
  0.740000, -1.128470
  0.742000, -1.099310
  0.744000, -1.072470
  0.746000, -1.054550
  0.748000, -1.044730
  0.750000, -1.039000
  0.752000, -1.039970
  0.754000, -1.042660
  0.756000, -1.048670
  0.758000, -1.058550
  0.760000, -1.072110
  0.762000, -1.080820
  0.764000, -1.088310
  0.766000, -1.085730
  0.768000, -1.076640
  0.770000, -1.066750
  0.772000, -1.034830
  0.774000, -1.007680
  0.776000, -0.979450
  0.778000, -0.947000
  0.780000, -0.923220
  0.782000, -0.899980
  0.784000, -0.888830
  0.786000, -0.882550
  0.788000, -0.888580
  0.790000, -0.900280
  0.792000, -0.910760
  0.794000, -0.928200
  0.796000, -0.946560
  0.798000, -0.961270
  0.800000, -0.967870
  0.802000, -0.956870
  0.804000, -0.929860
  0.806000, -0.887880
  0.808000, -0.837500
  0.810000, -0.783040
  0.812000, -0.722930
  0.814000, -0.665010
  0.816000, -0.608280
  0.818000, -0.558520
  0.820000, -0.522700
  0.822000, -0.502740
  0.824000, -0.495850
  0.826000, -0.515000
  0.828000, -0.556160
  0.830000, -0.617720
  0.832000, -0.702620
  0.834000, -0.783480
  0.836000, -0.844920
  0.838000, -0.875840
  0.840000, -0.860120
  0.842000, -0.802530
  0.844000, -0.712260
  0.846000, -0.599500
  0.848000, -0.489190
  0.850000, -0.398910
  0.852000, -0.343950
  0.854000, -0.323510
  0.856000, -0.336200
  0.858000, -0.380780
  0.860000, -0.440630
  0.862000, -0.501310
  0.864000, -0.552710
  0.866000, -0.590210
  0.868000, -0.608530
  0.870000, -0.612010
  0.872000, -0.593870
  0.874000, -0.572820
  0.876000, -0.539640
  0.878000, -0.503090
  0.880000, -0.458290
  0.882000, -0.415880
  0.884000, -0.371870
  0.886000, -0.318940
  0.888000, -0.267110
  0.890000, -0.217740
  0.892000, -0.168260
  0.894000, -0.129280
  0.896000, -0.096250
  0.898000, -0.080260
  0.900000, -0.083160
  0.902000, -0.108560
  0.904000, -0.145940
  0.906000, -0.193540
  0.908000, -0.241060
  0.910000, -0.284770
  0.912000, -0.306260
  0.914000, -0.303420
  0.916000, -0.280050
  0.918000, -0.236000
  0.920000, -0.180750
  0.922000, -0.119570
  0.924000, -0.065280
  0.926000, -0.018560
  0.928000,  0.020950
  0.930000,  0.038480
  0.932000,  0.043780
  0.934000,  0.039350
  0.936000,  0.027620
  0.938000,  0.016790
  0.940000,  0.011300
  0.942000,  0.005130
  0.944000,  0.007240
  0.946000,  0.016820
  0.948000,  0.028400
  0.950000,  0.035940
  0.952000,  0.042410
  0.954000,  0.047120
  0.956000,  0.048800
  0.958000,  0.057460
  0.960000,  0.061180
  0.962000,  0.064260
  0.964000,  0.068400
  0.966000,  0.076950
  0.968000,  0.084430
  0.970000,  0.096160
  0.972000,  0.109140
  0.974000,  0.122060
  0.976000,  0.133610
  0.978000,  0.143360
  0.980000,  0.148830
  0.982000,  0.144150
  0.984000,  0.141330
  0.986000,  0.132470
  0.988000,  0.121570
  0.990000,  0.102790
  0.992000,  0.082740
  0.994000,  0.067180
  0.996000,  0.045590
  0.998000,  0.029660
  1.000000,  0.020300
