# z (nm)   (kJ/mol)
  0.082000,270.791770
  0.084000,266.136080
  0.086000,263.549240
  0.088000,260.963180
  0.090000,258.321910
  0.092000,255.697350
  0.094000,253.056650
  0.096000,250.374130
  0.098000,247.665490
  0.100000,244.908570
  0.102000,242.078610
  0.104000,239.183620
  0.106000,236.200920
  0.108000,233.123180
  0.110000,229.949550
  0.112000,226.662140
  0.114000,223.256980
  0.116000,219.730230
  0.118000,216.082520
  0.120000,212.312240
  0.122000,208.428700
  0.124000,204.437800
  0.126000,200.346560
  0.128000,196.172230
  0.130000,191.928190
  0.132000,187.627610
  0.134000,183.285070
  0.136000,178.923910
  0.138000,174.568600
  0.140000,170.254670
  0.142000,166.013300
  0.144000,161.876540
  0.146000,157.871140
  0.148000,153.990910
  0.150000,150.215230
  0.152000,146.508680
  0.154000,142.857550
  0.156000,139.236140
  0.158000,135.625160
  0.160000,132.021960
  0.162000,128.438320
  0.164000,124.882730
  0.166000,121.361130
  0.168000,117.898450
  0.170000,114.503720
  0.172000,111.180110
  0.174000,107.926050
  0.176000,104.733400
  0.178000,101.586190
  0.180000, 98.473080
  0.182000, 95.378030
  0.184000, 92.313260
  0.186000, 89.275840
  0.188000, 86.275400
  0.190000, 83.307380
  0.192000, 80.372650
  0.194000, 77.467990
  0.196000, 74.587580
  0.198000, 71.726270
  0.200000, 68.889600
  0.202000, 66.072850
  0.204000, 63.297450
  0.206000, 60.576100
  0.208000, 57.920850
  0.210000, 55.338890
  0.212000, 52.834600
  0.214000, 50.404910
  0.216000, 48.048380
  0.218000, 45.764230
  0.220000, 43.542310
  0.222000, 41.372040
  0.224000, 39.250820
  0.226000, 37.168580
  0.228000, 35.122660
  0.230000, 33.096820
  0.232000, 31.085030
  0.234000, 29.074820
  0.236000, 27.083280
  0.238000, 25.126660
  0.240000, 23.223430
  0.242000, 21.380500
  0.244000, 19.617640
  0.246000, 17.931790
  0.248000, 16.308920
  0.250000, 14.741760
  0.252000, 13.206000
  0.254000, 11.703580
  0.256000, 10.226980
  0.258000,  8.769880
  0.260000,  7.340450
  0.262000,  5.953510
  0.264000,  4.620540
  0.266000,  3.343580
  0.268000,  2.121700
  0.270000,  0.949130
  0.272000, -0.170610
  0.274000, -1.241730
  0.276000, -2.277270
  0.278000, -3.280500
  0.280000, -4.254520
  0.282000, -5.197150
  0.284000, -6.099980
  0.286000, -6.949410
  0.288000, -7.752440
  0.290000, -8.506870
  0.292000, -9.205320
  0.294000, -9.856260
  0.296000,-10.463120
  0.298000,-11.035770
  0.300000,-11.588750
  0.302000,-12.117860
  0.304000,-12.624400
  0.306000,-13.109710
  0.308000,-13.567660
  0.310000,-13.982850
  0.312000,-14.354280
  0.314000,-14.666260
  0.316000,-14.925140
  0.318000,-15.140200
  0.320000,-15.307150
  0.322000,-15.433610
  0.324000,-15.535760
  0.326000,-15.620080
  0.328000,-15.675100
  0.330000,-15.716430
  0.332000,-15.744690
  0.334000,-15.756330
  0.336000,-15.749340
  0.338000,-15.728230
  0.340000,-15.701970
  0.342000,-15.663240
  0.344000,-15.603590
  0.346000,-15.522410
  0.348000,-15.418740
  0.350000,-15.280620
  0.352000,-15.115490
  0.354000,-14.918940
  0.356000,-14.684830
  0.358000,-14.431540
  0.360000,-14.160040
  0.362000,-13.889310
  0.364000,-13.620220
  0.366000,-13.357340
  0.368000,-13.111360
  0.370000,-12.881970
  0.372000,-12.667500
  0.374000,-12.458730
  0.376000,-12.259000
  0.378000,-12.057260
  0.380000,-11.850400
  0.382000,-11.631660
  0.384000,-11.399400
  0.386000,-11.153790
  0.388000,-10.900640
  0.390000,-10.651960
  0.392000,-10.406710
  0.394000,-10.173450
  0.396000, -9.953770
  0.398000, -9.752110
  0.400000, -9.563560
  0.402000, -9.395620
  0.404000, -9.240800
  0.406000, -9.100820
  0.408000, -8.970360
  0.410000, -8.832940
  0.412000, -8.705970
  0.414000, -8.564480
  0.416000, -8.431130
  0.418000, -8.293130
  0.420000, -8.160990
  0.422000, -8.041420
  0.424000, -7.939000
  0.426000, -7.854420
  0.428000, -7.788520
  0.430000, -7.735080
  0.432000, -7.686740
  0.434000, -7.641900
  0.436000, -7.590620
  0.438000, -7.526060
  0.440000, -7.444180
  0.442000, -7.347690
  0.444000, -7.246380
  0.446000, -7.132230
  0.448000, -7.021550
  0.450000, -6.916250
  0.452000, -6.821130
  0.454000, -6.731570
  0.456000, -6.652590
  0.458000, -6.575190
  0.460000, -6.489390
  0.462000, -6.398270
  0.464000, -6.298090
  0.466000, -6.178100
  0.468000, -6.046340
  0.470000, -5.909140
  0.472000, -5.766910
  0.474000, -5.622800
  0.476000, -5.484190
  0.478000, -5.364610
  0.480000, -5.256580
  0.482000, -5.158910
  0.484000, -5.070270
  0.486000, -4.996230
  0.488000, -4.919500
  0.490000, -4.850730
  0.492000, -4.782880
  0.494000, -4.714340
  0.496000, -4.636360
  0.498000, -4.548030
  0.500000, -4.459080
  0.502000, -4.364370
  0.504000, -4.267040
  0.506000, -4.168210
  0.508000, -4.069550
  0.510000, -3.978210
  0.512000, -3.888640
  0.514000, -3.806290
  0.516000, -3.732900
  0.518000, -3.662930
  0.520000, -3.600360
  0.522000, -3.539560
  0.524000, -3.473500
  0.526000, -3.417490
  0.528000, -3.364810
  0.530000, -3.318550
  0.532000, -3.262870
  0.534000, -3.205980
  0.536000, -3.144300
  0.538000, -3.083070
  0.540000, -3.007190
  0.542000, -2.935730
  0.544000, -2.856340
  0.546000, -2.767380
  0.548000, -2.664930
  0.550000, -2.554880
  0.552000, -2.430470
  0.554000, -2.300480
  0.556000, -2.163030
  0.558000, -2.018140
  0.560000, -1.879030
  0.562000, -1.730650
  0.564000, -1.584100
  0.566000, -1.435800
  0.568000, -1.288320
  0.570000, -1.137810
  0.572000, -0.990920
  0.574000, -0.842330
  0.576000, -0.694420
  0.578000, -0.545080
  0.580000, -0.390070
  0.582000, -0.241170
  0.584000, -0.096270
  0.586000,  0.046610
  0.588000,  0.189160
  0.590000,  0.323650
  0.592000,  0.447240
  0.594000,  0.564000
  0.596000,  0.663840
  0.598000,  0.756240
  0.600000,  0.835190
  0.602000,  0.909140
  0.604000,  0.972450
  0.606000,  1.023450
  0.608000,  1.055240
  0.610000,  1.079030
  0.612000,  1.085610
  0.614000,  1.077610
  0.616000,  1.056810
  0.618000,  1.029890
  0.620000,  0.987910
  0.622000,  0.949570
  0.624000,  0.912080
  0.626000,  0.881270
  0.628000,  0.855640
  0.630000,  0.839140
  0.632000,  0.819770
  0.634000,  0.802680
  0.636000,  0.776280
  0.638000,  0.745970
  0.640000,  0.695890
  0.642000,  0.634880
  0.644000,  0.568770
  0.646000,  0.488780
  0.648000,  0.405390
  0.650000,  0.324080
  0.652000,  0.251930
  0.654000,  0.192730
  0.656000,  0.142580
  0.658000,  0.104010
  0.660000,  0.069660
  0.662000,  0.042410
  0.664000,  0.012270
  0.666000, -0.008050
  0.668000, -0.029790
  0.670000, -0.051900
  0.672000, -0.083820
  0.674000, -0.124690
  0.676000, -0.171130
  0.678000, -0.234190
  0.680000, -0.297150
  0.682000, -0.362980
  0.684000, -0.431470
  0.686000, -0.493060
  0.688000, -0.548860
  0.690000, -0.601120
  0.692000, -0.637630
  0.694000, -0.667730
  0.696000, -0.688650
  0.698000, -0.699260
  0.700000, -0.698460
  0.702000, -0.698850
  0.704000, -0.701190
  0.706000, -0.700850
  0.708000, -0.704420
  0.710000, -0.713020
  0.712000, -0.735880
  0.714000, -0.757060
  0.716000, -0.794250
  0.718000, -0.832170
  0.720000, -0.873040
  0.722000, -0.909290
  0.724000, -0.939200
  0.726000, -0.960090
  0.728000, -0.968500
  0.730000, -0.968490
  0.732000, -0.951660
  0.734000, -0.928620
  0.736000, -0.887820
  0.738000, -0.846200
  0.740000, -0.807280
  0.742000, -0.767250
  0.744000, -0.735870
  0.746000, -0.715190
  0.748000, -0.710010
  0.750000, -0.711150
  0.752000, -0.722510
  0.754000, -0.739330
  0.756000, -0.754000
  0.758000, -0.769280
  0.760000, -0.784010
  0.762000, -0.782120
  0.764000, -0.776530
  0.766000, -0.763620
  0.768000, -0.748240
  0.770000, -0.732990
  0.772000, -0.715810
  0.774000, -0.698770
  0.776000, -0.682860
  0.778000, -0.674840
  0.780000, -0.668540
  0.782000, -0.665030
  0.784000, -0.664570
  0.786000, -0.665080
  0.788000, -0.655960
  0.790000, -0.656120
  0.792000, -0.647310
  0.794000, -0.640940
  0.796000, -0.629120
  0.798000, -0.614160
  0.800000, -0.600540
  0.802000, -0.592710
  0.804000, -0.581710
  0.806000, -0.566820
  0.808000, -0.558300
  0.810000, -0.545320
  0.812000, -0.530710
  0.814000, -0.516410
  0.816000, -0.496450
  0.818000, -0.478470
  0.820000, -0.454150
  0.822000, -0.434910
  0.824000, -0.417930
  0.826000, -0.393030
  0.828000, -0.374560
  0.830000, -0.353780
  0.832000, -0.336100
  0.834000, -0.316140
  0.836000, -0.293800
  0.838000, -0.265770
  0.840000, -0.233470
  0.842000, -0.205810
  0.844000, -0.172190
  0.846000, -0.142430
  0.848000, -0.113900
  0.850000, -0.094640
  0.852000, -0.087720
  0.854000, -0.077760
  0.856000, -0.083310
  0.858000, -0.093090
  0.860000, -0.105180
  0.862000, -0.116600
  0.864000, -0.124550
  0.866000, -0.122380
  0.868000, -0.112170
  0.870000, -0.089500
  0.872000, -0.052270
  0.874000, -0.020270
  0.876000,  0.013430
  0.878000,  0.046100
  0.880000,  0.083480
  0.882000,  0.115080
  0.884000,  0.142000
  0.886000,  0.168720
  0.888000,  0.183430
  0.890000,  0.203450
  0.892000,  0.212240
  0.894000,  0.220110
  0.896000,  0.229340
  0.898000,  0.235040
  0.900000,  0.235870
  0.902000,  0.233040
  0.904000,  0.229150
  0.906000,  0.226840
  0.908000,  0.217940
  0.910000,  0.204490
  0.912000,  0.198510
  0.914000,  0.188570
  0.916000,  0.176290
  0.918000,  0.160080
  0.920000,  0.147170
  0.922000,  0.131470
  0.924000,  0.118440
  0.926000,  0.096230
  0.928000,  0.075130
  0.930000,  0.056880
  0.932000,  0.031870
  0.934000,  0.012880
  0.936000, -0.005250
  0.938000, -0.025960
  0.940000, -0.041070
  0.942000, -0.044750
  0.944000, -0.044220
  0.946000, -0.047440
  0.948000, -0.033900
  0.950000, -0.021800
  0.952000, -0.011140
  0.954000,  0.004580
  0.956000,  0.017620
  0.958000,  0.027950
  0.960000,  0.037770
  0.962000,  0.051460
  0.964000,  0.057250
  0.966000,  0.058510
  0.968000,  0.053610
  0.970000,  0.037050
  0.972000,  0.011400
  0.974000, -0.026630
  0.976000, -0.070170
  0.978000, -0.117360
  0.980000, -0.165730
  0.982000, -0.205030
  0.984000, -0.231990
  0.986000, -0.244860
  0.988000, -0.246730
  0.990000, -0.240160
  0.992000, -0.232020
  0.994000, -0.217470
  0.996000, -0.206010
  0.998000, -0.194270
  1.000000, -0.188250
