# z (nm)   (kJ/mol)
  0.122000,277.312680
  0.124000,274.099040
  0.126000,271.146190
  0.128000,268.272500
  0.130000,265.445380
  0.132000,262.666890
  0.134000,259.875420
  0.136000,257.039980
  0.138000,254.169820
  0.140000,251.249600
  0.142000,248.280970
  0.144000,245.246390
  0.146000,242.113260
  0.148000,238.887850
  0.150000,235.540270
  0.152000,232.049090
  0.154000,228.411220
  0.156000,224.622020
  0.158000,220.687340
  0.160000,216.641350
  0.162000,212.520830
  0.164000,208.363630
  0.166000,204.209770
  0.168000,200.095320
  0.170000,196.037920
  0.172000,192.049840
  0.174000,188.126420
  0.176000,184.257210
  0.178000,180.416540
  0.180000,176.587560
  0.182000,172.745620
  0.184000,168.883960
  0.186000,165.013380
  0.188000,161.149860
  0.190000,157.329540
  0.192000,153.581810
  0.194000,149.923560
  0.196000,146.377050
  0.198000,142.925450
  0.200000,139.547790
  0.202000,136.223670
  0.204000,132.932290
  0.206000,129.664380
  0.208000,126.416020
  0.210000,123.197410
  0.212000,120.013300
  0.214000,116.866650
  0.216000,113.753370
  0.218000,110.670970
  0.220000,107.614250
  0.222000,104.570090
  0.224000,101.541270
  0.226000, 98.534150
  0.228000, 95.554010
  0.230000, 92.606940
  0.232000, 89.723520
  0.234000, 86.912810
  0.236000, 84.178970
  0.238000, 81.524770
  0.240000, 78.941480
  0.242000, 76.402640
  0.244000, 73.913950
  0.246000, 71.452660
  0.248000, 69.012260
  0.250000, 66.590650
  0.252000, 64.187640
  0.254000, 61.808610
  0.256000, 59.457440
  0.258000, 57.142550
  0.260000, 54.867470
  0.262000, 52.642660
  0.264000, 50.473070
  0.266000, 48.357100
  0.268000, 46.288150
  0.270000, 44.280200
  0.272000, 42.321310
  0.274000, 40.410840
  0.276000, 38.546110
  0.278000, 36.725540
  0.280000, 34.937130
  0.282000, 33.185670
  0.284000, 31.461230
  0.286000, 29.764650
  0.288000, 28.097920
  0.290000, 26.451960
  0.292000, 24.835670
  0.294000, 23.258840
  0.296000, 21.710850
  0.298000, 20.216200
  0.300000, 18.770850
  0.302000, 17.378410
  0.304000, 16.041230
  0.306000, 14.745280
  0.308000, 13.492130
  0.310000, 12.281590
  0.312000, 11.104190
  0.314000,  9.944430
  0.316000,  8.806250
  0.318000,  7.692240
  0.320000,  6.600250
  0.322000,  5.531560
  0.324000,  4.489220
  0.326000,  3.479700
  0.328000,  2.512710
  0.330000,  1.595830
  0.332000,  0.734470
  0.334000, -0.074840
  0.336000, -0.821390
  0.338000, -1.509960
  0.340000, -2.146570
  0.342000, -2.745040
  0.344000, -3.310900
  0.346000, -3.856180
  0.348000, -4.383800
  0.350000, -4.916390
  0.352000, -5.441600
  0.354000, -5.944600
  0.356000, -6.430830
  0.358000, -6.893640
  0.360000, -7.322920
  0.362000, -7.721870
  0.364000, -8.071780
  0.366000, -8.385060
  0.368000, -8.658860
  0.370000, -8.898370
  0.372000, -9.101200
  0.374000, -9.277060
  0.376000, -9.436150
  0.378000, -9.568530
  0.380000, -9.683830
  0.382000, -9.800720
  0.384000, -9.914110
  0.386000,-10.015170
  0.388000,-10.111540
  0.390000,-10.199600
  0.392000,-10.284170
  0.394000,-10.361240
  0.396000,-10.416880
  0.398000,-10.453540
  0.400000,-10.469980
  0.402000,-10.461420
  0.404000,-10.430950
  0.406000,-10.368220
  0.408000,-10.306300
  0.410000,-10.233550
  0.412000,-10.159160
  0.414000,-10.091450
  0.416000,-10.030330
  0.418000, -9.970400
  0.420000, -9.912710
  0.422000, -9.850730
  0.424000, -9.778550
  0.426000, -9.690370
  0.428000, -9.581170
  0.430000, -9.467460
  0.432000, -9.341630
  0.434000, -9.201450
  0.436000, -9.058260
  0.438000, -8.915650
  0.440000, -8.771820
  0.442000, -8.635880
  0.444000, -8.501390
  0.446000, -8.384110
  0.448000, -8.266710
  0.450000, -8.150010
  0.452000, -8.030540
  0.454000, -7.917350
  0.456000, -7.803250
  0.458000, -7.679920
  0.460000, -7.550410
  0.462000, -7.412650
  0.464000, -7.266310
  0.466000, -7.115590
  0.468000, -6.958430
  0.470000, -6.795980
  0.472000, -6.623140
  0.474000, -6.454750
  0.476000, -6.287740
  0.478000, -6.112890
  0.480000, -5.940980
  0.482000, -5.774440
  0.484000, -5.607080
  0.486000, -5.434080
  0.488000, -5.261260
  0.490000, -5.083470
  0.492000, -4.906570
  0.494000, -4.714620
  0.496000, -4.516890
  0.498000, -4.316020
  0.500000, -4.108290
  0.502000, -3.891390
  0.504000, -3.674820
  0.506000, -3.453870
  0.508000, -3.225720
  0.510000, -3.005900
  0.512000, -2.795510
  0.514000, -2.579660
  0.516000, -2.378100
  0.518000, -2.174280
  0.520000, -1.979660
  0.522000, -1.789040
  0.524000, -1.602270
  0.526000, -1.426990
  0.528000, -1.245030
  0.530000, -1.066470
  0.532000, -0.894650
  0.534000, -0.719610
  0.536000, -0.542280
  0.538000, -0.366120
  0.540000, -0.190900
  0.542000, -0.017510
  0.544000,  0.152790
  0.546000,  0.322780
  0.548000,  0.487910
  0.550000,  0.646120
  0.552000,  0.803040
  0.554000,  0.951920
  0.556000,  1.098180
  0.558000,  1.235540
  0.560000,  1.375310
  0.562000,  1.509310
  0.564000,  1.640450
  0.566000,  1.767730
  0.568000,  1.892270
  0.570000,  2.014190
  0.572000,  2.135670
  0.574000,  2.254110
  0.576000,  2.371370
  0.578000,  2.483180
  0.580000,  2.592630
  0.582000,  2.696180
  0.584000,  2.796910
  0.586000,  2.895260
  0.588000,  2.988060
  0.590000,  3.072590
  0.592000,  3.147160
  0.594000,  3.210740
  0.596000,  3.262540
  0.598000,  3.304060
  0.600000,  3.342320
  0.602000,  3.371650
  0.604000,  3.395590
  0.606000,  3.417760
  0.608000,  3.435490
  0.610000,  3.452740
  0.612000,  3.456610
  0.614000,  3.466510
  0.616000,  3.475990
  0.618000,  3.492170
  0.620000,  3.508960
  0.622000,  3.523920
  0.624000,  3.533790
  0.626000,  3.532640
  0.628000,  3.522410
  0.630000,  3.501830
  0.632000,  3.467980
  0.634000,  3.419380
  0.636000,  3.347610
  0.638000,  3.269470
  0.640000,  3.176940
  0.642000,  3.076540
  0.644000,  2.964920
  0.646000,  2.852550
  0.648000,  2.733870
  0.650000,  2.609070
  0.652000,  2.478640
  0.654000,  2.358800
  0.656000,  2.238460
  0.658000,  2.120860
  0.660000,  2.009780
  0.662000,  1.908290
  0.664000,  1.807900
  0.666000,  1.713070
  0.668000,  1.616420
  0.670000,  1.521250
  0.672000,  1.417430
  0.674000,  1.313900
  0.676000,  1.207180
  0.678000,  1.090500
  0.680000,  0.969090
  0.682000,  0.843770
  0.684000,  0.721960
  0.686000,  0.600530
  0.688000,  0.485260
  0.690000,  0.377650
  0.692000,  0.271910
  0.694000,  0.175130
  0.696000,  0.080320
  0.698000,  0.001160
  0.700000, -0.083010
  0.702000, -0.156820
  0.704000, -0.230470
  0.706000, -0.295830
  0.708000, -0.356590
  0.710000, -0.414080
  0.712000, -0.464200
  0.714000, -0.508610
  0.716000, -0.553050
  0.718000, -0.592150
  0.720000, -0.631590
  0.722000, -0.671010
  0.724000, -0.709850
  0.726000, -0.752210
  0.728000, -0.797180
  0.730000, -0.840950
  0.732000, -0.882290
  0.734000, -0.925450
  0.736000, -0.962720
  0.738000, -1.001210
  0.740000, -1.033630
  0.742000, -1.062200
  0.744000, -1.085910
  0.746000, -1.100570
  0.748000, -1.107130
  0.750000, -1.108970
  0.752000, -1.109640
  0.754000, -1.108010
  0.756000, -1.111990
  0.758000, -1.113830
  0.760000, -1.116380
  0.762000, -1.129590
  0.764000, -1.151610
  0.766000, -1.170220
  0.768000, -1.191000
  0.770000, -1.210070
  0.772000, -1.223960
  0.774000, -1.232050
  0.776000, -1.233990
  0.778000, -1.226560
  0.780000, -1.219540
  0.782000, -1.204950
  0.784000, -1.187500
  0.786000, -1.164580
  0.788000, -1.135810
  0.790000, -1.103610
  0.792000, -1.067290
  0.794000, -1.027500
  0.796000, -0.981950
  0.798000, -0.943860
  0.800000, -0.902960
  0.802000, -0.860570
  0.804000, -0.825420
  0.806000, -0.789590
  0.808000, -0.760300
  0.810000, -0.731050
  0.812000, -0.700830
  0.814000, -0.676580
  0.816000, -0.662990
  0.818000, -0.642830
  0.820000, -0.617420
  0.822000, -0.584870
  0.824000, -0.558350
  0.826000, -0.529900
  0.828000, -0.506990
  0.830000, -0.471990
  0.832000, -0.437330
  0.834000, -0.399920
  0.836000, -0.356450
  0.838000, -0.309440
  0.840000, -0.257490
  0.842000, -0.203260
  0.844000, -0.155850
  0.846000, -0.108370
  0.848000, -0.060730
  0.850000, -0.020740
  0.852000,  0.014130
  0.854000,  0.042910
  0.856000,  0.068030
  0.858000,  0.088000
  0.860000,  0.101520
  0.862000,  0.108080
  0.864000,  0.114940
  0.866000,  0.119110
  0.868000,  0.124060
  0.870000,  0.125420
  0.872000,  0.129880
  0.874000,  0.142690
  0.876000,  0.150850
  0.878000,  0.167800
  0.880000,  0.182980
  0.882000,  0.210950
  0.884000,  0.235860
  0.886000,  0.254360
  0.888000,  0.275840
  0.890000,  0.297130
  0.892000,  0.310230
  0.894000,  0.325080
  0.896000,  0.338660
  0.898000,  0.346100
  0.900000,  0.357080
  0.902000,  0.359120
  0.904000,  0.359870
  0.906000,  0.354200
  0.908000,  0.341410
  0.910000,  0.332640
  0.912000,  0.321180
  0.914000,  0.304920
  0.916000,  0.291820
  0.918000,  0.282180
  0.920000,  0.271780
  0.922000,  0.268410
  0.924000,  0.268290
  0.926000,  0.272060
  0.928000,  0.273770
  0.930000,  0.274440
  0.932000,  0.271070
  0.934000,  0.266970
  0.936000,  0.249470
  0.938000,  0.219440
  0.940000,  0.180490
  0.942000,  0.140750
  0.944000,  0.102810
  0.946000,  0.069520
  0.948000,  0.039360
  0.950000,  0.015580
  0.952000,  0.000860
  0.954000,  0.000370
  0.956000, -0.001290
  0.958000, -0.000620
  0.960000, -0.002900
  0.962000, -0.010060
  0.964000, -0.021570
  0.966000, -0.042970
  0.968000, -0.067840
  0.970000, -0.101290
  0.972000, -0.139080
  0.974000, -0.183990
  0.976000, -0.231390
  0.978000, -0.270840
  0.980000, -0.314460
  0.982000, -0.353320
  0.984000, -0.393590
  0.986000, -0.426440
  0.988000, -0.454680
  0.990000, -0.478450
  0.992000, -0.498990
  0.994000, -0.515660
  0.996000, -0.530500
  0.998000, -0.543600
  1.000000, -0.549260
