# z (nm)   (kJ/mol)
  0.134000,267.295830
  0.136000,260.781350
  0.138000,257.557770
  0.140000,254.565100
  0.142000,251.669190
  0.144000,248.723280
  0.146000,245.736940
  0.148000,242.700540
  0.150000,239.592710
  0.152000,236.374610
  0.154000,233.062960
  0.156000,229.646090
  0.158000,226.126840
  0.160000,222.509930
  0.162000,218.798850
  0.164000,214.994810
  0.166000,211.112920
  0.168000,207.153150
  0.170000,203.129700
  0.172000,199.048250
  0.174000,194.912290
  0.176000,190.738130
  0.178000,186.539840
  0.180000,182.326790
  0.182000,178.120720
  0.184000,173.940020
  0.186000,169.798850
  0.188000,165.712080
  0.190000,161.689690
  0.192000,157.747050
  0.194000,153.903780
  0.196000,150.176050
  0.198000,146.581830
  0.200000,143.130970
  0.202000,139.824740
  0.204000,136.641850
  0.206000,133.548360
  0.208000,130.514790
  0.210000,127.504750
  0.212000,124.487650
  0.214000,121.457290
  0.216000,118.405560
  0.218000,115.328560
  0.220000,112.250540
  0.222000,109.184020
  0.224000,106.157560
  0.226000,103.209490
  0.228000,100.351950
  0.230000, 97.593330
  0.232000, 94.919490
  0.234000, 92.312430
  0.236000, 89.750200
  0.238000, 87.209000
  0.240000, 84.666270
  0.242000, 82.119130
  0.244000, 79.569760
  0.246000, 77.040190
  0.248000, 74.561430
  0.250000, 72.179650
  0.252000, 69.914890
  0.254000, 67.775360
  0.256000, 65.727300
  0.258000, 63.707740
  0.260000, 61.680070
  0.262000, 59.624200
  0.264000, 57.560230
  0.266000, 55.523250
  0.268000, 53.545820
  0.270000, 51.647370
  0.272000, 49.847390
  0.274000, 48.149880
  0.276000, 46.543890
  0.278000, 45.009740
  0.280000, 43.502300
  0.282000, 42.000070
  0.284000, 40.458460
  0.286000, 38.881830
  0.288000, 37.318850
  0.290000, 35.821620
  0.292000, 34.426850
  0.294000, 33.112270
  0.296000, 31.841750
  0.298000, 30.576850
  0.300000, 29.318800
  0.302000, 28.069430
  0.304000, 26.846830
  0.306000, 25.662050
  0.308000, 24.515560
  0.310000, 23.384640
  0.312000, 22.287800
  0.314000, 21.195830
  0.316000, 20.096000
  0.318000, 18.995240
  0.320000, 17.891200
  0.322000, 16.793180
  0.324000, 15.719420
  0.326000, 14.682320
  0.328000, 13.685850
  0.330000, 12.723760
  0.332000, 11.817390
  0.334000, 10.942620
  0.336000, 10.100180
  0.338000,  9.282010
  0.340000,  8.488220
  0.342000,  7.709610
  0.344000,  6.949970
  0.346000,  6.181570
  0.348000,  5.417700
  0.350000,  4.661210
  0.352000,  3.914900
  0.354000,  3.194630
  0.356000,  2.511770
  0.358000,  1.854510
  0.360000,  1.227760
  0.362000,  0.624790
  0.364000,  0.038720
  0.366000, -0.528070
  0.368000, -1.074680
  0.370000, -1.614460
  0.372000, -2.139910
  0.374000, -2.658450
  0.376000, -3.168320
  0.378000, -3.657060
  0.380000, -4.098880
  0.382000, -4.473450
  0.384000, -4.799440
  0.386000, -5.090230
  0.388000, -5.369980
  0.390000, -5.659770
  0.392000, -5.959320
  0.394000, -6.242130
  0.396000, -6.488620
  0.398000, -6.672190
  0.400000, -6.795960
  0.402000, -6.873320
  0.404000, -6.925520
  0.406000, -6.984740
  0.408000, -7.064120
  0.410000, -7.147230
  0.412000, -7.239140
  0.414000, -7.313550
  0.416000, -7.361560
  0.418000, -7.370870
  0.420000, -7.354470
  0.422000, -7.308410
  0.424000, -7.259900
  0.426000, -7.209350
  0.428000, -7.169330
  0.430000, -7.146570
  0.432000, -7.142350
  0.434000, -7.150550
  0.436000, -7.162690
  0.438000, -7.192280
  0.440000, -7.228070
  0.442000, -7.267010
  0.444000, -7.292550
  0.446000, -7.318470
  0.448000, -7.324160
  0.450000, -7.321050
  0.452000, -7.304400
  0.454000, -7.286620
  0.456000, -7.258870
  0.458000, -7.233530
  0.460000, -7.208180
  0.462000, -7.183920
  0.464000, -7.163990
  0.466000, -7.144230
  0.468000, -7.119720
  0.470000, -7.065480
  0.472000, -6.986610
  0.474000, -6.897990
  0.476000, -6.812770
  0.478000, -6.733780
  0.480000, -6.669020
  0.482000, -6.627840
  0.484000, -6.603650
  0.486000, -6.587590
  0.488000, -6.562170
  0.490000, -6.521360
  0.492000, -6.450390
  0.494000, -6.364430
  0.496000, -6.266990
  0.498000, -6.171390
  0.500000, -6.092390
  0.502000, -6.046080
  0.504000, -6.025080
  0.506000, -6.025460
  0.508000, -6.037400
  0.510000, -6.052820
  0.512000, -6.072200
  0.514000, -6.094790
  0.516000, -6.123070
  0.518000, -6.154260
  0.520000, -6.188970
  0.522000, -6.227210
  0.524000, -6.259060
  0.526000, -6.301490
  0.528000, -6.337210
  0.530000, -6.375940
  0.532000, -6.409690
  0.534000, -6.447800
  0.536000, -6.476870
  0.538000, -6.501060
  0.540000, -6.507830
  0.542000, -6.500050
  0.544000, -6.475490
  0.546000, -6.429620
  0.548000, -6.370190
  0.550000, -6.297180
  0.552000, -6.222420
  0.554000, -6.150740
  0.556000, -6.080250
  0.558000, -6.022040
  0.560000, -5.965770
  0.562000, -5.913060
  0.564000, -5.861280
  0.566000, -5.804050
  0.568000, -5.724910
  0.570000, -5.642100
  0.572000, -5.537010
  0.574000, -5.417000
  0.576000, -5.278370
  0.578000, -5.141390
  0.580000, -4.997290
  0.582000, -4.863530
  0.584000, -4.725860
  0.586000, -4.588640
  0.588000, -4.453000
  0.590000, -4.316780
  0.592000, -4.184730
  0.594000, -4.052100
  0.596000, -3.911070
  0.598000, -3.764290
  0.600000, -3.606140
  0.602000, -3.451390
  0.604000, -3.284980
  0.606000, -3.118920
  0.608000, -2.955580
  0.610000, -2.791620
  0.612000, -2.636790
  0.614000, -2.487420
  0.616000, -2.361870
  0.618000, -2.247840
  0.620000, -2.144990
  0.622000, -2.052460
  0.624000, -1.960740
  0.626000, -1.871690
  0.628000, -1.780940
  0.630000, -1.679190
  0.632000, -1.569420
  0.634000, -1.458340
  0.636000, -1.350300
  0.638000, -1.240820
  0.640000, -1.143180
  0.642000, -1.053440
  0.644000, -0.975920
  0.646000, -0.917520
  0.648000, -0.876460
  0.650000, -0.842260
  0.652000, -0.818540
  0.654000, -0.791780
  0.656000, -0.768340
  0.658000, -0.741720
  0.660000, -0.698450
  0.662000, -0.636500
  0.664000, -0.580900
  0.666000, -0.522460
  0.668000, -0.462550
  0.670000, -0.398830
  0.672000, -0.349620
  0.674000, -0.300870
  0.676000, -0.256690
  0.678000, -0.229330
  0.680000, -0.208520
  0.682000, -0.207670
  0.684000, -0.221930
  0.686000, -0.246330
  0.688000, -0.276360
  0.690000, -0.303530
  0.692000, -0.322190
  0.694000, -0.330060
  0.696000, -0.322120
  0.698000, -0.311820
  0.700000, -0.289820
  0.702000, -0.259090
  0.704000, -0.225280
  0.706000, -0.183660
  0.708000, -0.131980
  0.710000, -0.075540
  0.712000, -0.017350
  0.714000,  0.043990
  0.716000,  0.102170
  0.718000,  0.153680
  0.720000,  0.187010
  0.722000,  0.204590
  0.724000,  0.207560
  0.726000,  0.185310
  0.728000,  0.147270
  0.730000,  0.103230
  0.732000,  0.063680
  0.734000,  0.022870
  0.736000,  0.001750
  0.738000, -0.004750
  0.740000,  0.007950
  0.742000,  0.039450
  0.744000,  0.074550
  0.746000,  0.108400
  0.748000,  0.154730
  0.750000,  0.182160
  0.752000,  0.180380
  0.754000,  0.156390
  0.756000,  0.113280
  0.758000,  0.053770
  0.760000, -0.014410
  0.762000, -0.080080
  0.764000, -0.126880
  0.766000, -0.153130
  0.768000, -0.145240
  0.770000, -0.112750
  0.772000, -0.067550
  0.774000, -0.013360
  0.776000,  0.042120
  0.778000,  0.080440
  0.780000,  0.096760
  0.782000,  0.102360
  0.784000,  0.086180
  0.786000,  0.063020
  0.788000,  0.035300
  0.790000,  0.001020
  0.792000, -0.018340
  0.794000, -0.032460
  0.796000, -0.041050
  0.798000, -0.044950
  0.800000, -0.039820
  0.802000, -0.040280
  0.804000, -0.037890
  0.806000, -0.051450
  0.808000, -0.080720
  0.810000, -0.121830
  0.812000, -0.165100
  0.814000, -0.213080
  0.816000, -0.259380
  0.818000, -0.298030
  0.820000, -0.322410
  0.822000, -0.335440
  0.824000, -0.332700
  0.826000, -0.326430
  0.828000, -0.322470
  0.830000, -0.311960
  0.832000, -0.304050
  0.834000, -0.301410
  0.836000, -0.305760
  0.838000, -0.315130
  0.840000, -0.327210
  0.842000, -0.336880
  0.844000, -0.344420
  0.846000, -0.356200
  0.848000, -0.365040
  0.850000, -0.368970
  0.852000, -0.376850
  0.854000, -0.378700
  0.856000, -0.395500
  0.858000, -0.406110
  0.860000, -0.424740
  0.862000, -0.436590
  0.864000, -0.442530
  0.866000, -0.439060
  0.868000, -0.430600
  0.870000, -0.421580
  0.872000, -0.399260
  0.874000, -0.376220
  0.876000, -0.350310
  0.878000, -0.322960
  0.880000, -0.286500
  0.882000, -0.267400
  0.884000, -0.246950
  0.886000, -0.234740
  0.888000, -0.226600
  0.890000, -0.230650
  0.892000, -0.244790
  0.894000, -0.259850
  0.896000, -0.274900
  0.898000, -0.283530
  0.900000, -0.283700
  0.902000, -0.270740
  0.904000, -0.250490
  0.906000, -0.227930
  0.908000, -0.195320
  0.910000, -0.169570
  0.912000, -0.150200
  0.914000, -0.124070
  0.916000, -0.107530
  0.918000, -0.090930
  0.920000, -0.070390
  0.922000, -0.063580
  0.924000, -0.051700
  0.926000, -0.044570
  0.928000, -0.039520
  0.930000, -0.038050
  0.932000, -0.035250
  0.934000, -0.035900
  0.936000, -0.043150
  0.938000, -0.058990
  0.940000, -0.064360
  0.942000, -0.064420
  0.944000, -0.067270
  0.946000, -0.062120
  0.948000, -0.050280
  0.950000, -0.028260
  0.952000, -0.004530
  0.954000,  0.019140
  0.956000,  0.046350
  0.958000,  0.067140
  0.960000,  0.075950
  0.962000,  0.084060
  0.964000,  0.079510
  0.966000,  0.072400
  0.968000,  0.069940
  0.970000,  0.074960
  0.972000,  0.090090
  0.974000,  0.113490
  0.976000,  0.133800
  0.978000,  0.158920
  0.980000,  0.172400
  0.982000,  0.174130
  0.984000,  0.167530
  0.986000,  0.159880
  0.988000,  0.144260
  0.990000,  0.125000
  0.992000,  0.103490
  0.994000,  0.089850
  0.996000,  0.075760
  0.998000,  0.061470
  1.000000,  0.049630
