# z (nm)   (kJ/mol)
  0.102000,267.640090
  0.104000,265.234240
  0.106000,261.877210
  0.108000,259.290170
  0.110000,256.809740
  0.112000,254.382820
  0.114000,251.925720
  0.116000,249.495370
  0.118000,247.030010
  0.120000,244.562600
  0.122000,242.066710
  0.124000,239.538220
  0.126000,236.947350
  0.128000,234.288420
  0.130000,231.539810
  0.132000,228.686250
  0.134000,225.710630
  0.136000,222.589220
  0.138000,219.305770
  0.140000,215.839260
  0.142000,212.174090
  0.144000,208.299190
  0.146000,204.214790
  0.148000,199.941710
  0.150000,195.512700
  0.152000,190.972930
  0.154000,186.369210
  0.156000,181.759210
  0.158000,177.178690
  0.160000,172.672110
  0.162000,168.258960
  0.164000,163.958020
  0.166000,159.773700
  0.168000,155.700490
  0.170000,151.735190
  0.172000,147.860940
  0.174000,144.059910
  0.176000,140.312580
  0.178000,136.606460
  0.180000,132.946140
  0.182000,129.338300
  0.184000,125.796850
  0.186000,122.337210
  0.188000,118.964560
  0.190000,115.662730
  0.192000,112.416050
  0.194000,109.201120
  0.196000,106.001310
  0.198000,102.813500
  0.200000, 99.631150
  0.202000, 96.452320
  0.204000, 93.282400
  0.206000, 90.130200
  0.208000, 87.011260
  0.210000, 83.959370
  0.212000, 81.005290
  0.214000, 78.165590
  0.216000, 75.426010
  0.218000, 72.735040
  0.220000, 70.042200
  0.222000, 67.309400
  0.224000, 64.559470
  0.226000, 61.820280
  0.228000, 59.157490
  0.230000, 56.602380
  0.232000, 54.184550
  0.234000, 51.873480
  0.236000, 49.637190
  0.238000, 47.427480
  0.240000, 45.216840
  0.242000, 43.000710
  0.244000, 40.791090
  0.246000, 38.611360
  0.248000, 36.498800
  0.250000, 34.461960
  0.252000, 32.506320
  0.254000, 30.638920
  0.256000, 28.845120
  0.258000, 27.121310
  0.260000, 25.447230
  0.262000, 23.813940
  0.264000, 22.206330
  0.266000, 20.610260
  0.268000, 19.026640
  0.270000, 17.450690
  0.272000, 15.893470
  0.274000, 14.373390
  0.276000, 12.904440
  0.278000, 11.509510
  0.280000, 10.195360
  0.282000,  8.972250
  0.284000,  7.831590
  0.286000,  6.745280
  0.288000,  5.675790
  0.290000,  4.599660
  0.292000,  3.504200
  0.294000,  2.386800
  0.296000,  1.289000
  0.298000,  0.221620
  0.300000, -0.779230
  0.302000, -1.697560
  0.304000, -2.544910
  0.306000, -3.335960
  0.308000, -4.096640
  0.310000, -4.837640
  0.312000, -5.574740
  0.314000, -6.308000
  0.316000, -7.026940
  0.318000, -7.733490
  0.320000, -8.410670
  0.322000, -9.058040
  0.324000, -9.659780
  0.326000,-10.224590
  0.328000,-10.753930
  0.330000,-11.257260
  0.332000,-11.741060
  0.334000,-12.214340
  0.336000,-12.661310
  0.338000,-13.079460
  0.340000,-13.474270
  0.342000,-13.838720
  0.344000,-14.158040
  0.346000,-14.434210
  0.348000,-14.681680
  0.350000,-14.894840
  0.352000,-15.078340
  0.354000,-15.235730
  0.356000,-15.370170
  0.358000,-15.493300
  0.360000,-15.608980
  0.362000,-15.711730
  0.364000,-15.815490
  0.366000,-15.895280
  0.368000,-15.950550
  0.370000,-15.979850
  0.372000,-15.978830
  0.374000,-15.953900
  0.376000,-15.898250
  0.378000,-15.831270
  0.380000,-15.749810
  0.382000,-15.670870
  0.384000,-15.613320
  0.386000,-15.575560
  0.388000,-15.554590
  0.390000,-15.541140
  0.392000,-15.525340
  0.394000,-15.505020
  0.396000,-15.467440
  0.398000,-15.409390
  0.400000,-15.335900
  0.402000,-15.244310
  0.404000,-15.145680
  0.406000,-15.047950
  0.408000,-14.948350
  0.410000,-14.855370
  0.412000,-14.769300
  0.414000,-14.703210
  0.416000,-14.641730
  0.418000,-14.581140
  0.420000,-14.510370
  0.422000,-14.419000
  0.424000,-14.303850
  0.426000,-14.157380
  0.428000,-13.987860
  0.430000,-13.809720
  0.432000,-13.621540
  0.434000,-13.430510
  0.436000,-13.239380
  0.438000,-13.056210
  0.440000,-12.886460
  0.442000,-12.712110
  0.444000,-12.533220
  0.446000,-12.353890
  0.448000,-12.164850
  0.450000,-11.980260
  0.452000,-11.794290
  0.454000,-11.608660
  0.456000,-11.429490
  0.458000,-11.260230
  0.460000,-11.105350
  0.462000,-10.948870
  0.464000,-10.792250
  0.466000,-10.635180
  0.468000,-10.479630
  0.470000,-10.322470
  0.472000,-10.164450
  0.474000,-10.014040
  0.476000, -9.876100
  0.478000, -9.765470
  0.480000, -9.680430
  0.482000, -9.626120
  0.484000, -9.590010
  0.486000, -9.565660
  0.488000, -9.534510
  0.490000, -9.482510
  0.492000, -9.412550
  0.494000, -9.321780
  0.496000, -9.217110
  0.498000, -9.113120
  0.500000, -9.013930
  0.502000, -8.923430
  0.504000, -8.840450
  0.506000, -8.759120
  0.508000, -8.685640
  0.510000, -8.608450
  0.512000, -8.532600
  0.514000, -8.464410
  0.516000, -8.402890
  0.518000, -8.347750
  0.520000, -8.298410
  0.522000, -8.255410
  0.524000, -8.211080
  0.526000, -8.170310
  0.528000, -8.124960
  0.530000, -8.079860
  0.532000, -8.023780
  0.534000, -7.973640
  0.536000, -7.924700
  0.538000, -7.862650
  0.540000, -7.782620
  0.542000, -7.685060
  0.544000, -7.574920
  0.546000, -7.446840
  0.548000, -7.314270
  0.550000, -7.168880
  0.552000, -7.020780
  0.554000, -6.872980
  0.556000, -6.736660
  0.558000, -6.595950
  0.560000, -6.443880
  0.562000, -6.290620
  0.564000, -6.118430
  0.566000, -5.928760
  0.568000, -5.714620
  0.570000, -5.484740
  0.572000, -5.242710
  0.574000, -5.001750
  0.576000, -4.766330
  0.578000, -4.539720
  0.580000, -4.323360
  0.582000, -4.115010
  0.584000, -3.908210
  0.586000, -3.705640
  0.588000, -3.499130
  0.590000, -3.290930
  0.592000, -3.067670
  0.594000, -2.846550
  0.596000, -2.627390
  0.598000, -2.409290
  0.600000, -2.194540
  0.602000, -1.986830
  0.604000, -1.793830
  0.606000, -1.618820
  0.608000, -1.448720
  0.610000, -1.292910
  0.612000, -1.143600
  0.614000, -0.996790
  0.616000, -0.859510
  0.618000, -0.727060
  0.620000, -0.596100
  0.622000, -0.467000
  0.624000, -0.346140
  0.626000, -0.235260
  0.628000, -0.136560
  0.630000, -0.057040
  0.632000,  0.013200
  0.634000,  0.053430
  0.636000,  0.070030
  0.638000,  0.062310
  0.640000,  0.035350
  0.642000,  0.007830
  0.644000, -0.037020
  0.646000, -0.076350
  0.648000, -0.109190
  0.650000, -0.147310
  0.652000, -0.178340
  0.654000, -0.201070
  0.656000, -0.226290
  0.658000, -0.254400
  0.660000, -0.288540
  0.662000, -0.330570
  0.664000, -0.387200
  0.666000, -0.458890
  0.668000, -0.537010
  0.670000, -0.625270
  0.672000, -0.718300
  0.674000, -0.814370
  0.676000, -0.899790
  0.678000, -0.970890
  0.680000, -1.031470
  0.682000, -1.079780
  0.684000, -1.129500
  0.686000, -1.174330
  0.688000, -1.224430
  0.690000, -1.277720
  0.692000, -1.329160
  0.694000, -1.396930
  0.696000, -1.456940
  0.698000, -1.522660
  0.700000, -1.577580
  0.702000, -1.623020
  0.704000, -1.671970
  0.706000, -1.717460
  0.708000, -1.751590
  0.710000, -1.794780
  0.712000, -1.841740
  0.714000, -1.876540
  0.716000, -1.907090
  0.718000, -1.935990
  0.720000, -1.955530
  0.722000, -1.958380
  0.724000, -1.959980
  0.726000, -1.951250
  0.728000, -1.943760
  0.730000, -1.936760
  0.732000, -1.937600
  0.734000, -1.937810
  0.736000, -1.942430
  0.738000, -1.944630
  0.740000, -1.948000
  0.742000, -1.942470
  0.744000, -1.928000
  0.746000, -1.899910
  0.748000, -1.868940
  0.750000, -1.832360
  0.752000, -1.798210
  0.754000, -1.761330
  0.756000, -1.732350
  0.758000, -1.704300
  0.760000, -1.685520
  0.762000, -1.675400
  0.764000, -1.674590
  0.766000, -1.677680
  0.768000, -1.675460
  0.770000, -1.669140
  0.772000, -1.649840
  0.774000, -1.620580
  0.776000, -1.578380
  0.778000, -1.528730
  0.780000, -1.478420
  0.782000, -1.420920
  0.784000, -1.374850
  0.786000, -1.334640
  0.788000, -1.304370
  0.790000, -1.281410
  0.792000, -1.266880
  0.794000, -1.258360
  0.796000, -1.247180
  0.798000, -1.248480
  0.800000, -1.246150
  0.802000, -1.250660
  0.804000, -1.252110
  0.806000, -1.250380
  0.808000, -1.238020
  0.810000, -1.217760
  0.812000, -1.181860
  0.814000, -1.138770
  0.816000, -1.083210
  0.818000, -1.023290
  0.820000, -0.969210
  0.822000, -0.924240
  0.824000, -0.892260
  0.826000, -0.875280
  0.828000, -0.870040
  0.830000, -0.879100
  0.832000, -0.893450
  0.834000, -0.899690
  0.836000, -0.900270
  0.838000, -0.893740
  0.840000, -0.875640
  0.842000, -0.850770
  0.844000, -0.822900
  0.846000, -0.797350
  0.848000, -0.761550
  0.850000, -0.732280
  0.852000, -0.700090
  0.854000, -0.666980
  0.856000, -0.627130
  0.858000, -0.583520
  0.860000, -0.535120
  0.862000, -0.481470
  0.864000, -0.420680
  0.866000, -0.354990
  0.868000, -0.302040
  0.870000, -0.252480
  0.872000, -0.210420
  0.874000, -0.186580
  0.876000, -0.167990
  0.878000, -0.158250
  0.880000, -0.154520
  0.882000, -0.153530
  0.884000, -0.149600
  0.886000, -0.158270
  0.888000, -0.173390
  0.890000, -0.183390
  0.892000, -0.186750
  0.894000, -0.180950
  0.896000, -0.168840
  0.898000, -0.147090
  0.900000, -0.124180
  0.902000, -0.089690
  0.904000, -0.049320
  0.906000, -0.011770
  0.908000,  0.014230
  0.910000,  0.024260
  0.912000,  0.019180
  0.914000, -0.003780
  0.916000, -0.041860
  0.918000, -0.081100
  0.920000, -0.114290
  0.922000, -0.134790
  0.924000, -0.140830
  0.926000, -0.137950
  0.928000, -0.109410
  0.930000, -0.069060
  0.932000, -0.017970
  0.934000,  0.038850
  0.936000,  0.090030
  0.938000,  0.140090
  0.940000,  0.173310
  0.942000,  0.190020
  0.944000,  0.191210
  0.946000,  0.178170
  0.948000,  0.160720
  0.950000,  0.137650
  0.952000,  0.101340
  0.954000,  0.071240
  0.956000,  0.044470
  0.958000,  0.020700
  0.960000,  0.002490
  0.962000,  0.000160
  0.964000,  0.001320
  0.966000,  0.012970
  0.968000,  0.024670
  0.970000,  0.036390
  0.972000,  0.049130
  0.974000,  0.059470
  0.976000,  0.060350
  0.978000,  0.058000
  0.980000,  0.037090
  0.982000,  0.018750
  0.984000, -0.017470
  0.986000, -0.051520
  0.988000, -0.081870
  0.990000, -0.109010
  0.992000, -0.128360
  0.994000, -0.139650
  0.996000, -0.144320
  0.998000, -0.143670
  1.000000, -0.138560
