# z (nm)   (kJ/mol)
  0.056000,280.913020
  0.058000,278.714610
  0.060000,275.647570
  0.062000,272.683160
  0.064000,270.120070
  0.066000,267.537840
  0.068000,265.021390
  0.070000,262.490760
  0.072000,259.947370
  0.074000,257.448790
  0.076000,254.943570
  0.078000,252.425700
  0.080000,249.896160
  0.082000,247.334640
  0.084000,244.733760
  0.086000,242.086060
  0.088000,239.375620
  0.090000,236.591160
  0.092000,233.722560
  0.094000,230.752270
  0.096000,227.674500
  0.098000,224.476000
  0.100000,221.143870
  0.102000,217.671300
  0.104000,214.059100
  0.106000,210.299250
  0.108000,206.406840
  0.110000,202.389590
  0.112000,198.265230
  0.114000,194.059210
  0.116000,189.800180
  0.118000,185.529220
  0.120000,181.287620
  0.122000,177.112280
  0.124000,173.033910
  0.126000,169.071950
  0.128000,165.240630
  0.130000,161.523790
  0.132000,157.924100
  0.134000,154.413670
  0.136000,150.970350
  0.138000,147.587090
  0.140000,144.245380
  0.142000,140.944810
  0.144000,137.693240
  0.146000,134.487250
  0.148000,131.337910
  0.150000,128.240520
  0.152000,125.199320
  0.154000,122.206780
  0.156000,119.253220
  0.158000,116.325390
  0.160000,113.423030
  0.162000,110.542160
  0.164000,107.676940
  0.166000,104.831780
  0.168000,102.007510
  0.170000, 99.210080
  0.172000, 96.437210
  0.174000, 93.698710
  0.176000, 90.992340
  0.178000, 88.320480
  0.180000, 85.679240
  0.182000, 83.068470
  0.184000, 80.497280
  0.186000, 77.959010
  0.188000, 75.453900
  0.190000, 72.981550
  0.192000, 70.545860
  0.194000, 68.150870
  0.196000, 65.792650
  0.198000, 63.463240
  0.200000, 61.177010
  0.202000, 58.930040
  0.204000, 56.725720
  0.206000, 54.554380
  0.208000, 52.426580
  0.210000, 50.335090
  0.212000, 48.286000
  0.214000, 46.277190
  0.216000, 44.306950
  0.218000, 42.378790
  0.220000, 40.495760
  0.222000, 38.649760
  0.224000, 36.850090
  0.226000, 35.096780
  0.228000, 33.397480
  0.230000, 31.742240
  0.232000, 30.151230
  0.234000, 28.615220
  0.236000, 27.139730
  0.238000, 25.718640
  0.240000, 24.343120
  0.242000, 23.006870
  0.244000, 21.696610
  0.246000, 20.393060
  0.248000, 19.089610
  0.250000, 17.777160
  0.252000, 16.459410
  0.254000, 15.151620
  0.256000, 13.877920
  0.258000, 12.656650
  0.260000, 11.512770
  0.262000, 10.452530
  0.264000,  9.489400
  0.266000,  8.608770
  0.268000,  7.797030
  0.270000,  7.034320
  0.272000,  6.285510
  0.274000,  5.551250
  0.276000,  4.819350
  0.278000,  4.088090
  0.280000,  3.363250
  0.282000,  2.658430
  0.284000,  1.972380
  0.286000,  1.320580
  0.288000,  0.711800
  0.290000,  0.138050
  0.292000, -0.387620
  0.294000, -0.868110
  0.296000, -1.311090
  0.298000, -1.713590
  0.300000, -2.077100
  0.302000, -2.406290
  0.304000, -2.712090
  0.306000, -2.984390
  0.308000, -3.231160
  0.310000, -3.452440
  0.312000, -3.662330
  0.314000, -3.853140
  0.316000, -4.022460
  0.318000, -4.186180
  0.320000, -4.333640
  0.322000, -4.465570
  0.324000, -4.580860
  0.326000, -4.686180
  0.328000, -4.777790
  0.330000, -4.850290
  0.332000, -4.910140
  0.334000, -4.959870
  0.336000, -4.998290
  0.338000, -5.021840
  0.340000, -5.038360
  0.342000, -5.046540
  0.344000, -5.051910
  0.346000, -5.051910
  0.348000, -5.044950
  0.350000, -5.045800
  0.352000, -5.038420
  0.354000, -5.029780
  0.356000, -5.030460
  0.358000, -5.020470
  0.360000, -5.012110
  0.362000, -5.001490
  0.364000, -4.988220
  0.366000, -4.976710
  0.368000, -4.962740
  0.370000, -4.945190
  0.372000, -4.924030
  0.374000, -4.895370
  0.376000, -4.862430
  0.378000, -4.824970
  0.380000, -4.780790
  0.382000, -4.735310
  0.384000, -4.681990
  0.386000, -4.626690
  0.388000, -4.568620
  0.390000, -4.504140
  0.392000, -4.436420
  0.394000, -4.358700
  0.396000, -4.273120
  0.398000, -4.181750
  0.400000, -4.084870
  0.402000, -3.976050
  0.404000, -3.862790
  0.406000, -3.737380
  0.408000, -3.609750
  0.410000, -3.465020
  0.412000, -3.315870
  0.414000, -3.164080
  0.416000, -3.002520
  0.418000, -2.840840
  0.420000, -2.672930
  0.422000, -2.503810
  0.424000, -2.326910
  0.426000, -2.154250
  0.428000, -1.987680
  0.430000, -1.822590
  0.432000, -1.663300
  0.434000, -1.498920
  0.436000, -1.339900
  0.438000, -1.187360
  0.440000, -1.039080
  0.442000, -0.894630
  0.444000, -0.754230
  0.446000, -0.618460
  0.448000, -0.489590
  0.450000, -0.364450
  0.452000, -0.238330
  0.454000, -0.115480
  0.456000,  0.005030
  0.458000,  0.124310
  0.460000,  0.247190
  0.462000,  0.367450
  0.464000,  0.493280
  0.466000,  0.617850
  0.468000,  0.744030
  0.470000,  0.870910
  0.472000,  0.997670
  0.474000,  1.124780
  0.476000,  1.253980
  0.478000,  1.376130
  0.480000,  1.498580
  0.482000,  1.615930
  0.484000,  1.727830
  0.486000,  1.835270
  0.488000,  1.940700
  0.490000,  2.039370
  0.492000,  2.132100
  0.494000,  2.217010
  0.496000,  2.298710
  0.498000,  2.373140
  0.500000,  2.444830
  0.502000,  2.507480
  0.504000,  2.561220
  0.506000,  2.608450
  0.508000,  2.655600
  0.510000,  2.700300
  0.512000,  2.745030
  0.514000,  2.781160
  0.516000,  2.815810
  0.518000,  2.847570
  0.520000,  2.876700
  0.522000,  2.906630
  0.524000,  2.932140
  0.526000,  2.950490
  0.528000,  2.961870
  0.530000,  2.967970
  0.532000,  2.968700
  0.534000,  2.967740
  0.536000,  2.960330
  0.538000,  2.948540
  0.540000,  2.930490
  0.542000,  2.918430
  0.544000,  2.893870
  0.546000,  2.870010
  0.548000,  2.847830
  0.550000,  2.814850
  0.552000,  2.782950
  0.554000,  2.747560
  0.556000,  2.712800
  0.558000,  2.677870
  0.560000,  2.633770
  0.562000,  2.580890
  0.564000,  2.523790
  0.566000,  2.458870
  0.568000,  2.389390
  0.570000,  2.314190
  0.572000,  2.235930
  0.574000,  2.154990
  0.576000,  2.070850
  0.578000,  1.985020
  0.580000,  1.899600
  0.582000,  1.813100
  0.584000,  1.735220
  0.586000,  1.658590
  0.588000,  1.590340
  0.590000,  1.525250
  0.592000,  1.460850
  0.594000,  1.398560
  0.596000,  1.336640
  0.598000,  1.276180
  0.600000,  1.217410
  0.602000,  1.162260
  0.604000,  1.095690
  0.606000,  1.030530
  0.608000,  0.959420
  0.610000,  0.889640
  0.612000,  0.815360
  0.614000,  0.746560
  0.616000,  0.677400
  0.618000,  0.604870
  0.620000,  0.537150
  0.622000,  0.472760
  0.624000,  0.417820
  0.626000,  0.363580
  0.628000,  0.316890
  0.630000,  0.274160
  0.632000,  0.236010
  0.634000,  0.201270
  0.636000,  0.170860
  0.638000,  0.141830
  0.640000,  0.110770
  0.642000,  0.089000
  0.644000,  0.066210
  0.646000,  0.047030
  0.648000,  0.025020
  0.650000,  0.004260
  0.652000, -0.014520
  0.654000, -0.033300
  0.656000, -0.054540
  0.658000, -0.072870
  0.660000, -0.092100
  0.662000, -0.112840
  0.664000, -0.130470
  0.666000, -0.145430
  0.668000, -0.157690
  0.670000, -0.160280
  0.672000, -0.168130
  0.674000, -0.172370
  0.676000, -0.177190
  0.678000, -0.180170
  0.680000, -0.184140
  0.682000, -0.191790
  0.684000, -0.198590
  0.686000, -0.200530
  0.688000, -0.207260
  0.690000, -0.212530
  0.692000, -0.219840
  0.694000, -0.227760
  0.696000, -0.231450
  0.698000, -0.230730
  0.700000, -0.222290
  0.702000, -0.213440
  0.704000, -0.200510
  0.706000, -0.188320
  0.708000, -0.172290
  0.710000, -0.152420
  0.712000, -0.135320
  0.714000, -0.119630
  0.716000, -0.101340
  0.718000, -0.091910
  0.720000, -0.079660
  0.722000, -0.065600
  0.724000, -0.054220
  0.726000, -0.047740
  0.728000, -0.044850
  0.730000, -0.032650
  0.732000, -0.025110
  0.734000, -0.014510
  0.736000, -0.008490
  0.738000,  0.005210
  0.740000,  0.024170
  0.742000,  0.042910
  0.744000,  0.071820
  0.746000,  0.094350
  0.748000,  0.117050
  0.750000,  0.145410
  0.752000,  0.175760
  0.754000,  0.203110
  0.756000,  0.235180
  0.758000,  0.261440
  0.760000,  0.287810
  0.762000,  0.315370
  0.764000,  0.332230
  0.766000,  0.345380
  0.768000,  0.350630
  0.770000,  0.358490
  0.772000,  0.364960
  0.774000,  0.368570
  0.776000,  0.378370
  0.778000,  0.384250
  0.780000,  0.391220
  0.782000,  0.395710
  0.784000,  0.403750
  0.786000,  0.408670
  0.788000,  0.416810
  0.790000,  0.420650
  0.792000,  0.426870
  0.794000,  0.430320
  0.796000,  0.434110
  0.798000,  0.438880
  0.800000,  0.451960
  0.802000,  0.468160
  0.804000,  0.480510
  0.806000,  0.502370
  0.808000,  0.522490
  0.810000,  0.543080
  0.812000,  0.561050
  0.814000,  0.582740
  0.816000,  0.590060
  0.818000,  0.595230
  0.820000,  0.593930
  0.822000,  0.587110
  0.824000,  0.576260
  0.826000,  0.565950
  0.828000,  0.544110
  0.830000,  0.526210
  0.832000,  0.512910
  0.834000,  0.501450
  0.836000,  0.498750
  0.838000,  0.506570
  0.840000,  0.516590
  0.842000,  0.538760
  0.844000,  0.556780
  0.846000,  0.586030
  0.848000,  0.607260
  0.850000,  0.627820
  0.852000,  0.646950
  0.854000,  0.655940
  0.856000,  0.660120
  0.858000,  0.651130
  0.860000,  0.633820
  0.862000,  0.617100
  0.864000,  0.590390
  0.866000,  0.559930
  0.868000,  0.530800
  0.870000,  0.505450
  0.872000,  0.480440
  0.874000,  0.456170
  0.876000,  0.433370
  0.878000,  0.412590
  0.880000,  0.398460
  0.882000,  0.388280
  0.884000,  0.380010
  0.886000,  0.370180
  0.888000,  0.365780
  0.890000,  0.364500
  0.892000,  0.364030
  0.894000,  0.369940
  0.896000,  0.375070
  0.898000,  0.374480
  0.900000,  0.378820
  0.902000,  0.376720
  0.904000,  0.369380
  0.906000,  0.358570
  0.908000,  0.347240
  0.910000,  0.327750
  0.912000,  0.301860
  0.914000,  0.276010
  0.916000,  0.243180
  0.918000,  0.210890
  0.920000,  0.175770
  0.922000,  0.147460
  0.924000,  0.119140
  0.926000,  0.092140
  0.928000,  0.063270
  0.930000,  0.039000
  0.932000,  0.014860
  0.934000, -0.005850
  0.936000, -0.019720
  0.938000, -0.032290
  0.940000, -0.038770
  0.942000, -0.036430
  0.944000, -0.036310
  0.946000, -0.034210
  0.948000, -0.023670
  0.950000, -0.012900
  0.952000, -0.000130
  0.954000,  0.007910
  0.956000,  0.013950
  0.958000,  0.015260
  0.960000,  0.012260
  0.962000,  0.010420
  0.964000,  0.001720
  0.966000, -0.017110
  0.968000, -0.029870
  0.970000, -0.048830
  0.972000, -0.078600
  0.974000, -0.104670
  0.976000, -0.128880
  0.978000, -0.152730
  0.980000, -0.179770
  0.982000, -0.202620
  0.984000, -0.222570
  0.986000, -0.242100
  0.988000, -0.255440
  0.990000, -0.268750
  0.992000, -0.272400
  0.994000, -0.274330
  0.996000, -0.270590
  0.998000, -0.270140
  1.000000, -0.265110
