# z (nm)   (kJ/mol)
  0.086000,266.888070
  0.088000,264.521540
  0.090000,261.687890
  0.092000,259.103100
  0.094000,256.650190
  0.096000,254.021630
  0.098000,251.508460
  0.100000,248.980380
  0.102000,246.393420
  0.104000,243.732250
  0.106000,240.991030
  0.108000,238.178820
  0.110000,235.261110
  0.112000,232.232610
  0.114000,229.080740
  0.116000,225.797070
  0.118000,222.384560
  0.120000,218.837230
  0.122000,215.157020
  0.124000,211.348080
  0.126000,207.417450
  0.128000,203.362030
  0.130000,199.199860
  0.132000,194.935420
  0.134000,190.586980
  0.136000,186.167930
  0.138000,181.701600
  0.140000,177.216890
  0.142000,172.736590
  0.144000,168.291540
  0.146000,163.891000
  0.148000,159.551430
  0.150000,155.279760
  0.152000,151.080330
  0.154000,146.950840
  0.156000,142.897780
  0.158000,138.928300
  0.160000,135.042750
  0.162000,131.235980
  0.164000,127.510880
  0.166000,123.855030
  0.168000,120.261690
  0.170000,116.719420
  0.172000,113.221370
  0.174000,109.750670
  0.176000,106.306830
  0.178000,102.872050
  0.180000, 99.434670
  0.182000, 95.996910
  0.184000, 92.567670
  0.186000, 89.173500
  0.188000, 85.848770
  0.190000, 82.615660
  0.192000, 79.488540
  0.194000, 76.470730
  0.196000, 73.535320
  0.198000, 70.665850
  0.200000, 67.828160
  0.202000, 64.995750
  0.204000, 62.149880
  0.206000, 59.291230
  0.208000, 56.438570
  0.210000, 53.612570
  0.212000, 50.843640
  0.214000, 48.163960
  0.216000, 45.574910
  0.218000, 43.082220
  0.220000, 40.680530
  0.222000, 38.348920
  0.224000, 36.069610
  0.226000, 33.820850
  0.228000, 31.595870
  0.230000, 29.387530
  0.232000, 27.194220
  0.234000, 25.029340
  0.236000, 22.903780
  0.238000, 20.829000
  0.240000, 18.826500
  0.242000, 16.907160
  0.244000, 15.063650
  0.246000, 13.283410
  0.248000, 11.565690
  0.250000,  9.887640
  0.252000,  8.237050
  0.254000,  6.628090
  0.256000,  5.054870
  0.258000,  3.524420
  0.260000,  2.037810
  0.262000,  0.600610
  0.264000, -0.778310
  0.266000, -2.106790
  0.268000, -3.382010
  0.270000, -4.603120
  0.272000, -5.771660
  0.274000, -6.887140
  0.276000, -7.959010
  0.278000, -8.978570
  0.280000, -9.959480
  0.282000,-10.894580
  0.284000,-11.793040
  0.286000,-12.650970
  0.288000,-13.460040
  0.290000,-14.224660
  0.292000,-14.941580
  0.294000,-15.602240
  0.296000,-16.207020
  0.298000,-16.758700
  0.300000,-17.258520
  0.302000,-17.708980
  0.304000,-18.131090
  0.306000,-18.527320
  0.308000,-18.895860
  0.310000,-19.248230
  0.312000,-19.581720
  0.314000,-19.885480
  0.316000,-20.149410
  0.318000,-20.357960
  0.320000,-20.507050
  0.322000,-20.601130
  0.324000,-20.637840
  0.326000,-20.611170
  0.328000,-20.551190
  0.330000,-20.462050
  0.332000,-20.356960
  0.334000,-20.248940
  0.336000,-20.124450
  0.338000,-19.992110
  0.340000,-19.827910
  0.342000,-19.625400
  0.344000,-19.392750
  0.346000,-19.108420
  0.348000,-18.786170
  0.350000,-18.439560
  0.352000,-18.075990
  0.354000,-17.705490
  0.356000,-17.335490
  0.358000,-16.971810
  0.360000,-16.611550
  0.362000,-16.254850
  0.364000,-15.899820
  0.366000,-15.537570
  0.368000,-15.164760
  0.370000,-14.790440
  0.372000,-14.395290
  0.374000,-14.000520
  0.376000,-13.618790
  0.378000,-13.253050
  0.380000,-12.907120
  0.382000,-12.603070
  0.384000,-12.326790
  0.386000,-12.076640
  0.388000,-11.850390
  0.390000,-11.628260
  0.392000,-11.416360
  0.394000,-11.224320
  0.396000,-11.044920
  0.398000,-10.886520
  0.400000,-10.758450
  0.402000,-10.657600
  0.404000,-10.580000
  0.406000,-10.523990
  0.408000,-10.479960
  0.410000,-10.438850
  0.412000,-10.385990
  0.414000,-10.331390
  0.416000,-10.271320
  0.418000,-10.207230
  0.420000,-10.142810
  0.422000,-10.081920
  0.424000,-10.051510
  0.426000,-10.044040
  0.428000,-10.060410
  0.430000,-10.090720
  0.432000,-10.134730
  0.434000,-10.186180
  0.436000,-10.240140
  0.438000,-10.277920
  0.440000,-10.301810
  0.442000,-10.307070
  0.444000,-10.297960
  0.446000,-10.282560
  0.448000,-10.261480
  0.450000,-10.247830
  0.452000,-10.239730
  0.454000,-10.246860
  0.456000,-10.261050
  0.458000,-10.270560
  0.460000,-10.274220
  0.462000,-10.262130
  0.464000,-10.245550
  0.466000,-10.220760
  0.468000,-10.182650
  0.470000,-10.143770
  0.472000,-10.103780
  0.474000,-10.056370
  0.476000,-10.006830
  0.478000, -9.941520
  0.480000, -9.872090
  0.482000, -9.780140
  0.484000, -9.687080
  0.486000, -9.583470
  0.488000, -9.475900
  0.490000, -9.367470
  0.492000, -9.260640
  0.494000, -9.158430
  0.496000, -9.057980
  0.498000, -8.954770
  0.500000, -8.854310
  0.502000, -8.745490
  0.504000, -8.642900
  0.506000, -8.533760
  0.508000, -8.430410
  0.510000, -8.331730
  0.512000, -8.233730
  0.514000, -8.142770
  0.516000, -8.043760
  0.518000, -7.937170
  0.520000, -7.829650
  0.522000, -7.729420
  0.524000, -7.625190
  0.526000, -7.528490
  0.528000, -7.443490
  0.530000, -7.382780
  0.532000, -7.330050
  0.534000, -7.282290
  0.536000, -7.233780
  0.538000, -7.180050
  0.540000, -7.116720
  0.542000, -7.057110
  0.544000, -6.989280
  0.546000, -6.927320
  0.548000, -6.864710
  0.550000, -6.804600
  0.552000, -6.738480
  0.554000, -6.679480
  0.556000, -6.604120
  0.558000, -6.520240
  0.560000, -6.431630
  0.562000, -6.341840
  0.564000, -6.247320
  0.566000, -6.155400
  0.568000, -6.068500
  0.570000, -5.977980
  0.572000, -5.891690
  0.574000, -5.807040
  0.576000, -5.720930
  0.578000, -5.636370
  0.580000, -5.546770
  0.582000, -5.457160
  0.584000, -5.362280
  0.586000, -5.264420
  0.588000, -5.166380
  0.590000, -5.066360
  0.592000, -4.963690
  0.594000, -4.856620
  0.596000, -4.745210
  0.598000, -4.627840
  0.600000, -4.504410
  0.602000, -4.372930
  0.604000, -4.224590
  0.606000, -4.067690
  0.608000, -3.910330
  0.610000, -3.756240
  0.612000, -3.608390
  0.614000, -3.465660
  0.616000, -3.336990
  0.618000, -3.215110
  0.620000, -3.099710
  0.622000, -2.986110
  0.624000, -2.873820
  0.626000, -2.754420
  0.628000, -2.629080
  0.630000, -2.499750
  0.632000, -2.362260
  0.634000, -2.225740
  0.636000, -2.074050
  0.638000, -1.920690
  0.640000, -1.764840
  0.642000, -1.610040
  0.644000, -1.455340
  0.646000, -1.307210
  0.648000, -1.173810
  0.650000, -1.045160
  0.652000, -0.928500
  0.654000, -0.824840
  0.656000, -0.718780
  0.658000, -0.616710
  0.660000, -0.515020
  0.662000, -0.407160
  0.664000, -0.290370
  0.666000, -0.176730
  0.668000, -0.065570
  0.670000,  0.045630
  0.672000,  0.140280
  0.674000,  0.214050
  0.676000,  0.275750
  0.678000,  0.328130
  0.680000,  0.364450
  0.682000,  0.396870
  0.684000,  0.430330
  0.686000,  0.465480
  0.688000,  0.499440
  0.690000,  0.537140
  0.692000,  0.581630
  0.694000,  0.623490
  0.696000,  0.668770
  0.698000,  0.710430
  0.700000,  0.743170
  0.702000,  0.773650
  0.704000,  0.794450
  0.706000,  0.799450
  0.708000,  0.790760
  0.710000,  0.771740
  0.712000,  0.742420
  0.714000,  0.704290
  0.716000,  0.657020
  0.718000,  0.610650
  0.720000,  0.557100
  0.722000,  0.498210
  0.724000,  0.443000
  0.726000,  0.394660
  0.728000,  0.356010
  0.730000,  0.318350
  0.732000,  0.283950
  0.734000,  0.257020
  0.736000,  0.235360
  0.738000,  0.216550
  0.740000,  0.204480
  0.742000,  0.192050
  0.744000,  0.184390
  0.746000,  0.168270
  0.748000,  0.145890
  0.750000,  0.110160
  0.752000,  0.050160
  0.754000, -0.023550
  0.756000, -0.115960
  0.758000, -0.216830
  0.760000, -0.311330
  0.762000, -0.389590
  0.764000, -0.443810
  0.766000, -0.479280
  0.768000, -0.490160
  0.770000, -0.491180
  0.772000, -0.487590
  0.774000, -0.486300
  0.776000, -0.495100
  0.778000, -0.508960
  0.780000, -0.532490
  0.782000, -0.566360
  0.784000, -0.603130
  0.786000, -0.646240
  0.788000, -0.689480
  0.790000, -0.731460
  0.792000, -0.774880
  0.794000, -0.811050
  0.796000, -0.838570
  0.798000, -0.847490
  0.800000, -0.845500
  0.802000, -0.832010
  0.804000, -0.812830
  0.806000, -0.790250
  0.808000, -0.766090
  0.810000, -0.755630
  0.812000, -0.748130
  0.814000, -0.752230
  0.816000, -0.758560
  0.818000, -0.775260
  0.820000, -0.793180
  0.822000, -0.813900
  0.824000, -0.832870
  0.826000, -0.852570
  0.828000, -0.864250
  0.830000, -0.878630
  0.832000, -0.884750
  0.834000, -0.888230
  0.836000, -0.897800
  0.838000, -0.899940
  0.840000, -0.893590
  0.842000, -0.875560
  0.844000, -0.857280
  0.846000, -0.830200
  0.848000, -0.806190
  0.850000, -0.789040
  0.852000, -0.779060
  0.854000, -0.774920
  0.856000, -0.775580
  0.858000, -0.779640
  0.860000, -0.785260
  0.862000, -0.789590
  0.864000, -0.787000
  0.866000, -0.778690
  0.868000, -0.768060
  0.870000, -0.755400
  0.872000, -0.740240
  0.874000, -0.729290
  0.876000, -0.713810
  0.878000, -0.696840
  0.880000, -0.684150
  0.882000, -0.661910
  0.884000, -0.647040
  0.886000, -0.626210
  0.888000, -0.609830
  0.890000, -0.588950
  0.892000, -0.570650
  0.894000, -0.549930
  0.896000, -0.522980
  0.898000, -0.493630
  0.900000, -0.469980
  0.902000, -0.441010
  0.904000, -0.411480
  0.906000, -0.380340
  0.908000, -0.355930
  0.910000, -0.337610
  0.912000, -0.319180
  0.914000, -0.294970
  0.916000, -0.274950
  0.918000, -0.252130
  0.920000, -0.219350
  0.922000, -0.180930
  0.924000, -0.146490
  0.926000, -0.114850
  0.928000, -0.086500
  0.930000, -0.063870
  0.932000, -0.043880
  0.934000, -0.044120
  0.936000, -0.035030
  0.938000, -0.040480
  0.940000, -0.046290
  0.942000, -0.044150
  0.944000, -0.035270
  0.946000, -0.017450
  0.948000,  0.001520
  0.950000,  0.026610
  0.952000,  0.051840
  0.954000,  0.075370
  0.956000,  0.099220
  0.958000,  0.118060
  0.960000,  0.132450
  0.962000,  0.138660
  0.964000,  0.146340
  0.966000,  0.148130
  0.968000,  0.152220
  0.970000,  0.157700
  0.972000,  0.153860
  0.974000,  0.154560
  0.976000,  0.161470
  0.978000,  0.171660
  0.980000,  0.182900
  0.982000,  0.200180
  0.984000,  0.214150
  0.986000,  0.225570
  0.988000,  0.226640
  0.990000,  0.224290
  0.992000,  0.212260
  0.994000,  0.210350
  0.996000,  0.203000
  0.998000,  0.195560
  1.000000,  0.201680
