# z (nm)   (kJ/mol)
  0.086000,266.137190
  0.088000,260.582270
  0.090000,257.791510
  0.092000,255.046550
  0.094000,252.323230
  0.096000,249.552310
  0.098000,246.809440
  0.100000,244.048800
  0.102000,241.292570
  0.104000,238.481930
  0.106000,235.610930
  0.108000,232.674570
  0.110000,229.656270
  0.112000,226.536930
  0.114000,223.294960
  0.116000,219.919450
  0.118000,216.391370
  0.120000,212.692530
  0.122000,208.805450
  0.124000,204.727230
  0.126000,200.443810
  0.128000,195.977230
  0.130000,191.344820
  0.132000,186.583720
  0.134000,181.755270
  0.136000,176.920340
  0.138000,172.150770
  0.140000,167.502910
  0.142000,163.008820
  0.144000,158.662090
  0.146000,154.428670
  0.148000,150.258370
  0.150000,146.108870
  0.152000,141.957160
  0.154000,137.826420
  0.156000,133.755530
  0.158000,129.808790
  0.160000,126.023160
  0.162000,122.418570
  0.164000,118.970900
  0.166000,115.629390
  0.168000,112.340870
  0.170000,109.049130
  0.172000,105.730090
  0.174000,102.378010
  0.176000, 99.001660
  0.178000, 95.622540
  0.180000, 92.268870
  0.182000, 88.949990
  0.184000, 85.687450
  0.186000, 82.484150
  0.188000, 79.352050
  0.190000, 76.285900
  0.192000, 73.286540
  0.194000, 70.350850
  0.196000, 67.470010
  0.198000, 64.649290
  0.200000, 61.878630
  0.202000, 59.150940
  0.204000, 56.464320
  0.206000, 53.816410
  0.208000, 51.210690
  0.210000, 48.643320
  0.212000, 46.112900
  0.214000, 43.619560
  0.216000, 41.161710
  0.218000, 38.741130
  0.220000, 36.362480
  0.222000, 34.030950
  0.224000, 31.751340
  0.226000, 29.539750
  0.228000, 27.384680
  0.230000, 25.305710
  0.232000, 23.295740
  0.234000, 21.347620
  0.236000, 19.438540
  0.238000, 17.567450
  0.240000, 15.717000
  0.242000, 13.887310
  0.244000, 12.084790
  0.246000, 10.319400
  0.248000,  8.603800
  0.250000,  6.963630
  0.252000,  5.406670
  0.254000,  3.926760
  0.256000,  2.521960
  0.258000,  1.168310
  0.260000, -0.142370
  0.262000, -1.422610
  0.264000, -2.680050
  0.266000, -3.911820
  0.268000, -5.113490
  0.270000, -6.283730
  0.272000, -7.393660
  0.274000, -8.458480
  0.276000, -9.470600
  0.278000,-10.421950
  0.280000,-11.325980
  0.282000,-12.183990
  0.284000,-12.995470
  0.286000,-13.757210
  0.288000,-14.465880
  0.290000,-15.120580
  0.292000,-15.712620
  0.294000,-16.255710
  0.296000,-16.742480
  0.298000,-17.201390
  0.300000,-17.638060
  0.302000,-18.048530
  0.304000,-18.464990
  0.306000,-18.871880
  0.308000,-19.262200
  0.310000,-19.614770
  0.312000,-19.918570
  0.314000,-20.142900
  0.316000,-20.289520
  0.318000,-20.361210
  0.320000,-20.360170
  0.322000,-20.332610
  0.324000,-20.302470
  0.326000,-20.282980
  0.328000,-20.283300
  0.330000,-20.311540
  0.332000,-20.343940
  0.334000,-20.352870
  0.336000,-20.313880
  0.338000,-20.216170
  0.340000,-20.052440
  0.342000,-19.825490
  0.344000,-19.548310
  0.346000,-19.241690
  0.348000,-18.917960
  0.350000,-18.588620
  0.352000,-18.273950
  0.354000,-17.970640
  0.356000,-17.683810
  0.358000,-17.410490
  0.360000,-17.141200
  0.362000,-16.865910
  0.364000,-16.568510
  0.366000,-16.271540
  0.368000,-15.960570
  0.370000,-15.637960
  0.372000,-15.307860
  0.374000,-14.978430
  0.376000,-14.656930
  0.378000,-14.334550
  0.380000,-14.031280
  0.382000,-13.727100
  0.384000,-13.437570
  0.386000,-13.167830
  0.388000,-12.912540
  0.390000,-12.676320
  0.392000,-12.458010
  0.394000,-12.250340
  0.396000,-12.038990
  0.398000,-11.822060
  0.400000,-11.605400
  0.402000,-11.394190
  0.404000,-11.187570
  0.406000,-11.001310
  0.408000,-10.832140
  0.410000,-10.672990
  0.412000,-10.540790
  0.414000,-10.402460
  0.416000,-10.268600
  0.418000,-10.143410
  0.420000,-10.024110
  0.422000, -9.911530
  0.424000, -9.800400
  0.426000, -9.698940
  0.428000, -9.612240
  0.430000, -9.529830
  0.432000, -9.455990
  0.434000, -9.377980
  0.436000, -9.307750
  0.438000, -9.237250
  0.440000, -9.167970
  0.442000, -9.105330
  0.444000, -9.045720
  0.446000, -8.987700
  0.448000, -8.921340
  0.450000, -8.858070
  0.452000, -8.793860
  0.454000, -8.718110
  0.456000, -8.628140
  0.458000, -8.536520
  0.460000, -8.440300
  0.462000, -8.349310
  0.464000, -8.254770
  0.466000, -8.170710
  0.468000, -8.097700
  0.470000, -8.028470
  0.472000, -7.977600
  0.474000, -7.937750
  0.476000, -7.894000
  0.478000, -7.849880
  0.480000, -7.789780
  0.482000, -7.716870
  0.484000, -7.624710
  0.486000, -7.508900
  0.488000, -7.374650
  0.490000, -7.212360
  0.492000, -7.035940
  0.494000, -6.850970
  0.496000, -6.671400
  0.498000, -6.508360
  0.500000, -6.371870
  0.502000, -6.255640
  0.504000, -6.166440
  0.506000, -6.090200
  0.508000, -6.019580
  0.510000, -5.945030
  0.512000, -5.855100
  0.514000, -5.736200
  0.516000, -5.596400
  0.518000, -5.426240
  0.520000, -5.239850
  0.522000, -5.048730
  0.524000, -4.859820
  0.526000, -4.687010
  0.528000, -4.535410
  0.530000, -4.407310
  0.532000, -4.299610
  0.534000, -4.203950
  0.536000, -4.126810
  0.538000, -4.052490
  0.540000, -3.974620
  0.542000, -3.896930
  0.544000, -3.811470
  0.546000, -3.709980
  0.548000, -3.611800
  0.550000, -3.505960
  0.552000, -3.396090
  0.554000, -3.290390
  0.556000, -3.178900
  0.558000, -3.086360
  0.560000, -3.004970
  0.562000, -2.943610
  0.564000, -2.893570
  0.566000, -2.853790
  0.568000, -2.822200
  0.570000, -2.793330
  0.572000, -2.761490
  0.574000, -2.718990
  0.576000, -2.664370
  0.578000, -2.602920
  0.580000, -2.535410
  0.582000, -2.470200
  0.584000, -2.411790
  0.586000, -2.368260
  0.588000, -2.337130
  0.590000, -2.325180
  0.592000, -2.323510
  0.594000, -2.320600
  0.596000, -2.316070
  0.598000, -2.291840
  0.600000, -2.250230
  0.602000, -2.196000
  0.604000, -2.132210
  0.606000, -2.059190
  0.608000, -1.980650
  0.610000, -1.912250
  0.612000, -1.857540
  0.614000, -1.802000
  0.616000, -1.752820
  0.618000, -1.703110
  0.620000, -1.650600
  0.622000, -1.600450
  0.624000, -1.534730
  0.626000, -1.457100
  0.628000, -1.371300
  0.630000, -1.273210
  0.632000, -1.173980
  0.634000, -1.075210
  0.636000, -0.975710
  0.638000, -0.883510
  0.640000, -0.805450
  0.642000, -0.724500
  0.644000, -0.659500
  0.646000, -0.615340
  0.648000, -0.574750
  0.650000, -0.529230
  0.652000, -0.494540
  0.654000, -0.463980
  0.656000, -0.435780
  0.658000, -0.396180
  0.660000, -0.346800
  0.662000, -0.284070
  0.664000, -0.213160
  0.666000, -0.137110
  0.668000, -0.053400
  0.670000,  0.022250
  0.672000,  0.093220
  0.674000,  0.151380
  0.676000,  0.188830
  0.678000,  0.210580
  0.680000,  0.214170
  0.682000,  0.196370
  0.684000,  0.172720
  0.686000,  0.133570
  0.688000,  0.091690
  0.690000,  0.051820
  0.692000,  0.017130
  0.694000, -0.009410
  0.696000, -0.019990
  0.698000, -0.018910
  0.700000, -0.008620
  0.702000,  0.011060
  0.704000,  0.025560
  0.706000,  0.039970
  0.708000,  0.046810
  0.710000,  0.040460
  0.712000,  0.022070
  0.714000, -0.012800
  0.716000, -0.053160
  0.718000, -0.110370
  0.720000, -0.169850
  0.722000, -0.233580
  0.724000, -0.295820
  0.726000, -0.338460
  0.728000, -0.374930
  0.730000, -0.402540
  0.732000, -0.413340
  0.734000, -0.416160
  0.736000, -0.411750
  0.738000, -0.404820
  0.740000, -0.401890
  0.742000, -0.401430
  0.744000, -0.409010
  0.746000, -0.420380
  0.748000, -0.438330
  0.750000, -0.460930
  0.752000, -0.488240
  0.754000, -0.515230
  0.756000, -0.538650
  0.758000, -0.572960
  0.760000, -0.596980
  0.762000, -0.620320
  0.764000, -0.641790
  0.766000, -0.652830
  0.768000, -0.677000
  0.770000, -0.705300
  0.772000, -0.737560
  0.774000, -0.765590
  0.776000, -0.801820
  0.778000, -0.829290
  0.780000, -0.857840
  0.782000, -0.877910
  0.784000, -0.882130
  0.786000, -0.880010
  0.788000, -0.870460
  0.790000, -0.853690
  0.792000, -0.840670
  0.794000, -0.831510
  0.796000, -0.820980
  0.798000, -0.819360
  0.800000, -0.822320
  0.802000, -0.830890
  0.804000, -0.853030
  0.806000, -0.865830
  0.808000, -0.881080
  0.810000, -0.887920
  0.812000, -0.889740
  0.814000, -0.870540
  0.816000, -0.849750
  0.818000, -0.815000
  0.820000, -0.767920
  0.822000, -0.712990
  0.824000, -0.653720
  0.826000, -0.606630
  0.828000, -0.561410
  0.830000, -0.514980
  0.832000, -0.480130
  0.834000, -0.449080
  0.836000, -0.422990
  0.838000, -0.408510
  0.840000, -0.401820
  0.842000, -0.408600
  0.844000, -0.416850
  0.846000, -0.430880
  0.848000, -0.451530
  0.850000, -0.469540
  0.852000, -0.480410
  0.854000, -0.483000
  0.856000, -0.479680
  0.858000, -0.455040
  0.860000, -0.427390
  0.862000, -0.389810
  0.864000, -0.347120
  0.866000, -0.305620
  0.868000, -0.270490
  0.870000, -0.239090
  0.872000, -0.213910
  0.874000, -0.197850
  0.876000, -0.191640
  0.878000, -0.189030
  0.880000, -0.188260
  0.882000, -0.192260
  0.884000, -0.189440
  0.886000, -0.188110
  0.888000, -0.184990
  0.890000, -0.177010
  0.892000, -0.169640
  0.894000, -0.157140
  0.896000, -0.140260
  0.898000, -0.119920
  0.900000, -0.101480
  0.902000, -0.085480
  0.904000, -0.070240
  0.906000, -0.055270
  0.908000, -0.046930
  0.910000, -0.043580
  0.912000, -0.041530
  0.914000, -0.049030
  0.916000, -0.056790
  0.918000, -0.057480
  0.920000, -0.060020
  0.922000, -0.057580
  0.924000, -0.052210
  0.926000, -0.044600
  0.928000, -0.026330
  0.930000, -0.012420
  0.932000,  0.002400
  0.934000,  0.019070
  0.936000,  0.029770
  0.938000,  0.038150
  0.940000,  0.042480
  0.942000,  0.038860
  0.944000,  0.036830
  0.946000,  0.036670
  0.948000,  0.045110
  0.950000,  0.053170
  0.952000,  0.071220
  0.954000,  0.082910
  0.956000,  0.100340
  0.958000,  0.116920
  0.960000,  0.133750
  0.962000,  0.142090
  0.964000,  0.143170
  0.966000,  0.140840
  0.968000,  0.125000
  0.970000,  0.103450
  0.972000,  0.078090
  0.974000,  0.050940
  0.976000,  0.029290
  0.978000,  0.001700
  0.980000, -0.023210
  0.982000, -0.041980
  0.984000, -0.050110
  0.986000, -0.064660
  0.988000, -0.074920
  0.990000, -0.095400
  0.992000, -0.105030
  0.994000, -0.108960
  0.996000, -0.110970
  0.998000, -0.116250
  1.000000, -0.111250
