# z (nm)   (kJ/mol)
  0.098000,278.388210
  0.100000,275.345550
  0.102000,272.528470
  0.104000,269.688970
  0.106000,266.960890
  0.108000,264.234830
  0.110000,261.537920
  0.112000,258.771710
  0.114000,255.963740
  0.116000,253.132290
  0.118000,250.240930
  0.120000,247.293550
  0.122000,244.276160
  0.124000,241.182780
  0.126000,238.003500
  0.128000,234.740090
  0.130000,231.381910
  0.132000,227.927070
  0.134000,224.370670
  0.136000,220.713400
  0.138000,216.957070
  0.140000,213.099200
  0.142000,209.152180
  0.144000,205.120030
  0.146000,201.016200
  0.148000,196.855890
  0.150000,192.658970
  0.152000,188.449380
  0.154000,184.247710
  0.156000,180.085140
  0.158000,175.980200
  0.160000,171.949560
  0.162000,168.004140
  0.164000,164.149720
  0.166000,160.378720
  0.168000,156.673040
  0.170000,153.024750
  0.172000,149.417370
  0.174000,145.835000
  0.176000,142.275650
  0.178000,138.746610
  0.180000,135.257230
  0.182000,131.835030
  0.184000,128.488540
  0.186000,125.226560
  0.188000,122.051090
  0.190000,118.936510
  0.192000,115.859360
  0.194000,112.788280
  0.196000,109.720300
  0.198000,106.661820
  0.200000,103.631190
  0.202000,100.644830
  0.204000, 97.714500
  0.206000, 94.831530
  0.208000, 91.994970
  0.210000, 89.187730
  0.212000, 86.424760
  0.214000, 83.699920
  0.216000, 81.017760
  0.218000, 78.379910
  0.220000, 75.778620
  0.222000, 73.208900
  0.224000, 70.667430
  0.226000, 68.148020
  0.228000, 65.650490
  0.230000, 63.191020
  0.232000, 60.778150
  0.234000, 58.422270
  0.236000, 56.136660
  0.238000, 53.928020
  0.240000, 51.790020
  0.242000, 49.710660
  0.244000, 47.684040
  0.246000, 45.699350
  0.248000, 43.737260
  0.250000, 41.790590
  0.252000, 39.857490
  0.254000, 37.935450
  0.256000, 36.033380
  0.258000, 34.185250
  0.260000, 32.394960
  0.262000, 30.684400
  0.264000, 29.053590
  0.266000, 27.478250
  0.268000, 25.961820
  0.270000, 24.466200
  0.272000, 22.986990
  0.274000, 21.528370
  0.276000, 20.090400
  0.278000, 18.682090
  0.280000, 17.307490
  0.282000, 15.982110
  0.284000, 14.711190
  0.286000, 13.469560
  0.288000, 12.275330
  0.290000, 11.117810
  0.292000,  9.981850
  0.294000,  8.884800
  0.296000,  7.824500
  0.298000,  6.799990
  0.300000,  5.822320
  0.302000,  4.893860
  0.304000,  4.021570
  0.306000,  3.194460
  0.308000,  2.417630
  0.310000,  1.681650
  0.312000,  0.989730
  0.314000,  0.326290
  0.316000, -0.321060
  0.318000, -0.955680
  0.320000, -1.573650
  0.322000, -2.171870
  0.324000, -2.752440
  0.326000, -3.299080
  0.328000, -3.817910
  0.330000, -4.302780
  0.332000, -4.739880
  0.334000, -5.133640
  0.336000, -5.484620
  0.338000, -5.801540
  0.340000, -6.083410
  0.342000, -6.340550
  0.344000, -6.574940
  0.346000, -6.801280
  0.348000, -7.013290
  0.350000, -7.212610
  0.352000, -7.408170
  0.354000, -7.582690
  0.356000, -7.747140
  0.358000, -7.898580
  0.360000, -8.033390
  0.362000, -8.150360
  0.364000, -8.246700
  0.366000, -8.323970
  0.368000, -8.383880
  0.370000, -8.429390
  0.372000, -8.453060
  0.374000, -8.472950
  0.376000, -8.481720
  0.378000, -8.479000
  0.380000, -8.469680
  0.382000, -8.454950
  0.384000, -8.431500
  0.386000, -8.391810
  0.388000, -8.341020
  0.390000, -8.284420
  0.392000, -8.215230
  0.394000, -8.136060
  0.396000, -8.050320
  0.398000, -7.952320
  0.400000, -7.848860
  0.402000, -7.743420
  0.404000, -7.629180
  0.406000, -7.521940
  0.408000, -7.406260
  0.410000, -7.287580
  0.412000, -7.168190
  0.414000, -7.052760
  0.416000, -6.935250
  0.418000, -6.818840
  0.420000, -6.702230
  0.422000, -6.588240
  0.424000, -6.471870
  0.426000, -6.352220
  0.428000, -6.240150
  0.430000, -6.126140
  0.432000, -6.015670
  0.434000, -5.898070
  0.436000, -5.782990
  0.438000, -5.670420
  0.440000, -5.553230
  0.442000, -5.443730
  0.444000, -5.333150
  0.446000, -5.219180
  0.448000, -5.104150
  0.450000, -4.996190
  0.452000, -4.885820
  0.454000, -4.783410
  0.456000, -4.679150
  0.458000, -4.574860
  0.460000, -4.470090
  0.462000, -4.358400
  0.464000, -4.249310
  0.466000, -4.127040
  0.468000, -3.995950
  0.470000, -3.847840
  0.472000, -3.692840
  0.474000, -3.518520
  0.476000, -3.334820
  0.478000, -3.137520
  0.480000, -2.933190
  0.482000, -2.725200
  0.484000, -2.517200
  0.486000, -2.312760
  0.488000, -2.110450
  0.490000, -1.916990
  0.492000, -1.740240
  0.494000, -1.576170
  0.496000, -1.417990
  0.498000, -1.265330
  0.500000, -1.111410
  0.502000, -0.960560
  0.504000, -0.810600
  0.506000, -0.651630
  0.508000, -0.486330
  0.510000, -0.311810
  0.512000, -0.131350
  0.514000,  0.057070
  0.516000,  0.248390
  0.518000,  0.437670
  0.520000,  0.630290
  0.522000,  0.818030
  0.524000,  0.994780
  0.526000,  1.158740
  0.528000,  1.317660
  0.530000,  1.455800
  0.532000,  1.589460
  0.534000,  1.705310
  0.536000,  1.810350
  0.538000,  1.913730
  0.540000,  2.013870
  0.542000,  2.111780
  0.544000,  2.207260
  0.546000,  2.304420
  0.548000,  2.405880
  0.550000,  2.515740
  0.552000,  2.620380
  0.554000,  2.725070
  0.556000,  2.833460
  0.558000,  2.948700
  0.560000,  3.061280
  0.562000,  3.167610
  0.564000,  3.272430
  0.566000,  3.377150
  0.568000,  3.475840
  0.570000,  3.568230
  0.572000,  3.647470
  0.574000,  3.716660
  0.576000,  3.773960
  0.578000,  3.821580
  0.580000,  3.850430
  0.582000,  3.871630
  0.584000,  3.886440
  0.586000,  3.887320
  0.588000,  3.884120
  0.590000,  3.871260
  0.592000,  3.857850
  0.594000,  3.840500
  0.596000,  3.820870
  0.598000,  3.804860
  0.600000,  3.783890
  0.602000,  3.759590
  0.604000,  3.736640
  0.606000,  3.695420
  0.608000,  3.658090
  0.610000,  3.613400
  0.612000,  3.558830
  0.614000,  3.499770
  0.616000,  3.430170
  0.618000,  3.356730
  0.620000,  3.281370
  0.622000,  3.206130
  0.624000,  3.134650
  0.626000,  3.054320
  0.628000,  2.977040
  0.630000,  2.892010
  0.632000,  2.798300
  0.634000,  2.699880
  0.636000,  2.594120
  0.638000,  2.477920
  0.640000,  2.361140
  0.642000,  2.231770
  0.644000,  2.100980
  0.646000,  1.969870
  0.648000,  1.845980
  0.650000,  1.726430
  0.652000,  1.613590
  0.654000,  1.510190
  0.656000,  1.412540
  0.658000,  1.315960
  0.660000,  1.223510
  0.662000,  1.134990
  0.664000,  1.046020
  0.666000,  0.948630
  0.668000,  0.859980
  0.670000,  0.760750
  0.672000,  0.662510
  0.674000,  0.564590
  0.676000,  0.470990
  0.678000,  0.379670
  0.680000,  0.290670
  0.682000,  0.201500
  0.684000,  0.120130
  0.686000,  0.038450
  0.688000, -0.030990
  0.690000, -0.096300
  0.692000, -0.161190
  0.694000, -0.220730
  0.696000, -0.274240
  0.698000, -0.327140
  0.700000, -0.378090
  0.702000, -0.422530
  0.704000, -0.473790
  0.706000, -0.518730
  0.708000, -0.555830
  0.710000, -0.591280
  0.712000, -0.618610
  0.714000, -0.638900
  0.716000, -0.657850
  0.718000, -0.670460
  0.720000, -0.678800
  0.722000, -0.679510
  0.724000, -0.679580
  0.726000, -0.679610
  0.728000, -0.681720
  0.730000, -0.677670
  0.732000, -0.673870
  0.734000, -0.675210
  0.736000, -0.676770
  0.738000, -0.674570
  0.740000, -0.683190
  0.742000, -0.679640
  0.744000, -0.680400
  0.746000, -0.678350
  0.748000, -0.676540
  0.750000, -0.671560
  0.752000, -0.663020
  0.754000, -0.653610
  0.756000, -0.644670
  0.758000, -0.636880
  0.760000, -0.630610
  0.762000, -0.621150
  0.764000, -0.612560
  0.766000, -0.604040
  0.768000, -0.595410
  0.770000, -0.591550
  0.772000, -0.584850
  0.774000, -0.573460
  0.776000, -0.558770
  0.778000, -0.547910
  0.780000, -0.528000
  0.782000, -0.510060
  0.784000, -0.490060
  0.786000, -0.470000
  0.788000, -0.448510
  0.790000, -0.427780
  0.792000, -0.398410
  0.794000, -0.374210
  0.796000, -0.351040
  0.798000, -0.321830
  0.800000, -0.288740
  0.802000, -0.254860
  0.804000, -0.219440
  0.806000, -0.191010
  0.808000, -0.151770
  0.810000, -0.110950
  0.812000, -0.070030
  0.814000, -0.032820
  0.816000,  0.010760
  0.818000,  0.046390
  0.820000,  0.076160
  0.822000,  0.102950
  0.824000,  0.131550
  0.826000,  0.150810
  0.828000,  0.172090
  0.830000,  0.191580
  0.832000,  0.203040
  0.834000,  0.216810
  0.836000,  0.228650
  0.838000,  0.245200
  0.840000,  0.256090
  0.842000,  0.268290
  0.844000,  0.281620
  0.846000,  0.297630
  0.848000,  0.314380
  0.850000,  0.339270
  0.852000,  0.362520
  0.854000,  0.379320
  0.856000,  0.400030
  0.858000,  0.420480
  0.860000,  0.448110
  0.862000,  0.476170
  0.864000,  0.508050
  0.866000,  0.535700
  0.868000,  0.560030
  0.870000,  0.587930
  0.872000,  0.605910
  0.874000,  0.618920
  0.876000,  0.628020
  0.878000,  0.627240
  0.880000,  0.622800
  0.882000,  0.615560
  0.884000,  0.598230
  0.886000,  0.576100
  0.888000,  0.554960
  0.890000,  0.531360
  0.892000,  0.509900
  0.894000,  0.489700
  0.896000,  0.478800
  0.898000,  0.464010
  0.900000,  0.445850
  0.902000,  0.433050
  0.904000,  0.411730
  0.906000,  0.397980
  0.908000,  0.382270
  0.910000,  0.367850
  0.912000,  0.354300
  0.914000,  0.336870
  0.916000,  0.329550
  0.918000,  0.320040
  0.920000,  0.308000
  0.922000,  0.300060
  0.924000,  0.292440
  0.926000,  0.281490
  0.928000,  0.270750
  0.930000,  0.257340
  0.932000,  0.239780
  0.934000,  0.219170
  0.936000,  0.190790
  0.938000,  0.158820
  0.940000,  0.130710
  0.942000,  0.093730
  0.944000,  0.060750
  0.946000,  0.025220
  0.948000, -0.009000
  0.950000, -0.038590
  0.952000, -0.061880
  0.954000, -0.085430
  0.956000, -0.107480
  0.958000, -0.126420
  0.960000, -0.137940
  0.962000, -0.154870
  0.964000, -0.166920
  0.966000, -0.177720
  0.968000, -0.190770
  0.970000, -0.202710
  0.972000, -0.215600
  0.974000, -0.228440
  0.976000, -0.238920
  0.978000, -0.250010
  0.980000, -0.262800
  0.982000, -0.278090
  0.984000, -0.295540
  0.986000, -0.311370
  0.988000, -0.320960
  0.990000, -0.332610
  0.992000, -0.352460
  0.994000, -0.373850
  0.996000, -0.395470
  0.998000, -0.413600
  1.000000, -0.433210
