# z (nm)   (kJ/mol)
  0.0720  270.25232
  0.0740  266.66150
  0.0760  263.43679
  0.0780  260.43040
  0.0800  257.46374
  0.0820  254.62437
  0.0840  251.71973
  0.0860  248.87513
  0.0880  245.98681
  0.0900  243.03304
  0.0920  240.00601
  0.0940  236.89169
  0.0960  233.66908
  0.0980  230.32337
  0.1000  226.85169
  0.1020  223.23722
  0.1040  219.47135
  0.1060  215.55671
  0.1080  211.48941
  0.1100  207.27610
  0.1120  202.93208
  0.1140  198.47495
  0.1160  193.92633
  0.1180  189.31464
  0.1200  184.67474
  0.1220  180.05841
  0.1240  175.50144
  0.1260  171.05226
  0.1280  166.73886
  0.1300  162.57680
  0.1320  158.56125
  0.1340  154.69168
  0.1360  150.95349
  0.1380  147.33725
  0.1400  143.83129
  0.1420  140.41232
  0.1440  137.06747
  0.1460  133.76771
  0.1480  130.48542
  0.1500  127.18814
  0.1520  123.86400
  0.1540  120.50703
  0.1560  117.12746
  0.1580  113.74368
  0.1600  110.38737
  0.1620  107.08378
  0.1640  103.84848
  0.1660  100.69841
  0.1680   97.63200
  0.1700   94.64299
  0.1720   91.72223
  0.1740   88.84839
  0.1760   86.01950
  0.1780   83.21701
  0.1800   80.44009
  0.1820   77.68818
  0.1840   74.97816
  0.1860   72.31111
  0.1880   69.69641
  0.1900   67.14737
  0.1920   64.65299
  0.1940   62.20280
  0.1960   59.77968
  0.1980   57.37584
  0.2000   54.99479
  0.2020   52.65270
  0.2040   50.35678
  0.2060   48.12572
  0.2080   45.97789
  0.2100   43.90605
  0.2120   41.91070
  0.2140   39.97492
  0.2160   38.08392
  0.2180   36.22745
  0.2200   34.39101
  0.2220   32.59047
  0.2240   30.81766
  0.2260   29.08057
  0.2280   27.37558
  0.2300   25.70852
  0.2320   24.08664
  0.2340   22.51646
  0.2360   21.00677
  0.2380   19.55468
  0.2400   18.16585
  0.2420   16.83830
  0.2440   15.55740
  0.2460   14.32871
  0.2480   13.13196
  0.2500   11.97549
  0.2520   10.85082
  0.2540    9.76929
  0.2560    8.74237
  0.2580    7.76256
  0.2600    6.83616
  0.2620    5.96225
  0.2640    5.13005
  0.2660    4.33218
  0.2680    3.56044
  0.2700    2.80820
  0.2720    2.06642
  0.2740    1.34882
  0.2760    0.66116
  0.2780    0.01311
  0.2800   -0.58595
  0.2820   -1.12981
  0.2840   -1.61367
  0.2860   -2.04459
  0.2880   -2.45450
  0.2900   -2.83010
  0.2920   -3.19193
  0.2940   -3.54917
  0.2960   -3.89671
  0.2980   -4.23887
  0.3000   -4.57635
  0.3020   -4.88565
  0.3040   -5.15676
  0.3060   -5.38951
  0.3080   -5.58808
  0.3100   -5.76448
  0.3120   -5.92530
  0.3140   -6.08288
  0.3160   -6.24710
  0.3180   -6.39864
  0.3200   -6.55478
  0.3220   -6.71361
  0.3240   -6.86540
  0.3260   -7.02811
  0.3280   -7.19785
  0.3300   -7.35722
  0.3320   -7.51502
  0.3340   -7.66114
  0.3360   -7.79146
  0.3380   -7.90828
  0.3400   -7.99998
  0.3420   -8.07265
  0.3440   -8.14540
  0.3460   -8.20558
  0.3480   -8.26627
  0.3500   -8.33015
  0.3520   -8.39465
  0.3540   -8.45806
  0.3560   -8.51789
  0.3580   -8.58290
  0.3600   -8.63603
  0.3620   -8.68894
  0.3640   -8.73306
  0.3660   -8.75889
  0.3680   -8.77314
  0.3700   -8.77810
  0.3720   -8.77833
  0.3740   -8.75511
  0.3760   -8.72232
  0.3780   -8.67184
  0.3800   -8.60739
  0.3820   -8.54015
  0.3840   -8.46367
  0.3860   -8.38048
  0.3880   -8.29802
  0.3900   -8.21185
  0.3920   -8.12914
  0.3940   -8.03741
  0.3960   -7.94844
  0.3980   -7.85758
  0.4000   -7.74996
  0.4020   -7.62549
  0.4040   -7.49266
  0.4060   -7.34682
  0.4080   -7.19203
  0.4100   -7.03925
  0.4120   -6.88975
  0.4140   -6.75132
  0.4160   -6.62475
  0.4180   -6.50258
  0.4200   -6.38701
  0.4220   -6.27684
  0.4240   -6.16947
  0.4260   -6.06667
  0.4280   -5.95282
  0.4300   -5.82659
  0.4320   -5.70411
  0.4340   -5.57577
  0.4360   -5.45385
  0.4380   -5.33099
  0.4400   -5.22181
  0.4420   -5.12244
  0.4440   -5.03142
  0.4460   -4.94962
  0.4480   -4.87522
  0.4500   -4.80562
  0.4520   -4.73127
  0.4540   -4.66200
  0.4560   -4.58635
  0.4580   -4.50828
  0.4600   -4.42360
  0.4620   -4.33348
  0.4640   -4.24017
  0.4660   -4.13882
  0.4680   -4.02955
  0.4700   -3.92101
  0.4720   -3.81068
  0.4740   -3.69676
  0.4760   -3.58943
  0.4780   -3.47927
  0.4800   -3.38463
  0.4820   -3.29562
  0.4840   -3.21611
  0.4860   -3.13572
  0.4880   -3.06284
  0.4900   -2.99372
  0.4920   -2.92190
  0.4940   -2.84389
  0.4960   -2.76835
  0.4980   -2.68089
  0.5000   -2.59562
  0.5020   -2.50029
  0.5040   -2.39338
  0.5060   -2.28298
  0.5080   -2.16138
  0.5100   -2.03730
  0.5120   -1.91744
  0.5140   -1.79531
  0.5160   -1.67736
  0.5180   -1.56062
  0.5200   -1.44988
  0.5220   -1.34956
  0.5240   -1.25273
  0.5260   -1.16962
  0.5280   -1.08896
  0.5300   -1.00713
  0.5320   -0.92295
  0.5340   -0.83864
  0.5360   -0.75027
  0.5380   -0.64388
  0.5400   -0.53330
  0.5420   -0.41678
  0.5440   -0.28878
  0.5460   -0.16672
  0.5480   -0.03502
  0.5500    0.09299
  0.5520    0.21946
  0.5540    0.35301
  0.5560    0.49466
  0.5580    0.63360
  0.5600    0.77609
  0.5620    0.92016
  0.5640    1.06000
  0.5660    1.20118
  0.5680    1.33425
  0.5700    1.45567
  0.5720    1.56509
  0.5740    1.66584
  0.5760    1.75548
  0.5780    1.83491
  0.5800    1.90688
  0.5820    1.97690
  0.5840    2.03549
  0.5860    2.10304
  0.5880    2.16680
  0.5900    2.22463
  0.5920    2.26741
  0.5940    2.31228
  0.5960    2.34469
  0.5980    2.36558
  0.6000    2.37670
  0.6020    2.37456
  0.6040    2.35316
  0.6060    2.33171
  0.6080    2.29135
  0.6100    2.23347
  0.6120    2.16210
  0.6140    2.09012
  0.6160    2.01150
  0.6180    1.93383
  0.6200    1.85573
  0.6220    1.77799
  0.6240    1.70265
  0.6260    1.63373
  0.6280    1.56417
  0.6300    1.49320
  0.6320    1.42684
  0.6340    1.36403
  0.6360    1.29879
  0.6380    1.23617
  0.6400    1.17353
  0.6420    1.11114
  0.6440    1.04408
  0.6460    0.97668
  0.6480    0.90274
  0.6500    0.83508
  0.6520    0.75991
  0.6540    0.68130
  0.6560    0.59881
  0.6580    0.51504
  0.6600    0.42326
  0.6620    0.33324
  0.6640    0.24879
  0.6660    0.16983
  0.6680    0.10005
  0.6700    0.04191
  0.6720   -0.00077
  0.6740   -0.03784
  0.6760   -0.06068
  0.6780   -0.08309
  0.6800   -0.10085
  0.6820   -0.12032
  0.6840   -0.14405
  0.6860   -0.17330
  0.6880   -0.21071
  0.6900   -0.24696
  0.6920   -0.28903
  0.6940   -0.33654
  0.6960   -0.37870
  0.6980   -0.43091
  0.7000   -0.47923
  0.7020   -0.52464
  0.7040   -0.56420
  0.7060   -0.58800
  0.7080   -0.60317
  0.7100   -0.60823
  0.7120   -0.59723
  0.7140   -0.57960
  0.7160   -0.55304
  0.7180   -0.51160
  0.7200   -0.47238
  0.7220   -0.43860
  0.7240   -0.41503
  0.7260   -0.40549
  0.7280   -0.41824
  0.7300   -0.44132
  0.7320   -0.48091
  0.7340   -0.52808
  0.7360   -0.57398
  0.7380   -0.60949
  0.7400   -0.62707
  0.7420   -0.62232
  0.7440   -0.59219
  0.7460   -0.54623
  0.7480   -0.48761
  0.7500   -0.42963
  0.7520   -0.39008
  0.7540   -0.36028
  0.7560   -0.34715
  0.7580   -0.34853
  0.7600   -0.35337
  0.7620   -0.36486
  0.7640   -0.36919
  0.7660   -0.36497
  0.7680   -0.34985
  0.7700   -0.32272
  0.7720   -0.28744
  0.7740   -0.24041
  0.7760   -0.17981
  0.7780   -0.11426
  0.7800   -0.05519
  0.7820    0.00454
  0.7840    0.05404
  0.7860    0.08797
  0.7880    0.10854
  0.7900    0.12280
  0.7920    0.11767
  0.7940    0.10770
  0.7960    0.09133
  0.7980    0.08180
  0.8000    0.07657
  0.8020    0.08136
  0.8040    0.09597
  0.8060    0.11908
  0.8080    0.14340
  0.8100    0.17297
  0.8120    0.20968
  0.8140    0.24229
  0.8160    0.27209
  0.8180    0.30452
  0.8200    0.32416
  0.8220    0.33585
  0.8240    0.33174
  0.8260    0.32297
  0.8280    0.30936
  0.8300    0.29766
  0.8320    0.27704
  0.8340    0.26565
  0.8360    0.26949
  0.8380    0.28946
  0.8400    0.31643
  0.8420    0.34665
  0.8440    0.38222
  0.8460    0.41034
  0.8480    0.43210
  0.8500    0.43888
  0.8520    0.43638
  0.8540    0.42425
  0.8560    0.40266
  0.8580    0.38265
  0.8600    0.36951
  0.8620    0.36050
  0.8640    0.36187
  0.8660    0.36090
  0.8680    0.36785
  0.8700    0.37606
  0.8720    0.38671
  0.8740    0.39518
  0.8760    0.39596
  0.8780    0.39837
  0.8800    0.39746
  0.8820    0.39742
  0.8840    0.39609
  0.8860    0.39545
  0.8880    0.40042
  0.8900    0.40909
  0.8920    0.42323
  0.8940    0.43498
  0.8960    0.44761
  0.8980    0.46204
  0.9000    0.46907
  0.9020    0.46958
  0.9040    0.45907
  0.9060    0.43835
  0.9080    0.40653
  0.9100    0.36560
  0.9120    0.31587
  0.9140    0.26591
  0.9160    0.21134
  0.9180    0.16447
  0.9200    0.12820
  0.9220    0.09779
  0.9240    0.08052
  0.9260    0.07714
  0.9280    0.08172
  0.9300    0.09511
  0.9320    0.11097
  0.9340    0.12793
  0.9360    0.13959
  0.9380    0.14657
  0.9400    0.13913
  0.9420    0.12412
  0.9440    0.10185
  0.9460    0.06374
  0.9480    0.00784
  0.9500   -0.04815
  0.9520   -0.10653
  0.9540   -0.15998
  0.9560   -0.20462
  0.9580   -0.23490
  0.9600   -0.24120
  0.9620   -0.23323
  0.9640   -0.21444
  0.9660   -0.17792
  0.9680   -0.13302
  0.9700   -0.09241
  0.9720   -0.05777
  0.9740   -0.03541
  0.9760   -0.02690
  0.9780   -0.03105
  0.9800   -0.05752
  0.9820   -0.09381
  0.9840   -0.13108
  0.9860   -0.17567
  0.9880   -0.22253
  0.9900   -0.26023
  0.9920   -0.29714
  0.9940   -0.32040
  0.9960   -0.34342
  0.9980   -0.35380
  1.0000   -0.36582
