# z (nm)   (kJ/mol)
  0.3770   15.36150
  0.3790   14.93360
  0.3810   14.45070
  0.3830   14.03730
  0.3850   13.64650
  0.3870   13.21630
  0.3890   12.78050
  0.3910   12.33170
  0.3930   11.86860
  0.3950   11.41500
  0.3970   10.96600
  0.3990   10.51370
  0.4010   10.06400
  0.4030    9.62120
  0.4050    9.18080
  0.4070    8.74550
  0.4090    8.32410
  0.4110    7.91310
  0.4130    7.51180
  0.4150    7.12390
  0.4170    6.74260
  0.4190    6.37120
  0.4210    6.01740
  0.4230    5.67670
  0.4250    5.34750
  0.4270    5.02870
  0.4290    4.72170
  0.4310    4.43090
  0.4330    4.15500
  0.4350    3.89280
  0.4370    3.64040
  0.4390    3.39990
  0.4410    3.17370
  0.4430    2.95810
  0.4450    2.75340
  0.4470    2.56180
  0.4490    2.38150
  0.4510    2.21120
  0.4530    2.05140
  0.4550    1.90290
  0.4570    1.76430
  0.4590    1.63520
  0.4610    1.51630
  0.4630    1.40680
  0.4650    1.30670
  0.4670    1.21530
  0.4690    1.13230
  0.4710    1.05750
  0.4730    0.99050
  0.4750    0.93030
  0.4770    0.87670
  0.4790    0.82990
  0.4810    0.78950
  0.4830    0.75520
  0.4850    0.72680
  0.4870    0.70280
  0.4890    0.68200
  0.4910    0.66500
  0.4930    0.65160
  0.4950    0.64260
  0.4970    0.63550
  0.4990    0.62950
  0.5010    0.62600
  0.5030    0.62360
  0.5050    0.62240
  0.5070    0.62250
  0.5090    0.62360
  0.5110    0.62350
  0.5130    0.62260
  0.5150    0.62180
  0.5170    0.61970
  0.5190    0.61570
  0.5210    0.60950
  0.5230    0.60080
  0.5250    0.59020
  0.5270    0.57800
  0.5290    0.56350
  0.5310    0.54660
  0.5330    0.52670
  0.5350    0.50440
  0.5370    0.48020
  0.5390    0.45350
  0.5410    0.42430
  0.5430    0.39270
  0.5450    0.35900
  0.5470    0.32330
  0.5490    0.28570
  0.5510    0.24630
  0.5530    0.20530
  0.5550    0.16290
  0.5570    0.11910
  0.5590    0.07390
  0.5610    0.02780
  0.5630   -0.01890
  0.5650   -0.06560
  0.5670   -0.11220
  0.5690   -0.15890
  0.5710   -0.20550
  0.5730   -0.25170
  0.5750   -0.29720
  0.5770   -0.34210
  0.5790   -0.38630
  0.5810   -0.42910
  0.5830   -0.47040
  0.5850   -0.51030
  0.5870   -0.54860
  0.5890   -0.58530
  0.5910   -0.62020
  0.5930   -0.65310
  0.5950   -0.68400
  0.5970   -0.71280
  0.5990   -0.73930
  0.6010   -0.76350
  0.6030   -0.78560
  0.6050   -0.80550
  0.6070   -0.82320
  0.6090   -0.83840
  0.6110   -0.85140
  0.6130   -0.86220
  0.6150   -0.87090
  0.6170   -0.87730
  0.6190   -0.88150
  0.6210   -0.88350
  0.6230   -0.88350
  0.6250   -0.88140
  0.6270   -0.87730
  0.6290   -0.87160
  0.6310   -0.86390
  0.6330   -0.85430
  0.6350   -0.84290
  0.6370   -0.82990
  0.6390   -0.81560
  0.6410   -0.80000
  0.6430   -0.78310
  0.6450   -0.76500
  0.6470   -0.74560
  0.6490   -0.72520
  0.6510   -0.70400
  0.6530   -0.68210
  0.6550   -0.65950
  0.6570   -0.63640
  0.6590   -0.61260
  0.6610   -0.58840
  0.6630   -0.56380
  0.6650   -0.53900
  0.6670   -0.51430
  0.6690   -0.48960
  0.6710   -0.46490
  0.6730   -0.44030
  0.6750   -0.41600
  0.6770   -0.39210
  0.6790   -0.36850
  0.6810   -0.34550
  0.6830   -0.32300
  0.6850   -0.30110
  0.6870   -0.27960
  0.6890   -0.25880
  0.6910   -0.23880
  0.6930   -0.21950
  0.6950   -0.20100
  0.6970   -0.18350
  0.6990   -0.16670
  0.7010   -0.15090
  0.7030   -0.13610
  0.7050   -0.12230
  0.7070   -0.10940
  0.7090   -0.09750
  0.7110   -0.08660
  0.7130   -0.07680
  0.7150   -0.06800
  0.7170   -0.06010
  0.7190   -0.05320
  0.7210   -0.04730
  0.7230   -0.04250
  0.7250   -0.03850
  0.7270   -0.03540
  0.7290   -0.03320
  0.7310   -0.03200
  0.7330   -0.03160
  0.7350   -0.03200
  0.7370   -0.03330
  0.7390   -0.03520
  0.7410   -0.03780
  0.7430   -0.04120
  0.7450   -0.04510
  0.7470   -0.04970
  0.7490   -0.05460
  0.7510   -0.06020
  0.7530   -0.06610
  0.7550   -0.07240
  0.7570   -0.07900
  0.7590   -0.08600
  0.7610   -0.09320
  0.7630   -0.10050
  0.7650   -0.10790
  0.7670   -0.11560
  0.7690   -0.12330
  0.7710   -0.13110
  0.7730   -0.13880
  0.7750   -0.14650
  0.7770   -0.15400
  0.7790   -0.16130
  0.7810   -0.16850
  0.7830   -0.17550
  0.7850   -0.18230
  0.7870   -0.18890
  0.7890   -0.19500
  0.7910   -0.20090
  0.7930   -0.20650
  0.7950   -0.21160
  0.7970   -0.21640
  0.7990   -0.22080
  0.8010   -0.22480
  0.8030   -0.22840
  0.8050   -0.23160
  0.8070   -0.23430
  0.8090   -0.23650
  0.8110   -0.23840
  0.8130   -0.23980
  0.8150   -0.24080
  0.8170   -0.24140
  0.8190   -0.24140
  0.8210   -0.24100
  0.8230   -0.24010
  0.8250   -0.23890
  0.8270   -0.23740
  0.8290   -0.23540
  0.8310   -0.23290
  0.8330   -0.23000
  0.8350   -0.22680
  0.8370   -0.22320
  0.8390   -0.21940
  0.8410   -0.21520
  0.8430   -0.21080
  0.8450   -0.20610
  0.8470   -0.20120
  0.8490   -0.19610
  0.8510   -0.19070
  0.8530   -0.18520
  0.8550   -0.17960
  0.8570   -0.17370
  0.8590   -0.16770
  0.8610   -0.16160
  0.8630   -0.15550
  0.8650   -0.14930
  0.8670   -0.14300
  0.8690   -0.13670
  0.8710   -0.13030
  0.8730   -0.12400
  0.8750   -0.11760
  0.8770   -0.11130
  0.8790   -0.10520
  0.8810   -0.09920
  0.8830   -0.09310
  0.8850   -0.08710
  0.8870   -0.08120
  0.8890   -0.07540
  0.8910   -0.06980
  0.8930   -0.06420
  0.8950   -0.05890
  0.8970   -0.05370
  0.8990   -0.04870
  0.9010   -0.04390
  0.9030   -0.03920
  0.9050   -0.03480
  0.9070   -0.03060
  0.9090   -0.02660
  0.9110   -0.02280
  0.9130   -0.01920
  0.9150   -0.01600
  0.9170   -0.01290
  0.9190   -0.01000
  0.9210   -0.00740
  0.9230   -0.00500
  0.9250   -0.00290
  0.9270   -0.00100
  0.9290    0.00070
  0.9310    0.00210
  0.9330    0.00330
  0.9350    0.00430
  0.9370    0.00510
  0.9390    0.00560
  0.9410    0.00590
  0.9430    0.00600
  0.9450    0.00590
  0.9470    0.00560
  0.9490    0.00510
  0.9510    0.00430
  0.9530    0.00340
  0.9550    0.00240
  0.9570    0.00110
  0.9590   -0.00030
  0.9610   -0.00180
  0.9630   -0.00350
  0.9650   -0.00530
  0.9670   -0.00710
  0.9690   -0.00890
  0.9710   -0.01080
  0.9730   -0.01280
  0.9750   -0.01480
  0.9770   -0.01690
  0.9790   -0.01920
  0.9810   -0.02150
  0.9830   -0.02360
  0.9850   -0.02590
  0.9870   -0.02820
  0.9890   -0.03040
  0.9910   -0.03250
  0.9930   -0.03470
  0.9950   -0.03680
  0.9970   -0.03880
  0.9990   -0.04070
  1.0010   -0.04250
  1.0030   -0.04420
  1.0050   -0.04580
  1.0070   -0.04740
  1.0090   -0.04880
  1.0110   -0.05010
  1.0130   -0.05120
  1.0150   -0.05210
  1.0170   -0.05300
  1.0190   -0.05380
  1.0210   -0.05450
  1.0230   -0.05500
  1.0250   -0.05540
  1.0270   -0.05590
  1.0290   -0.05610
  1.0310   -0.05620
  1.0330   -0.05620
  1.0350   -0.05610
  1.0370   -0.05580
  1.0390   -0.05550
  1.0410   -0.05510
  1.0430   -0.05460
  1.0450   -0.05400
  1.0470   -0.05340
  1.0490   -0.05270
  1.0510   -0.05200
  1.0530   -0.05120
  1.0550   -0.05020
  1.0570   -0.04930
  1.0590   -0.04840
  1.0610   -0.04740
  1.0630   -0.04640
  1.0650   -0.04530
  1.0670   -0.04420
  1.0690   -0.04300
  1.0710   -0.04190
  1.0730   -0.04090
  1.0750   -0.03980
  1.0770   -0.03870
  1.0790   -0.03760
  1.0810   -0.03640
  1.0830   -0.03530
  1.0850   -0.03430
  1.0870   -0.03330
  1.0890   -0.03230
  1.0910   -0.03130
  1.0930   -0.03040
  1.0950   -0.02960
  1.0970   -0.02880
  1.0990   -0.02800
  1.1010   -0.02730
  1.1030   -0.02680
  1.1050   -0.02630
  1.1070   -0.02580
  1.1090   -0.02550
  1.1110   -0.02520
  1.1130   -0.02500
  1.1150   -0.02480
  1.1170   -0.02480
  1.1190   -0.02500
  1.1210   -0.02520
  1.1230   -0.02560
  1.1250   -0.02590
  1.1270   -0.02650
  1.1290   -0.02700
  1.1310   -0.02770
  1.1330   -0.02850
  1.1350   -0.02950
  1.1370   -0.03050
  1.1390   -0.03160
  1.1410   -0.03270
  1.1430   -0.03390
  1.1450   -0.03530
  1.1470   -0.03680
  1.1490   -0.03830
  1.1510   -0.03990
  1.1530   -0.04150
  1.1550   -0.04320
  1.1570   -0.04490
  1.1590   -0.04670
  1.1610   -0.04860
  1.1630   -0.05050
  1.1650   -0.05240
  1.1670   -0.05430
  1.1690   -0.05620
  1.1710   -0.05810
  1.1730   -0.05990
  1.1750   -0.06170
  1.1770   -0.06350
  1.1790   -0.06510
  1.1810   -0.06670
  1.1830   -0.06820
  1.1850   -0.06960
  1.1870   -0.07090
  1.1890   -0.07200
  1.1910   -0.07300
  1.1930   -0.07390
  1.1950   -0.07470
  1.1970   -0.07520
  1.1990   -0.07560
  1.2010   -0.07590
  1.2030   -0.07590
  1.2050   -0.07580
  1.2070   -0.07550
  1.2090   -0.07510
  1.2110   -0.07440
  1.2130   -0.07360
  1.2150   -0.07260
  1.2170   -0.07140
  1.2190   -0.07000
  1.2210   -0.06850
  1.2230   -0.06690
  1.2250   -0.06520
  1.2270   -0.06320
  1.2290   -0.06120
  1.2310   -0.05900
  1.2330   -0.05680
  1.2350   -0.05450
  1.2370   -0.05210
  1.2390   -0.04960
  1.2410   -0.04700
  1.2430   -0.04440
  1.2450   -0.04180
  1.2470   -0.03920
  1.2490   -0.03650
  1.2510   -0.03380
  1.2530   -0.03120
  1.2550   -0.02860
  1.2570   -0.02610
  1.2590   -0.02370
  1.2610   -0.02130
  1.2630   -0.01890
  1.2650   -0.01670
  1.2670   -0.01450
  1.2690   -0.01240
  1.2710   -0.01050
  1.2730   -0.00870
  1.2750   -0.00710
  1.2770   -0.00550
  1.2790   -0.00410
  1.2810   -0.00280
  1.2830   -0.00160
  1.2850   -0.00050
  1.2870    0.00030
  1.2890    0.00100
  1.2910    0.00170
  1.2930    0.00220
  1.2950    0.00270
  1.2970    0.00310
  1.2990    0.00340
  1.3010    0.00350
  1.3030    0.00360
  1.3050    0.00370
  1.3070    0.00370
  1.3090    0.00370
  1.3110    0.00370
  1.3130    0.00370
  1.3150    0.00360
  1.3170    0.00360
  1.3190    0.00350
  1.3210    0.00360
  1.3230    0.00370
  1.3250    0.00370
  1.3270    0.00370
  1.3290    0.00400
  1.3310    0.00450
  1.3330    0.00520
  1.3350    0.00610
  1.3370    0.00700
  1.3390    0.00810
  1.3410    0.00950
  1.3430    0.01120
  1.3450    0.01300
  1.3470    0.01490
  1.3490    0.01700
  1.3510    0.01940
  1.3530    0.02210
  1.3550    0.02510
  1.3570    0.02830
  1.3590    0.03160
  1.3610    0.03510
  1.3630    0.03890
  1.3650    0.04300
  1.3670    0.04740
  1.3690    0.05200
  1.3710    0.05680
  1.3730    0.06180
  1.3750    0.06690
  1.3770    0.07210
  1.3790    0.07740
  1.3810    0.08300
  1.3830    0.08870
  1.3850    0.09430
  1.3870    0.09980
  1.3890    0.10530
  1.3910    0.11060
  1.3930    0.11590
  1.3950    0.12090
  1.3970    0.12550
  1.3990    0.12970
