# z (nm)   (kJ/mol)
  0.249000,  8.035000
  0.251000,  7.472100
  0.253000,  6.827500
  0.255000,  6.174000
  0.257000,  5.527100
  0.259000,  4.859500
  0.261000,  4.201500
  0.263000,  3.555100
  0.265000,  2.918200
  0.267000,  2.279500
  0.269000,  1.615300
  0.271000,  0.939700
  0.273000,  0.262100
  0.275000, -0.410400
  0.277000, -1.079100
  0.279000, -1.747200
  0.281000, -2.400700
  0.283000, -3.050500
  0.285000, -3.697100
  0.287000, -4.330100
  0.289000, -4.950600
  0.291000, -5.561300
  0.293000, -6.160800
  0.295000, -6.746200
  0.297000, -7.318100
  0.299000, -7.871000
  0.301000, -8.407000
  0.303000, -8.929900
  0.305000, -9.434800
  0.307000, -9.918700
  0.309000,-10.380700
  0.311000,-10.822500
  0.313000,-11.247400
  0.315000,-11.654600
  0.317000,-12.039800
  0.319000,-12.401900
  0.321000,-12.742000
  0.323000,-13.061000
  0.325000,-13.357600
  0.327000,-13.631900
  0.329000,-13.885500
  0.331000,-14.116700
  0.333000,-14.324200
  0.335000,-14.507900
  0.337000,-14.669100
  0.339000,-14.808400
  0.341000,-14.925300
  0.343000,-15.020800
  0.345000,-15.094700
  0.347000,-15.146100
  0.349000,-15.177300
  0.351000,-15.188500
  0.353000,-15.178400
  0.355000,-15.149400
  0.357000,-15.102400
  0.359000,-15.037400
  0.361000,-14.956200
  0.363000,-14.859000
  0.365000,-14.746400
  0.367000,-14.620600
  0.369000,-14.480200
  0.371000,-14.325700
  0.373000,-14.160000
  0.375000,-13.983800
  0.377000,-13.799600
  0.379000,-13.610400
  0.381000,-13.411300
  0.383000,-13.203700
  0.385000,-12.992000
  0.387000,-12.776300
  0.389000,-12.557500
  0.391000,-12.336200
  0.393000,-12.114200
  0.395000,-11.892400
  0.397000,-11.670700
  0.399000,-11.448700
  0.401000,-11.227200
  0.403000,-11.008600
  0.405000,-10.793400
  0.407000,-10.580700
  0.409000,-10.371600
  0.411000,-10.166700
  0.413000, -9.966300
  0.415000, -9.770400
  0.417000, -9.579200
  0.419000, -9.393000
  0.421000, -9.212000
  0.423000, -9.036300
  0.425000, -8.865900
  0.427000, -8.700500
  0.429000, -8.540000
  0.431000, -8.384100
  0.433000, -8.232700
  0.435000, -8.085400
  0.437000, -7.942200
  0.439000, -7.802900
  0.441000, -7.667500
  0.443000, -7.535700
  0.445000, -7.406100
  0.447000, -7.278600
  0.449000, -7.152700
  0.451000, -7.028100
  0.453000, -6.905700
  0.455000, -6.784800
  0.457000, -6.664000
  0.459000, -6.543400
  0.461000, -6.422900
  0.463000, -6.302900
  0.465000, -6.182200
  0.467000, -6.060900
  0.469000, -5.938600
  0.471000, -5.814600
  0.473000, -5.689100
  0.475000, -5.562000
  0.477000, -5.432900
  0.479000, -5.302000
  0.481000, -5.169000
  0.483000, -5.033600
  0.485000, -4.895600
  0.487000, -4.755000
  0.489000, -4.612200
  0.491000, -4.467100
  0.493000, -4.319500
  0.495000, -4.170100
  0.497000, -4.018700
  0.499000, -3.865200
  0.501000, -3.709500
  0.503000, -3.552200
  0.505000, -3.393300
  0.507000, -3.233200
  0.509000, -3.072100
  0.511000, -2.909900
  0.513000, -2.748300
  0.515000, -2.586700
  0.517000, -2.424200
  0.519000, -2.262100
  0.521000, -2.100300
  0.523000, -1.939800
  0.525000, -1.781800
  0.527000, -1.625000
  0.529000, -1.469600
  0.531000, -1.316200
  0.533000, -1.164900
  0.535000, -1.015600
  0.537000, -0.870000
  0.539000, -0.729000
  0.541000, -0.592200
  0.543000, -0.459500
  0.545000, -0.331300
  0.547000, -0.208800
  0.549000, -0.091200
  0.551000,  0.021400
  0.553000,  0.127700
  0.555000,  0.228300
  0.557000,  0.323200
  0.559000,  0.411700
  0.561000,  0.493500
  0.563000,  0.568500
  0.565000,  0.637000
  0.567000,  0.699300
  0.569000,  0.755300
  0.571000,  0.804300
  0.573000,  0.846100
  0.575000,  0.881000
  0.577000,  0.909600
  0.579000,  0.931700
  0.581000,  0.947200
  0.583000,  0.956100
  0.585000,  0.958800
  0.587000,  0.956000
  0.589000,  0.947200
  0.591000,  0.932600
  0.593000,  0.912400
  0.595000,  0.886900
  0.597000,  0.856800
  0.599000,  0.821800
  0.601000,  0.782300
  0.603000,  0.738600
  0.605000,  0.690300
  0.607000,  0.638100
  0.609000,  0.582300
  0.611000,  0.523000
  0.613000,  0.461800
  0.615000,  0.398100
  0.617000,  0.331400
  0.619000,  0.262500
  0.621000,  0.191800
  0.623000,  0.120400
  0.625000,  0.047400
  0.627000, -0.027800
  0.629000, -0.103300
  0.631000, -0.178500
  0.633000, -0.254600
  0.635000, -0.330800
  0.637000, -0.406200
  0.639000, -0.481500
  0.641000, -0.556300
  0.643000, -0.630100
  0.645000, -0.703000
  0.647000, -0.774300
  0.649000, -0.844400
  0.651000, -0.913200
  0.653000, -0.980100
  0.655000, -1.044800
  0.657000, -1.107000
  0.659000, -1.167300
  0.661000, -1.225500
  0.663000, -1.281700
  0.665000, -1.335300
  0.667000, -1.386200
  0.669000, -1.434800
  0.671000, -1.480900
  0.673000, -1.524500
  0.675000, -1.565400
  0.677000, -1.603300
  0.679000, -1.638500
  0.681000, -1.670800
  0.683000, -1.700400
  0.685000, -1.727200
  0.687000, -1.751300
  0.689000, -1.772600
  0.691000, -1.791200
  0.693000, -1.807000
  0.695000, -1.820200
  0.697000, -1.830800
  0.699000, -1.838800
  0.701000, -1.844200
  0.703000, -1.847200
  0.705000, -1.847800
  0.707000, -1.846100
  0.709000, -1.842300
  0.711000, -1.836400
  0.713000, -1.828300
  0.715000, -1.818000
  0.717000, -1.805700
  0.719000, -1.791300
  0.721000, -1.775400
  0.723000, -1.758000
  0.725000, -1.739000
  0.727000, -1.718300
  0.729000, -1.696100
  0.731000, -1.672600
  0.733000, -1.647600
  0.735000, -1.621600
  0.737000, -1.594600
  0.739000, -1.566500
  0.741000, -1.537300
  0.743000, -1.507200
  0.745000, -1.476300
  0.747000, -1.444500
  0.749000, -1.412200
  0.751000, -1.379500
  0.753000, -1.346100
  0.755000, -1.311900
  0.757000, -1.277200
  0.759000, -1.242100
  0.761000, -1.206700
  0.763000, -1.170900
  0.765000, -1.134800
  0.767000, -1.098500
  0.769000, -1.061900
  0.771000, -1.025200
  0.773000, -0.988600
  0.775000, -0.952000
  0.777000, -0.915300
  0.779000, -0.878800
  0.781000, -0.842300
  0.783000, -0.805800
  0.785000, -0.769600
  0.787000, -0.733500
  0.789000, -0.697500
  0.791000, -0.661900
  0.793000, -0.626700
  0.795000, -0.591700
  0.797000, -0.556800
  0.799000, -0.522400
  0.801000, -0.488400
  0.803000, -0.454800
  0.805000, -0.421800
  0.807000, -0.389200
  0.809000, -0.357100
  0.811000, -0.325700
  0.813000, -0.294800
  0.815000, -0.264400
  0.817000, -0.234800
  0.819000, -0.205600
  0.821000, -0.177200
  0.823000, -0.149400
  0.825000, -0.122300
  0.827000, -0.095900
  0.829000, -0.070600
  0.831000, -0.046000
  0.833000, -0.022400
  0.835000,  0.000300
  0.837000,  0.022200
  0.839000,  0.043400
  0.841000,  0.063600
  0.843000,  0.082700
  0.845000,  0.100900
  0.847000,  0.118000
  0.849000,  0.134300
  0.851000,  0.149800
  0.853000,  0.164200
  0.855000,  0.177400
  0.857000,  0.189700
  0.859000,  0.201200
  0.861000,  0.211500
  0.863000,  0.220700
  0.865000,  0.229100
  0.867000,  0.236400
  0.869000,  0.242700
  0.871000,  0.248300
  0.873000,  0.252800
  0.875000,  0.256300
  0.877000,  0.258900
  0.879000,  0.260600
  0.881000,  0.261300
  0.883000,  0.261100
  0.885000,  0.260200
  0.887000,  0.258500
  0.889000,  0.255900
  0.891000,  0.252700
  0.893000,  0.248700
  0.895000,  0.243900
  0.897000,  0.238400
  0.899000,  0.232300
  0.901000,  0.225500
  0.903000,  0.218000
  0.905000,  0.210000
  0.907000,  0.201600
  0.909000,  0.192700
  0.911000,  0.183200
  0.913000,  0.173300
  0.915000,  0.163000
  0.917000,  0.152400
  0.919000,  0.141400
  0.921000,  0.130000
  0.923000,  0.118400
  0.925000,  0.106600
  0.927000,  0.094700
  0.929000,  0.082500
  0.931000,  0.070200
  0.933000,  0.057700
  0.935000,  0.045200
  0.937000,  0.032600
  0.939000,  0.020000
  0.941000,  0.007400
  0.943000, -0.005300
  0.945000, -0.018000
  0.947000, -0.030500
  0.949000, -0.043000
  0.951000, -0.055300
  0.953000, -0.067500
  0.955000, -0.079500
  0.957000, -0.091400
  0.959000, -0.103000
  0.961000, -0.114400
  0.963000, -0.125700
  0.965000, -0.136800
  0.967000, -0.147500
  0.969000, -0.157800
  0.971000, -0.167900
  0.973000, -0.177800
  0.975000, -0.187500
  0.977000, -0.196900
  0.979000, -0.206000
  0.981000, -0.214800
  0.983000, -0.223300
  0.985000, -0.231400
  0.987000, -0.239100
  0.989000, -0.246300
  0.991000, -0.253300
  0.993000, -0.259900
  0.995000, -0.266300
  0.997000, -0.272300
  0.999000, -0.277800
  1.001000, -0.283100
  1.003000, -0.287900
  1.005000, -0.292200
  1.007000, -0.296100
  1.009000, -0.299700
  1.011000, -0.303100
  1.013000, -0.306000
  1.015000, -0.308500
  1.017000, -0.310500
  1.019000, -0.312200
  1.021000, -0.313500
  1.023000, -0.314500
  1.025000, -0.315000
  1.027000, -0.315100
  1.029000, -0.314900
  1.031000, -0.314200
  1.033000, -0.313200
  1.035000, -0.311900
  1.037000, -0.310200
  1.039000, -0.308200
  1.041000, -0.305900
  1.043000, -0.303300
  1.045000, -0.300500
  1.047000, -0.297300
  1.049000, -0.293800
  1.051000, -0.290000
  1.053000, -0.286000
  1.055000, -0.281700
  1.057000, -0.277100
  1.059000, -0.272400
  1.061000, -0.267500
  1.063000, -0.262300
  1.065000, -0.257000
  1.067000, -0.251400
  1.069000, -0.245600
  1.071000, -0.239500
  1.073000, -0.233400
  1.075000, -0.227100
  1.077000, -0.220600
  1.079000, -0.214000
  1.081000, -0.207300
  1.083000, -0.200500
  1.085000, -0.193700
  1.087000, -0.186800
  1.089000, -0.179900
  1.091000, -0.172800
  1.093000, -0.165800
  1.095000, -0.158700
  1.097000, -0.151700
  1.099000, -0.144700
  1.101000, -0.137600
  1.103000, -0.130500
  1.105000, -0.123600
  1.107000, -0.116600
  1.109000, -0.109700
  1.111000, -0.102900
  1.113000, -0.096000
  1.115000, -0.089300
  1.117000, -0.082700
  1.119000, -0.076100
  1.121000, -0.069700
  1.123000, -0.063400
  1.125000, -0.057200
  1.127000, -0.051000
  1.129000, -0.045000
  1.131000, -0.039100
  1.133000, -0.033400
  1.135000, -0.027800
  1.137000, -0.022400
  1.139000, -0.017200
  1.141000, -0.012100
  1.143000, -0.007100
  1.145000, -0.002300
  1.147000,  0.002500
  1.149000,  0.007000
  1.151000,  0.011300
  1.153000,  0.015400
  1.155000,  0.019300
  1.157000,  0.023200
  1.159000,  0.027000
  1.161000,  0.030500
  1.163000,  0.033800
  1.165000,  0.036900
  1.167000,  0.039700
  1.169000,  0.042400
  1.171000,  0.044900
  1.173000,  0.047200
  1.175000,  0.049300
  1.177000,  0.051400
  1.179000,  0.053200
  1.181000,  0.054900
  1.183000,  0.056400
  1.185000,  0.057700
  1.187000,  0.058900
  1.189000,  0.059900
  1.191000,  0.060700
  1.193000,  0.061400
  1.195000,  0.061700
  1.197000,  0.062000
  1.199000,  0.062200
  1.201000,  0.062100
  1.203000,  0.062000
  1.205000,  0.061700
  1.207000,  0.061300
  1.209000,  0.060800
  1.211000,  0.060100
  1.213000,  0.059400
  1.215000,  0.058400
  1.217000,  0.057500
  1.219000,  0.056400
  1.221000,  0.055300
  1.223000,  0.054100
  1.225000,  0.052600
  1.227000,  0.051200
  1.229000,  0.049700
  1.231000,  0.048000
  1.233000,  0.046300
  1.235000,  0.044700
  1.237000,  0.042900
  1.239000,  0.041100
  1.241000,  0.039200
  1.243000,  0.037300
  1.245000,  0.035400
  1.247000,  0.033500
  1.249000,  0.031400
  1.251000,  0.029400
  1.253000,  0.027300
  1.255000,  0.025100
  1.257000,  0.022800
  1.259000,  0.020600
  1.261000,  0.018400
  1.263000,  0.016300
  1.265000,  0.014100
  1.267000,  0.011900
  1.269000,  0.009700
  1.271000,  0.007300
  1.273000,  0.004900
  1.275000,  0.002600
  1.277000,  0.000200
  1.279000, -0.002300
  1.281000, -0.004800
  1.283000, -0.007300
  1.285000, -0.009800
  1.287000, -0.012200
  1.289000, -0.014800
  1.291000, -0.017300
  1.293000, -0.019800
  1.295000, -0.022300
  1.297000, -0.024700
  1.299000, -0.027100
  1.301000, -0.029500
  1.303000, -0.031800
  1.305000, -0.034100
  1.307000, -0.036500
  1.309000, -0.038700
  1.311000, -0.040700
  1.313000, -0.042600
  1.315000, -0.044500
  1.317000, -0.046300
  1.319000, -0.048100
  1.321000, -0.049600
  1.323000, -0.051100
  1.325000, -0.052400
  1.327000, -0.053400
  1.329000, -0.054300
  1.331000, -0.055100
  1.333000, -0.055800
  1.335000, -0.056000
  1.337000, -0.056100
  1.339000, -0.056000
  1.341000, -0.055600
  1.343000, -0.054900
  1.345000, -0.053900
  1.347000, -0.052700
  1.349000, -0.051000
  1.351000, -0.049000
  1.353000, -0.046900
  1.355000, -0.044700
  1.357000, -0.042100
  1.359000, -0.039200
  1.361000, -0.036100
  1.363000, -0.032700
  1.365000, -0.029100
  1.367000, -0.025400
  1.369000, -0.021300
  1.371000, -0.017100
  1.373000, -0.012900
  1.375000, -0.008200
  1.377000, -0.003600
  1.379000,  0.001300
  1.381000,  0.006600
  1.383000,  0.011900
  1.385000,  0.017000
  1.387000,  0.022200
  1.389000,  0.027300
  1.391000,  0.032200
  1.393000,  0.036900
  1.395000,  0.041400
  1.397000,  0.045900
  1.399000,  0.050100
