# z (nm)   (kJ/mol)
  0.323000, 12.994000
  0.325000, 12.516100
  0.327000, 12.001600
  0.329000, 11.439300
  0.331000, 10.875600
  0.333000, 10.301800
  0.335000,  9.744000
  0.337000,  9.186200
  0.339000,  8.610700
  0.341000,  8.030000
  0.343000,  7.452900
  0.345000,  6.879200
  0.347000,  6.301100
  0.349000,  5.718300
  0.351000,  5.141700
  0.353000,  4.575300
  0.355000,  4.014500
  0.357000,  3.450400
  0.359000,  2.880900
  0.361000,  2.323900
  0.363000,  1.784500
  0.365000,  1.258400
  0.367000,  0.742200
  0.369000,  0.231900
  0.371000, -0.269600
  0.373000, -0.756200
  0.375000, -1.223900
  0.377000, -1.677800
  0.379000, -2.119200
  0.381000, -2.547800
  0.383000, -2.960000
  0.385000, -3.354000
  0.387000, -3.737300
  0.389000, -4.101000
  0.391000, -4.444200
  0.393000, -4.771100
  0.395000, -5.081100
  0.397000, -5.374200
  0.399000, -5.648900
  0.401000, -5.905800
  0.403000, -6.146100
  0.405000, -6.370900
  0.407000, -6.576900
  0.409000, -6.762800
  0.411000, -6.931000
  0.413000, -7.083000
  0.415000, -7.218000
  0.417000, -7.335300
  0.419000, -7.435500
  0.421000, -7.519100
  0.423000, -7.586400
  0.425000, -7.637400
  0.427000, -7.672100
  0.429000, -7.690900
  0.431000, -7.694400
  0.433000, -7.682500
  0.435000, -7.656100
  0.437000, -7.616600
  0.439000, -7.563200
  0.441000, -7.495200
  0.443000, -7.414200
  0.445000, -7.322100
  0.447000, -7.219600
  0.449000, -7.107900
  0.451000, -6.987600
  0.453000, -6.857300
  0.455000, -6.718900
  0.457000, -6.573600
  0.459000, -6.421200
  0.461000, -6.262300
  0.463000, -6.097000
  0.465000, -5.926800
  0.467000, -5.752600
  0.469000, -5.575200
  0.471000, -5.395800
  0.473000, -5.213500
  0.475000, -5.028000
  0.477000, -4.841300
  0.479000, -4.655300
  0.481000, -4.469300
  0.483000, -4.283800
  0.485000, -4.098500
  0.487000, -3.913900
  0.489000, -3.730500
  0.491000, -3.548400
  0.493000, -3.368100
  0.495000, -3.189700
  0.497000, -3.013500
  0.499000, -2.839700
  0.501000, -2.668200
  0.503000, -2.499700
  0.505000, -2.334200
  0.507000, -2.171400
  0.509000, -2.011500
  0.511000, -1.854500
  0.513000, -1.700200
  0.515000, -1.548400
  0.517000, -1.400000
  0.519000, -1.255000
  0.521000, -1.113000
  0.523000, -0.973200
  0.525000, -0.836300
  0.527000, -0.702500
  0.529000, -0.571500
  0.531000, -0.443300
  0.533000, -0.317900
  0.535000, -0.195500
  0.537000, -0.076000
  0.539000,  0.040700
  0.541000,  0.154600
  0.543000,  0.265700
  0.545000,  0.373700
  0.547000,  0.478500
  0.549000,  0.580500
  0.551000,  0.678700
  0.553000,  0.773200
  0.555000,  0.865100
  0.557000,  0.953800
  0.559000,  1.038900
  0.561000,  1.120300
  0.563000,  1.197700
  0.565000,  1.270900
  0.567000,  1.340200
  0.569000,  1.406000
  0.571000,  1.467100
  0.573000,  1.522900
  0.575000,  1.574500
  0.577000,  1.622200
  0.579000,  1.664700
  0.581000,  1.701500
  0.583000,  1.733700
  0.585000,  1.760800
  0.587000,  1.781500
  0.589000,  1.797100
  0.591000,  1.807200
  0.593000,  1.811000
  0.595000,  1.808900
  0.597000,  1.800900
  0.599000,  1.787000
  0.601000,  1.767100
  0.603000,  1.740900
  0.605000,  1.708500
  0.607000,  1.670100
  0.609000,  1.625600
  0.611000,  1.575000
  0.613000,  1.518100
  0.615000,  1.455400
  0.617000,  1.386800
  0.619000,  1.312100
  0.621000,  1.232200
  0.623000,  1.147300
  0.625000,  1.056800
  0.627000,  0.960900
  0.629000,  0.859900
  0.631000,  0.755100
  0.633000,  0.646000
  0.635000,  0.533200
  0.637000,  0.416800
  0.639000,  0.296100
  0.641000,  0.172300
  0.643000,  0.045700
  0.645000, -0.084400
  0.647000, -0.216400
  0.649000, -0.349700
  0.651000, -0.484600
  0.653000, -0.620400
  0.655000, -0.757700
  0.657000, -0.895900
  0.659000, -1.033000
  0.661000, -1.169500
  0.663000, -1.304700
  0.665000, -1.438800
  0.667000, -1.572500
  0.669000, -1.703500
  0.671000, -1.832400
  0.673000, -1.959700
  0.675000, -2.083500
  0.677000, -2.203900
  0.679000, -2.321200
  0.681000, -2.434900
  0.683000, -2.544700
  0.685000, -2.650200
  0.687000, -2.751400
  0.689000, -2.848100
  0.691000, -2.940300
  0.693000, -3.027600
  0.695000, -3.109500
  0.697000, -3.186700
  0.699000, -3.258800
  0.701000, -3.325200
  0.703000, -3.385800
  0.705000, -3.440700
  0.707000, -3.490100
  0.709000, -3.533700
  0.711000, -3.571500
  0.713000, -3.603500
  0.715000, -3.630000
  0.717000, -3.650800
  0.719000, -3.665800
  0.721000, -3.675500
  0.723000, -3.679500
  0.725000, -3.678000
  0.727000, -3.671200
  0.729000, -3.659000
  0.731000, -3.641700
  0.733000, -3.620100
  0.735000, -3.593700
  0.737000, -3.562300
  0.739000, -3.527100
  0.741000, -3.487800
  0.743000, -3.444100
  0.745000, -3.396500
  0.747000, -3.345400
  0.749000, -3.291200
  0.751000, -3.233500
  0.753000, -3.172500
  0.755000, -3.108300
  0.757000, -3.041700
  0.759000, -2.973300
  0.761000, -2.902600
  0.763000, -2.829800
  0.765000, -2.755300
  0.767000, -2.679300
  0.769000, -2.601700
  0.771000, -2.522600
  0.773000, -2.442400
  0.775000, -2.361400
  0.777000, -2.279800
  0.779000, -2.197700
  0.781000, -2.115300
  0.783000, -2.032500
  0.785000, -1.949500
  0.787000, -1.866600
  0.789000, -1.784000
  0.791000, -1.701500
  0.793000, -1.619500
  0.795000, -1.537900
  0.797000, -1.457100
  0.799000, -1.377300
  0.801000, -1.298400
  0.803000, -1.220500
  0.805000, -1.143700
  0.807000, -1.067900
  0.809000, -0.993100
  0.811000, -0.919600
  0.813000, -0.847300
  0.815000, -0.776300
  0.817000, -0.706900
  0.819000, -0.638800
  0.821000, -0.572300
  0.823000, -0.507400
  0.825000, -0.444300
  0.827000, -0.382500
  0.829000, -0.322200
  0.831000, -0.263700
  0.833000, -0.206900
  0.835000, -0.151500
  0.837000, -0.098100
  0.839000, -0.046400
  0.841000,  0.003800
  0.843000,  0.052100
  0.845000,  0.098600
  0.847000,  0.143400
  0.849000,  0.186400
  0.851000,  0.227500
  0.853000,  0.266800
  0.855000,  0.304200
  0.857000,  0.339800
  0.859000,  0.373900
  0.861000,  0.406100
  0.863000,  0.436600
  0.865000,  0.465400
  0.867000,  0.492300
  0.869000,  0.517500
  0.871000,  0.541000
  0.873000,  0.562700
  0.875000,  0.582500
  0.877000,  0.600500
  0.879000,  0.616800
  0.881000,  0.631400
  0.883000,  0.644200
  0.885000,  0.655200
  0.887000,  0.664700
  0.889000,  0.672500
  0.891000,  0.678700
  0.893000,  0.683300
  0.895000,  0.686100
  0.897000,  0.687400
  0.899000,  0.687200
  0.901000,  0.685500
  0.903000,  0.682300
  0.905000,  0.677700
  0.907000,  0.671600
  0.909000,  0.664100
  0.911000,  0.655200
  0.913000,  0.644800
  0.915000,  0.633100
  0.917000,  0.620200
  0.919000,  0.606100
  0.921000,  0.591000
  0.923000,  0.574700
  0.925000,  0.557300
  0.927000,  0.538900
  0.929000,  0.519500
  0.931000,  0.499200
  0.933000,  0.478100
  0.935000,  0.456000
  0.937000,  0.433300
  0.939000,  0.409700
  0.941000,  0.385400
  0.943000,  0.360600
  0.945000,  0.335300
  0.947000,  0.309400
  0.949000,  0.283100
  0.951000,  0.256300
  0.953000,  0.229200
  0.955000,  0.202000
  0.957000,  0.174600
  0.959000,  0.146900
  0.961000,  0.119200
  0.963000,  0.091400
  0.965000,  0.063700
  0.967000,  0.036200
  0.969000,  0.008900
  0.971000, -0.018500
  0.973000, -0.045500
  0.975000, -0.072100
  0.977000, -0.098500
  0.979000, -0.124400
  0.981000, -0.149800
  0.983000, -0.174700
  0.985000, -0.199100
  0.987000, -0.223000
  0.989000, -0.246200
  0.991000, -0.268700
  0.993000, -0.290500
  0.995000, -0.311600
  0.997000, -0.332100
  0.999000, -0.351700
  1.001000, -0.370500
  1.003000, -0.388600
  1.005000, -0.405700
  1.007000, -0.421900
  1.009000, -0.437000
  1.011000, -0.451300
  1.013000, -0.464800
  1.015000, -0.477200
  1.017000, -0.488700
  1.019000, -0.499300
  1.021000, -0.508800
  1.023000, -0.517500
  1.025000, -0.525400
  1.027000, -0.532100
  1.029000, -0.537900
  1.031000, -0.542600
  1.033000, -0.546400
  1.035000, -0.549400
  1.037000, -0.551400
  1.039000, -0.552600
  1.041000, -0.552700
  1.043000, -0.552000
  1.045000, -0.550500
  1.047000, -0.548200
  1.049000, -0.545100
  1.051000, -0.541300
  1.053000, -0.536600
  1.055000, -0.531000
  1.057000, -0.524900
  1.059000, -0.518200
  1.061000, -0.510800
  1.063000, -0.502700
  1.065000, -0.494100
  1.067000, -0.484900
  1.069000, -0.475100
  1.071000, -0.464800
  1.073000, -0.454100
  1.075000, -0.442800
  1.077000, -0.431100
  1.079000, -0.419100
  1.081000, -0.406800
  1.083000, -0.394200
  1.085000, -0.381300
  1.087000, -0.368300
  1.089000, -0.355000
  1.091000, -0.341400
  1.093000, -0.327700
  1.095000, -0.313900
  1.097000, -0.299800
  1.099000, -0.285800
  1.101000, -0.271800
  1.103000, -0.257700
  1.105000, -0.243700
  1.107000, -0.229700
  1.109000, -0.215800
  1.111000, -0.201900
  1.113000, -0.188200
  1.115000, -0.174600
  1.117000, -0.161300
  1.119000, -0.148100
  1.121000, -0.135100
  1.123000, -0.122400
  1.125000, -0.110000
  1.127000, -0.097800
  1.129000, -0.085700
  1.131000, -0.074000
  1.133000, -0.062900
  1.135000, -0.052000
  1.137000, -0.041100
  1.139000, -0.030700
  1.141000, -0.020800
  1.143000, -0.011300
  1.145000, -0.002000
  1.147000,  0.007000
  1.149000,  0.015600
  1.151000,  0.023900
  1.153000,  0.032000
  1.155000,  0.039600
  1.157000,  0.046600
  1.159000,  0.053300
  1.161000,  0.059700
  1.163000,  0.065800
  1.165000,  0.071300
  1.167000,  0.076500
  1.169000,  0.081200
  1.171000,  0.085600
  1.173000,  0.089600
  1.175000,  0.093300
  1.177000,  0.096600
  1.179000,  0.099700
  1.181000,  0.102500
  1.183000,  0.104800
  1.185000,  0.106700
  1.187000,  0.108100
  1.189000,  0.109200
  1.191000,  0.110100
  1.193000,  0.110700
  1.195000,  0.111100
  1.197000,  0.111100
  1.199000,  0.110900
  1.201000,  0.110500
  1.203000,  0.109800
  1.205000,  0.108900
  1.207000,  0.107700
  1.209000,  0.106200
  1.211000,  0.104400
  1.213000,  0.102400
  1.215000,  0.100400
  1.217000,  0.098200
  1.219000,  0.095800
  1.221000,  0.093300
  1.223000,  0.090600
  1.225000,  0.087800
  1.227000,  0.084800
  1.229000,  0.081800
  1.231000,  0.078600
  1.233000,  0.075400
  1.235000,  0.072000
  1.237000,  0.068500
  1.239000,  0.065000
  1.241000,  0.061400
  1.243000,  0.057900
  1.245000,  0.054300
  1.247000,  0.050500
  1.249000,  0.046700
  1.251000,  0.042900
  1.253000,  0.039200
  1.255000,  0.035500
  1.257000,  0.031700
  1.259000,  0.028000
  1.261000,  0.024200
  1.263000,  0.020500
  1.265000,  0.016800
  1.267000,  0.013100
  1.269000,  0.009200
  1.271000,  0.005400
  1.273000,  0.001600
  1.275000, -0.002200
  1.277000, -0.005900
  1.279000, -0.009600
  1.281000, -0.013200
  1.283000, -0.016800
  1.285000, -0.020500
  1.287000, -0.024000
  1.289000, -0.027600
  1.291000, -0.031100
  1.293000, -0.034600
  1.295000, -0.038100
  1.297000, -0.041600
  1.299000, -0.044900
  1.301000, -0.048200
  1.303000, -0.051300
  1.305000, -0.054400
  1.307000, -0.057500
  1.309000, -0.060400
  1.311000, -0.063100
  1.313000, -0.065800
  1.315000, -0.068400
  1.317000, -0.070700
  1.319000, -0.072900
  1.321000, -0.075000
  1.323000, -0.076900
  1.325000, -0.078600
  1.327000, -0.079900
  1.329000, -0.081000
  1.331000, -0.081700
  1.333000, -0.082200
  1.335000, -0.082500
  1.337000, -0.082400
  1.339000, -0.082100
  1.341000, -0.081500
  1.343000, -0.080400
  1.345000, -0.079000
  1.347000, -0.077300
  1.349000, -0.075200
  1.351000, -0.072900
  1.353000, -0.070000
  1.355000, -0.066800
  1.357000, -0.063400
  1.359000, -0.059500
  1.361000, -0.055100
  1.363000, -0.050500
  1.365000, -0.045700
  1.367000, -0.040400
  1.369000, -0.034700
  1.371000, -0.028900
  1.373000, -0.023100
  1.375000, -0.016500
  1.377000, -0.009500
  1.379000, -0.002600
  1.381000,  0.004500
  1.383000,  0.011400
  1.385000,  0.018300
  1.387000,  0.025500
  1.389000,  0.032600
  1.391000,  0.039700
  1.393000,  0.046500
  1.395000,  0.053000
  1.397000,  0.059500
  1.399000,  0.065400
