# z (nm)   (kJ/mol)
  0.275000, 19.955700
  0.285000, 19.264400
  0.287000, 19.039900
  0.291000, 18.506200
  0.293000, 18.238700
  0.295000, 17.964300
  0.297000, 17.678100
  0.299000, 17.379100
  0.301000, 17.081200
  0.303000, 16.776300
  0.305000, 16.451700
  0.307000, 16.124900
  0.309000, 15.801800
  0.311000, 15.468600
  0.313000, 15.117300
  0.315000, 14.771800
  0.317000, 14.425600
  0.319000, 14.065500
  0.321000, 13.696700
  0.323000, 13.328000
  0.325000, 12.952300
  0.327000, 12.570600
  0.329000, 12.190900
  0.331000, 11.803100
  0.333000, 11.407600
  0.335000, 11.009100
  0.337000, 10.608000
  0.339000, 10.199700
  0.341000,  9.787500
  0.343000,  9.373600
  0.345000,  8.957400
  0.347000,  8.541300
  0.349000,  8.118100
  0.351000,  7.685400
  0.353000,  7.256700
  0.355000,  6.834200
  0.357000,  6.407500
  0.359000,  5.979300
  0.361000,  5.554000
  0.363000,  5.127400
  0.365000,  4.699900
  0.367000,  4.271900
  0.369000,  3.844000
  0.371000,  3.421700
  0.373000,  2.999800
  0.375000,  2.581500
  0.377000,  2.169400
  0.379000,  1.757700
  0.381000,  1.348500
  0.383000,  0.944600
  0.385000,  0.546600
  0.387000,  0.150800
  0.389000, -0.236000
  0.391000, -0.610100
  0.393000, -0.976700
  0.395000, -1.338900
  0.397000, -1.695500
  0.399000, -2.044500
  0.401000, -2.383200
  0.403000, -2.709100
  0.405000, -3.023800
  0.407000, -3.325800
  0.409000, -3.614800
  0.411000, -3.892000
  0.413000, -4.158100
  0.415000, -4.411600
  0.417000, -4.650500
  0.419000, -4.876700
  0.421000, -5.088900
  0.423000, -5.285600
  0.425000, -5.467500
  0.427000, -5.634100
  0.429000, -5.785300
  0.431000, -5.920500
  0.433000, -6.040400
  0.435000, -6.145100
  0.437000, -6.234500
  0.439000, -6.308200
  0.441000, -6.365400
  0.443000, -6.407100
  0.445000, -6.433300
  0.447000, -6.443700
  0.449000, -6.439500
  0.451000, -6.421800
  0.453000, -6.390200
  0.455000, -6.343700
  0.457000, -6.284900
  0.459000, -6.213300
  0.461000, -6.128000
  0.463000, -6.032300
  0.465000, -5.924700
  0.467000, -5.804900
  0.469000, -5.675500
  0.471000, -5.536300
  0.473000, -5.389600
  0.475000, -5.238100
  0.477000, -5.079900
  0.479000, -4.913700
  0.481000, -4.741700
  0.483000, -4.564400
  0.485000, -4.383300
  0.487000, -4.201200
  0.489000, -4.018700
  0.491000, -3.835000
  0.493000, -3.650400
  0.495000, -3.465500
  0.497000, -3.281700
  0.499000, -3.101500
  0.501000, -2.923300
  0.503000, -2.747000
  0.505000, -2.575000
  0.507000, -2.407600
  0.509000, -2.246000
  0.511000, -2.091100
  0.513000, -1.942300
  0.515000, -1.798700
  0.517000, -1.661400
  0.519000, -1.531600
  0.521000, -1.409100
  0.523000, -1.294300
  0.525000, -1.186900
  0.527000, -1.087100
  0.529000, -0.995200
  0.531000, -0.911200
  0.533000, -0.835100
  0.535000, -0.766500
  0.537000, -0.705400
  0.539000, -0.652100
  0.541000, -0.606300
  0.543000, -0.567500
  0.545000, -0.534800
  0.547000, -0.507800
  0.549000, -0.488000
  0.551000, -0.474600
  0.553000, -0.467000
  0.555000, -0.464800
  0.557000, -0.467100
  0.559000, -0.474200
  0.561000, -0.485800
  0.563000, -0.501000
  0.565000, -0.519600
  0.567000, -0.541100
  0.569000, -0.564600
  0.571000, -0.590700
  0.573000, -0.619300
  0.575000, -0.649000
  0.577000, -0.680200
  0.579000, -0.713100
  0.581000, -0.746500
  0.583000, -0.780200
  0.585000, -0.813900
  0.587000, -0.847000
  0.589000, -0.879400
  0.591000, -0.910500
  0.593000, -0.940600
  0.595000, -0.969900
  0.597000, -0.998200
  0.599000, -1.024900
  0.601000, -1.049400
  0.603000, -1.072200
  0.605000, -1.093200
  0.607000, -1.112200
  0.609000, -1.129000
  0.611000, -1.143600
  0.613000, -1.155900
  0.615000, -1.166100
  0.617000, -1.174100
  0.619000, -1.180100
  0.621000, -1.183900
  0.623000, -1.185300
  0.625000, -1.184500
  0.627000, -1.182100
  0.629000, -1.177400
  0.631000, -1.170800
  0.633000, -1.162300
  0.635000, -1.151700
  0.637000, -1.139700
  0.639000, -1.126400
  0.641000, -1.111400
  0.643000, -1.095100
  0.645000, -1.077700
  0.647000, -1.059200
  0.649000, -1.039900
  0.651000, -1.020100
  0.653000, -0.999500
  0.655000, -0.978300
  0.657000, -0.957000
  0.659000, -0.934600
  0.661000, -0.911400
  0.663000, -0.888700
  0.665000, -0.866100
  0.667000, -0.843300
  0.669000, -0.821000
  0.671000, -0.799400
  0.673000, -0.778000
  0.675000, -0.756800
  0.677000, -0.736200
  0.679000, -0.716300
  0.681000, -0.696900
  0.683000, -0.678200
  0.685000, -0.660200
  0.687000, -0.643200
  0.689000, -0.626900
  0.691000, -0.611500
  0.693000, -0.597000
  0.695000, -0.583300
  0.697000, -0.570400
  0.699000, -0.558500
  0.701000, -0.547400
  0.703000, -0.537100
  0.705000, -0.527600
  0.707000, -0.518900
  0.709000, -0.511000
  0.711000, -0.503900
  0.713000, -0.497400
  0.715000, -0.491500
  0.717000, -0.486000
  0.719000, -0.481300
  0.721000, -0.477200
  0.723000, -0.473400
  0.725000, -0.470200
  0.727000, -0.467500
  0.729000, -0.464900
  0.731000, -0.462300
  0.733000, -0.460100
  0.735000, -0.458300
  0.737000, -0.456800
  0.739000, -0.455200
  0.741000, -0.453400
  0.743000, -0.451800
  0.745000, -0.450300
  0.747000, -0.448700
  0.749000, -0.446900
  0.751000, -0.445200
  0.753000, -0.443200
  0.755000, -0.441100
  0.757000, -0.438600
  0.759000, -0.435700
  0.761000, -0.432700
  0.763000, -0.429600
  0.765000, -0.426300
  0.767000, -0.422700
  0.769000, -0.418700
  0.771000, -0.414500
  0.773000, -0.409900
  0.775000, -0.405000
  0.777000, -0.399800
  0.779000, -0.394300
  0.781000, -0.388600
  0.783000, -0.382600
  0.785000, -0.376300
  0.787000, -0.369700
  0.789000, -0.362900
  0.791000, -0.355700
  0.793000, -0.348400
  0.795000, -0.341000
  0.797000, -0.333300
  0.799000, -0.325400
  0.801000, -0.317300
  0.803000, -0.309100
  0.805000, -0.300600
  0.807000, -0.292000
  0.809000, -0.283300
  0.811000, -0.274400
  0.813000, -0.265600
  0.815000, -0.256700
  0.817000, -0.247700
  0.819000, -0.238700
  0.821000, -0.229700
  0.823000, -0.220700
  0.825000, -0.211800
  0.827000, -0.202900
  0.829000, -0.194000
  0.831000, -0.185100
  0.833000, -0.176300
  0.835000, -0.167600
  0.837000, -0.158900
  0.839000, -0.150400
  0.841000, -0.141900
  0.843000, -0.133600
  0.845000, -0.125400
  0.847000, -0.117400
  0.849000, -0.109500
  0.851000, -0.101600
  0.853000, -0.094000
  0.855000, -0.086400
  0.857000, -0.078900
  0.859000, -0.071600
  0.861000, -0.064700
  0.863000, -0.057900
  0.865000, -0.051200
  0.867000, -0.044600
  0.869000, -0.038200
  0.871000, -0.032100
  0.873000, -0.026100
  0.875000, -0.020400
  0.877000, -0.014800
  0.879000, -0.009500
  0.881000, -0.004400
  0.883000,  0.000600
  0.885000,  0.005300
  0.887000,  0.009900
  0.889000,  0.014100
  0.891000,  0.018200
  0.893000,  0.021900
  0.895000,  0.025300
  0.897000,  0.028500
  0.899000,  0.031500
  0.901000,  0.034100
  0.903000,  0.036300
  0.905000,  0.038300
  0.907000,  0.040000
  0.909000,  0.041400
  0.911000,  0.042600
  0.913000,  0.043400
  0.915000,  0.043900
  0.917000,  0.044100
  0.919000,  0.043900
  0.921000,  0.043400
  0.923000,  0.042500
  0.925000,  0.041300
  0.927000,  0.039800
  0.929000,  0.037700
  0.931000,  0.035300
  0.933000,  0.032600
  0.935000,  0.029700
  0.937000,  0.026200
  0.939000,  0.022300
  0.941000,  0.018300
  0.943000,  0.013900
  0.945000,  0.009200
  0.947000,  0.004000
  0.949000, -0.001400
  0.951000, -0.007200
  0.953000, -0.013300
  0.955000, -0.019500
  0.957000, -0.026000
  0.959000, -0.032800
  0.961000, -0.039900
  0.963000, -0.047200
  0.965000, -0.054600
  0.967000, -0.062300
  0.969000, -0.070000
  0.971000, -0.077800
  0.973000, -0.085800
  0.975000, -0.094000
  0.977000, -0.102100
  0.979000, -0.110400
  0.981000, -0.118800
  0.983000, -0.127100
  0.985000, -0.135300
  0.987000, -0.143400
  0.989000, -0.151600
  0.991000, -0.159700
  0.993000, -0.167700
  0.995000, -0.175600
  0.997000, -0.183200
  0.999000, -0.190600
  1.001000, -0.197900
  1.003000, -0.204900
  1.005000, -0.211800
  1.007000, -0.218500
  1.009000, -0.224800
  1.011000, -0.230900
  1.013000, -0.236700
  1.015000, -0.242200
  1.017000, -0.247300
  1.019000, -0.252000
  1.021000, -0.256400
  1.023000, -0.260400
  1.025000, -0.263900
  1.027000, -0.267100
  1.029000, -0.270000
  1.031000, -0.272600
  1.033000, -0.274700
  1.035000, -0.276200
  1.037000, -0.277300
  1.039000, -0.277900
  1.041000, -0.278200
  1.043000, -0.278000
  1.045000, -0.277400
  1.047000, -0.276500
  1.049000, -0.274900
  1.051000, -0.273000
  1.053000, -0.270800
  1.055000, -0.268100
  1.057000, -0.265000
  1.059000, -0.261600
  1.061000, -0.257600
  1.063000, -0.253500
  1.065000, -0.249000
  1.067000, -0.244200
  1.069000, -0.239200
  1.071000, -0.233700
  1.073000, -0.227900
  1.075000, -0.222000
  1.077000, -0.215800
  1.079000, -0.209200
  1.081000, -0.202500
  1.083000, -0.195500
  1.085000, -0.188500
  1.087000, -0.181400
  1.089000, -0.174000
  1.091000, -0.166300
  1.093000, -0.158800
  1.095000, -0.151200
  1.097000, -0.143600
  1.099000, -0.135800
  1.101000, -0.127900
  1.103000, -0.119900
  1.105000, -0.112000
  1.107000, -0.104200
  1.109000, -0.096500
  1.111000, -0.088800
  1.113000, -0.081400
  1.115000, -0.073800
  1.117000, -0.066300
  1.119000, -0.059000
  1.121000, -0.051900
  1.123000, -0.045000
  1.125000, -0.038200
  1.127000, -0.031500
  1.129000, -0.025100
  1.131000, -0.018800
  1.133000, -0.012600
  1.135000, -0.006600
  1.137000, -0.001000
  1.139000,  0.004300
  1.141000,  0.009500
  1.143000,  0.014400
  1.145000,  0.019000
  1.147000,  0.023400
  1.149000,  0.027600
  1.151000,  0.031500
  1.153000,  0.035100
  1.155000,  0.038500
  1.157000,  0.041600
  1.159000,  0.044600
  1.161000,  0.047400
  1.163000,  0.050000
  1.165000,  0.052100
  1.167000,  0.054000
  1.169000,  0.055800
  1.171000,  0.057500
  1.173000,  0.059000
  1.175000,  0.060300
  1.177000,  0.061300
  1.179000,  0.062100
  1.181000,  0.062700
  1.183000,  0.063000
  1.185000,  0.063200
  1.187000,  0.063200
  1.189000,  0.063100
  1.191000,  0.063100
  1.193000,  0.062900
  1.195000,  0.062600
  1.197000,  0.062200
  1.199000,  0.061700
  1.201000,  0.061000
  1.203000,  0.060200
  1.205000,  0.059200
  1.207000,  0.058400
  1.209000,  0.057600
  1.211000,  0.056600
  1.213000,  0.055600
  1.215000,  0.054500
  1.217000,  0.053400
  1.219000,  0.052300
  1.221000,  0.051100
  1.223000,  0.050000
  1.225000,  0.048900
  1.227000,  0.047800
  1.229000,  0.046600
  1.231000,  0.045400
  1.233000,  0.044100
  1.235000,  0.042900
  1.237000,  0.041700
  1.239000,  0.040400
  1.241000,  0.039100
  1.243000,  0.037900
  1.245000,  0.036700
  1.247000,  0.035400
  1.249000,  0.034000
  1.251000,  0.032500
  1.253000,  0.031100
  1.255000,  0.029600
  1.257000,  0.028000
  1.259000,  0.026600
  1.261000,  0.025100
  1.263000,  0.023600
  1.265000,  0.022000
  1.267000,  0.020300
  1.269000,  0.018600
  1.271000,  0.016900
  1.273000,  0.015100
  1.275000,  0.013400
  1.277000,  0.011600
  1.279000,  0.009600
  1.281000,  0.007600
  1.283000,  0.005600
  1.285000,  0.003500
  1.287000,  0.001300
  1.289000, -0.001000
  1.291000, -0.003200
  1.293000, -0.005300
  1.295000, -0.007600
  1.297000, -0.009800
  1.299000, -0.012100
  1.301000, -0.014500
  1.303000, -0.016800
  1.305000, -0.019200
  1.307000, -0.021400
  1.309000, -0.023600
  1.311000, -0.025900
  1.313000, -0.028200
  1.315000, -0.030400
  1.317000, -0.032700
  1.319000, -0.034900
  1.321000, -0.036900
  1.323000, -0.038800
  1.325000, -0.040500
  1.327000, -0.042200
  1.329000, -0.043500
  1.331000, -0.044600
  1.333000, -0.045700
  1.335000, -0.046600
  1.337000, -0.047600
  1.339000, -0.048300
  1.341000, -0.048900
  1.343000, -0.049200
  1.345000, -0.049300
  1.347000, -0.049200
  1.349000, -0.049000
  1.351000, -0.048400
  1.353000, -0.047400
  1.355000, -0.046300
  1.357000, -0.045100
  1.359000, -0.043700
  1.361000, -0.042000
  1.363000, -0.040100
  1.365000, -0.038200
  1.367000, -0.036200
  1.369000, -0.034000
  1.371000, -0.031600
  1.373000, -0.029100
  1.375000, -0.026400
  1.377000, -0.023700
  1.379000, -0.021000
  1.381000, -0.018200
  1.383000, -0.015300
  1.385000, -0.012300
  1.387000, -0.009300
  1.389000, -0.006500
  1.391000, -0.003900
  1.393000, -0.001500
  1.395000,  0.000500
  1.397000,  0.002000
  1.399000,  0.003100
