# z (nm)   (kJ/mol)
  0.251000, 11.723500
  0.257000, 10.313900
  0.259000,  9.769600
  0.261000,  9.231800
  0.263000,  8.663900
  0.265000,  8.097600
  0.267000,  7.546600
  0.269000,  7.000400
  0.271000,  6.450700
  0.273000,  5.879800
  0.275000,  5.296600
  0.277000,  4.715500
  0.279000,  4.136000
  0.281000,  3.555400
  0.283000,  2.976700
  0.285000,  2.402200
  0.287000,  1.838000
  0.289000,  1.284400
  0.291000,  0.724800
  0.293000,  0.169800
  0.295000, -0.374200
  0.297000, -0.907100
  0.299000, -1.431200
  0.301000, -1.942000
  0.303000, -2.438400
  0.305000, -2.923100
  0.307000, -3.395700
  0.309000, -3.853500
  0.311000, -4.295400
  0.313000, -4.723300
  0.315000, -5.134500
  0.317000, -5.528400
  0.319000, -5.904200
  0.321000, -6.262700
  0.323000, -6.604100
  0.325000, -6.931100
  0.327000, -7.240700
  0.329000, -7.531300
  0.331000, -7.804600
  0.333000, -8.061500
  0.335000, -8.301800
  0.337000, -8.523700
  0.339000, -8.726600
  0.341000, -8.911500
  0.343000, -9.079100
  0.345000, -9.229000
  0.347000, -9.360400
  0.349000, -9.474600
  0.351000, -9.572700
  0.353000, -9.654100
  0.355000, -9.719200
  0.357000, -9.768600
  0.359000, -9.801800
  0.361000, -9.819200
  0.363000, -9.822100
  0.365000, -9.811700
  0.367000, -9.788600
  0.369000, -9.752800
  0.371000, -9.703300
  0.373000, -9.641600
  0.375000, -9.571500
  0.377000, -9.492300
  0.379000, -9.403400
  0.381000, -9.305600
  0.383000, -9.200300
  0.385000, -9.087000
  0.387000, -8.966200
  0.389000, -8.839800
  0.391000, -8.708400
  0.393000, -8.573700
  0.395000, -8.435900
  0.397000, -8.295000
  0.399000, -8.151900
  0.401000, -8.006600
  0.403000, -7.859500
  0.405000, -7.711400
  0.407000, -7.562500
  0.409000, -7.413800
  0.411000, -7.265200
  0.413000, -7.116400
  0.415000, -6.968200
  0.417000, -6.821200
  0.419000, -6.675000
  0.421000, -6.529600
  0.423000, -6.385400
  0.425000, -6.242300
  0.427000, -6.100200
  0.429000, -5.958800
  0.431000, -5.818400
  0.433000, -5.679500
  0.435000, -5.541200
  0.437000, -5.402400
  0.439000, -5.264200
  0.441000, -5.126700
  0.443000, -4.988800
  0.445000, -4.850800
  0.447000, -4.713300
  0.449000, -4.575500
  0.451000, -4.436700
  0.453000, -4.296600
  0.455000, -4.155800
  0.457000, -4.014500
  0.459000, -3.872300
  0.461000, -3.728900
  0.463000, -3.584300
  0.465000, -3.438300
  0.467000, -3.291100
  0.469000, -3.142800
  0.471000, -2.993300
  0.473000, -2.842300
  0.475000, -2.690300
  0.477000, -2.537000
  0.479000, -2.382300
  0.481000, -2.226900
  0.483000, -2.070700
  0.485000, -1.913800
  0.487000, -1.755900
  0.489000, -1.596900
  0.491000, -1.437300
  0.493000, -1.277100
  0.495000, -1.117800
  0.497000, -0.959200
  0.499000, -0.801500
  0.501000, -0.644900
  0.503000, -0.489300
  0.505000, -0.334900
  0.507000, -0.182500
  0.509000, -0.032200
  0.511000,  0.116400
  0.513000,  0.262700
  0.515000,  0.406400
  0.517000,  0.546600
  0.519000,  0.684200
  0.521000,  0.818200
  0.523000,  0.947500
  0.525000,  1.072700
  0.527000,  1.192600
  0.529000,  1.308300
  0.531000,  1.418800
  0.533000,  1.523400
  0.535000,  1.623300
  0.537000,  1.718100
  0.539000,  1.807200
  0.541000,  1.889100
  0.543000,  1.964300
  0.545000,  2.033800
  0.547000,  2.096700
  0.549000,  2.153100
  0.551000,  2.203200
  0.553000,  2.246600
  0.555000,  2.283400
  0.557000,  2.313400
  0.559000,  2.336800
  0.561000,  2.354000
  0.563000,  2.364400
  0.565000,  2.367900
  0.567000,  2.364900
  0.569000,  2.355900
  0.571000,  2.340700
  0.573000,  2.319400
  0.575000,  2.292600
  0.577000,  2.260200
  0.579000,  2.221600
  0.581000,  2.177700
  0.583000,  2.129300
  0.585000,  2.076100
  0.587000,  2.017700
  0.589000,  1.955000
  0.591000,  1.889100
  0.593000,  1.818800
  0.595000,  1.744300
  0.597000,  1.666800
  0.599000,  1.586300
  0.601000,  1.503000
  0.603000,  1.417800
  0.605000,  1.331200
  0.607000,  1.242700
  0.609000,  1.152900
  0.611000,  1.062400
  0.613000,  0.970900
  0.615000,  0.878500
  0.617000,  0.786300
  0.619000,  0.694500
  0.621000,  0.602400
  0.623000,  0.510000
  0.625000,  0.417800
  0.627000,  0.327400
  0.629000,  0.237500
  0.631000,  0.148100
  0.633000,  0.060300
  0.635000, -0.025300
  0.637000, -0.108500
  0.639000, -0.189900
  0.641000, -0.268900
  0.643000, -0.345600
  0.645000, -0.420500
  0.647000, -0.492800
  0.649000, -0.562000
  0.651000, -0.628500
  0.653000, -0.692400
  0.655000, -0.753700
  0.657000, -0.812200
  0.659000, -0.867700
  0.661000, -0.920100
  0.663000, -0.969400
  0.665000, -1.015600
  0.667000, -1.058700
  0.669000, -1.098600
  0.671000, -1.135500
  0.673000, -1.169500
  0.675000, -1.200500
  0.677000, -1.228600
  0.679000, -1.253800
  0.681000, -1.276100
  0.683000, -1.295800
  0.685000, -1.312800
  0.687000, -1.327000
  0.689000, -1.338800
  0.691000, -1.348100
  0.693000, -1.354900
  0.695000, -1.359200
  0.697000, -1.361100
  0.699000, -1.361000
  0.701000, -1.358900
  0.703000, -1.354800
  0.705000, -1.348800
  0.707000, -1.341100
  0.709000, -1.331800
  0.711000, -1.320700
  0.713000, -1.308100
  0.715000, -1.294100
  0.717000, -1.278600
  0.719000, -1.261600
  0.721000, -1.243400
  0.723000, -1.224000
  0.725000, -1.203600
  0.727000, -1.182200
  0.729000, -1.159800
  0.731000, -1.136500
  0.733000, -1.112300
  0.735000, -1.087400
  0.737000, -1.061800
  0.739000, -1.035300
  0.741000, -1.008400
  0.743000, -0.981000
  0.745000, -0.952800
  0.747000, -0.924200
  0.749000, -0.894800
  0.751000, -0.865100
  0.753000, -0.834900
  0.755000, -0.804400
  0.757000, -0.773600
  0.759000, -0.742400
  0.761000, -0.711000
  0.763000, -0.679300
  0.765000, -0.647400
  0.767000, -0.615200
  0.769000, -0.582900
  0.771000, -0.550500
  0.773000, -0.517900
  0.775000, -0.485100
  0.777000, -0.452300
  0.779000, -0.419500
  0.781000, -0.386800
  0.783000, -0.354300
  0.785000, -0.321700
  0.787000, -0.289200
  0.789000, -0.256900
  0.791000, -0.224700
  0.793000, -0.192700
  0.795000, -0.161000
  0.797000, -0.129700
  0.799000, -0.098800
  0.801000, -0.068400
  0.803000, -0.038200
  0.805000, -0.008500
  0.807000,  0.020700
  0.809000,  0.049300
  0.811000,  0.077500
  0.813000,  0.105000
  0.815000,  0.131700
  0.817000,  0.157700
  0.819000,  0.182900
  0.821000,  0.207200
  0.823000,  0.230700
  0.825000,  0.253300
  0.827000,  0.275000
  0.829000,  0.295700
  0.831000,  0.315400
  0.833000,  0.334100
  0.835000,  0.351900
  0.837000,  0.368500
  0.839000,  0.383900
  0.841000,  0.398300
  0.843000,  0.411300
  0.845000,  0.423200
  0.847000,  0.434000
  0.849000,  0.443600
  0.851000,  0.451900
  0.853000,  0.459200
  0.855000,  0.465300
  0.857000,  0.470100
  0.859000,  0.473800
  0.861000,  0.476200
  0.863000,  0.477400
  0.865000,  0.477400
  0.867000,  0.476400
  0.869000,  0.474200
  0.871000,  0.471000
  0.873000,  0.466600
  0.875000,  0.461200
  0.877000,  0.454900
  0.879000,  0.447500
  0.881000,  0.439100
  0.883000,  0.429700
  0.885000,  0.419600
  0.887000,  0.408900
  0.889000,  0.397300
  0.891000,  0.384800
  0.893000,  0.371500
  0.895000,  0.357500
  0.897000,  0.343100
  0.899000,  0.328100
  0.901000,  0.312400
  0.903000,  0.296400
  0.905000,  0.280000
  0.907000,  0.263100
  0.909000,  0.245900
  0.911000,  0.228400
  0.913000,  0.210800
  0.915000,  0.192900
  0.917000,  0.175000
  0.919000,  0.157000
  0.921000,  0.138900
  0.923000,  0.121000
  0.925000,  0.103100
  0.927000,  0.085300
  0.929000,  0.067700
  0.931000,  0.050000
  0.933000,  0.032600
  0.935000,  0.015400
  0.937000, -0.001500
  0.939000, -0.018100
  0.941000, -0.034400
  0.943000, -0.050400
  0.945000, -0.066200
  0.947000, -0.081500
  0.949000, -0.096500
  0.951000, -0.111000
  0.953000, -0.125200
  0.955000, -0.138900
  0.957000, -0.152200
  0.959000, -0.165000
  0.961000, -0.177400
  0.963000, -0.189200
  0.965000, -0.200600
  0.967000, -0.211400
  0.969000, -0.221900
  0.971000, -0.231900
  0.973000, -0.241200
  0.975000, -0.250000
  0.977000, -0.258300
  0.979000, -0.266200
  0.981000, -0.273600
  0.983000, -0.280500
  0.985000, -0.286900
  0.987000, -0.292800
  0.989000, -0.298100
  0.991000, -0.302900
  0.993000, -0.307300
  0.995000, -0.311300
  0.997000, -0.314800
  0.999000, -0.317800
  1.001000, -0.320300
  1.003000, -0.322400
  1.005000, -0.324000
  1.007000, -0.325200
  1.009000, -0.325900
  1.011000, -0.326100
  1.013000, -0.326000
  1.015000, -0.325400
  1.017000, -0.324400
  1.019000, -0.323100
  1.021000, -0.321400
  1.023000, -0.319000
  1.025000, -0.316400
  1.027000, -0.313400
  1.029000, -0.309900
  1.031000, -0.306000
  1.033000, -0.301800
  1.035000, -0.297200
  1.037000, -0.292400
  1.039000, -0.287400
  1.041000, -0.282100
  1.043000, -0.276300
  1.045000, -0.270300
  1.047000, -0.263900
  1.049000, -0.257200
  1.051000, -0.250200
  1.053000, -0.243100
  1.055000, -0.235700
  1.057000, -0.228000
  1.059000, -0.220400
  1.061000, -0.212500
  1.063000, -0.204200
  1.065000, -0.195900
  1.067000, -0.187500
  1.069000, -0.178900
  1.071000, -0.170300
  1.073000, -0.161600
  1.075000, -0.152800
  1.077000, -0.143900
  1.079000, -0.134900
  1.081000, -0.126000
  1.083000, -0.117200
  1.085000, -0.108400
  1.087000, -0.099700
  1.089000, -0.090800
  1.091000, -0.082100
  1.093000, -0.073300
  1.095000, -0.064700
  1.097000, -0.056200
  1.099000, -0.047800
  1.101000, -0.039400
  1.103000, -0.031200
  1.105000, -0.023200
  1.107000, -0.015400
  1.109000, -0.007700
  1.111000, -0.000100
  1.113000,  0.007100
  1.115000,  0.014100
  1.117000,  0.020900
  1.119000,  0.027500
  1.121000,  0.033800
  1.123000,  0.039900
  1.125000,  0.045800
  1.127000,  0.051300
  1.129000,  0.056600
  1.131000,  0.061600
  1.133000,  0.066300
  1.135000,  0.070800
  1.137000,  0.075100
  1.139000,  0.079200
  1.141000,  0.082900
  1.143000,  0.086400
  1.145000,  0.089600
  1.147000,  0.092500
  1.149000,  0.095100
  1.151000,  0.097500
  1.153000,  0.099600
  1.155000,  0.101500
  1.157000,  0.103100
  1.159000,  0.104500
  1.161000,  0.105700
  1.163000,  0.106600
  1.165000,  0.107200
  1.167000,  0.107700
  1.169000,  0.108000
  1.171000,  0.108000
  1.173000,  0.107900
  1.175000,  0.107600
  1.177000,  0.107100
  1.179000,  0.106400
  1.181000,  0.105600
  1.183000,  0.104700
  1.185000,  0.103600
  1.187000,  0.102500
  1.189000,  0.101100
  1.191000,  0.099700
  1.193000,  0.098200
  1.195000,  0.096600
  1.197000,  0.095000
  1.199000,  0.093200
  1.201000,  0.091200
  1.203000,  0.089400
  1.205000,  0.087400
  1.207000,  0.085300
  1.209000,  0.083200
  1.211000,  0.081000
  1.213000,  0.078800
  1.215000,  0.076600
  1.217000,  0.074300
  1.219000,  0.071900
  1.221000,  0.069600
  1.223000,  0.067300
  1.225000,  0.065000
  1.227000,  0.062600
  1.229000,  0.060200
  1.231000,  0.057700
  1.233000,  0.055300
  1.235000,  0.052800
  1.237000,  0.050400
  1.239000,  0.047900
  1.241000,  0.045300
  1.243000,  0.042800
  1.245000,  0.040300
  1.247000,  0.037800
  1.249000,  0.035100
  1.251000,  0.032500
  1.253000,  0.029900
  1.255000,  0.027300
  1.257000,  0.024700
  1.259000,  0.022000
  1.261000,  0.019300
  1.263000,  0.016400
  1.265000,  0.013500
  1.267000,  0.010700
  1.269000,  0.008000
  1.271000,  0.005100
  1.273000,  0.002100
  1.275000, -0.000800
  1.277000, -0.003800
  1.279000, -0.006800
  1.281000, -0.009600
  1.283000, -0.012500
  1.285000, -0.015500
  1.287000, -0.018400
  1.289000, -0.021400
  1.291000, -0.024500
  1.293000, -0.027700
  1.295000, -0.030700
  1.297000, -0.033500
  1.299000, -0.036400
  1.301000, -0.039200
  1.303000, -0.042000
  1.305000, -0.044800
  1.307000, -0.047400
  1.309000, -0.049800
  1.311000, -0.052100
  1.313000, -0.054200
  1.315000, -0.056100
  1.317000, -0.057900
  1.319000, -0.059600
  1.321000, -0.061000
  1.323000, -0.062300
  1.325000, -0.063500
  1.327000, -0.064300
  1.329000, -0.064900
  1.331000, -0.065200
  1.333000, -0.065200
  1.335000, -0.065000
  1.337000, -0.064600
  1.339000, -0.063900
  1.341000, -0.062900
  1.343000, -0.061500
  1.345000, -0.060000
  1.347000, -0.058200
  1.349000, -0.056100
  1.351000, -0.053600
  1.353000, -0.051000
  1.355000, -0.048200
  1.357000, -0.045000
  1.359000, -0.041400
  1.361000, -0.037600
  1.363000, -0.033700
  1.365000, -0.029900
  1.367000, -0.025800
  1.369000, -0.021400
  1.371000, -0.016900
  1.373000, -0.012100
  1.375000, -0.007200
  1.377000, -0.002400
  1.379000,  0.002200
  1.381000,  0.007200
  1.383000,  0.012100
  1.385000,  0.016500
  1.387000,  0.020800
  1.389000,  0.025100
  1.391000,  0.029100
  1.393000,  0.032700
  1.395000,  0.036400
  1.397000,  0.039700
  1.399000,  0.042300
