# z (nm)   (kJ/mol)
  0.301000, 12.357500
  0.303000, 11.740400
  0.305000, 11.096200
  0.307000, 10.432400
  0.309000,  9.748600
  0.311000,  9.051500
  0.313000,  8.340500
  0.315000,  7.612600
  0.317000,  6.870000
  0.319000,  6.120100
  0.321000,  5.365900
  0.323000,  4.597600
  0.325000,  3.816000
  0.327000,  3.030400
  0.329000,  2.240900
  0.331000,  1.446000
  0.333000,  0.653200
  0.335000, -0.138300
  0.337000, -0.930600
  0.339000, -1.723500
  0.341000, -2.518200
  0.343000, -3.314300
  0.345000, -4.107000
  0.347000, -4.895300
  0.349000, -5.683700
  0.351000, -6.469200
  0.353000, -7.251500
  0.355000, -8.029400
  0.357000, -8.800800
  0.359000, -9.566800
  0.361000,-10.323400
  0.363000,-11.069800
  0.365000,-11.808400
  0.367000,-12.535200
  0.369000,-13.246100
  0.371000,-13.941300
  0.373000,-14.621900
  0.375000,-15.286100
  0.377000,-15.932700
  0.379000,-16.563100
  0.381000,-17.175100
  0.383000,-17.765100
  0.385000,-18.338500
  0.387000,-18.897700
  0.389000,-19.437200
  0.391000,-19.955800
  0.393000,-20.456900
  0.395000,-20.939800
  0.397000,-21.401300
  0.399000,-21.842100
  0.401000,-22.263700
  0.403000,-22.663100
  0.405000,-23.039900
  0.407000,-23.397000
  0.409000,-23.734100
  0.411000,-24.043900
  0.413000,-24.331300
  0.415000,-24.600200
  0.417000,-24.843600
  0.419000,-25.066400
  0.421000,-25.267600
  0.423000,-25.446600
  0.425000,-25.598800
  0.427000,-25.722400
  0.429000,-25.831300
  0.431000,-25.921300
  0.433000,-25.988600
  0.435000,-26.038700
  0.437000,-26.068400
  0.439000,-26.078400
  0.441000,-26.074500
  0.443000,-26.055300
  0.445000,-26.016100
  0.447000,-25.959300
  0.449000,-25.890400
  0.451000,-25.805000
  0.453000,-25.704300
  0.455000,-25.590600
  0.457000,-25.470300
  0.459000,-25.342000
  0.461000,-25.197200
  0.463000,-25.040500
  0.465000,-24.875900
  0.467000,-24.703800
  0.469000,-24.526800
  0.471000,-24.343500
  0.473000,-24.152600
  0.475000,-23.957400
  0.477000,-23.756000
  0.479000,-23.548300
  0.481000,-23.337000
  0.483000,-23.123300
  0.485000,-22.905100
  0.487000,-22.683500
  0.489000,-22.458700
  0.491000,-22.229600
  0.493000,-21.997800
  0.495000,-21.762200
  0.497000,-21.522300
  0.499000,-21.279300
  0.501000,-21.033700
  0.503000,-20.785200
  0.505000,-20.533900
  0.507000,-20.279900
  0.509000,-20.022500
  0.511000,-19.760800
  0.513000,-19.495900
  0.515000,-19.228900
  0.517000,-18.958900
  0.519000,-18.686600
  0.521000,-18.412200
  0.523000,-18.135300
  0.525000,-17.855400
  0.527000,-17.574000
  0.529000,-17.290900
  0.531000,-17.006400
  0.533000,-16.720600
  0.535000,-16.432900
  0.537000,-16.144900
  0.539000,-15.856000
  0.541000,-15.566600
  0.543000,-15.277800
  0.545000,-14.989500
  0.547000,-14.701800
  0.549000,-14.414300
  0.551000,-14.127900
  0.553000,-13.842800
  0.555000,-13.559400
  0.557000,-13.277300
  0.559000,-12.997500
  0.561000,-12.720400
  0.563000,-12.445800
  0.565000,-12.174400
  0.567000,-11.906200
  0.569000,-11.641500
  0.571000,-11.380200
  0.573000,-11.122500
  0.575000,-10.868600
  0.577000,-10.618600
  0.579000,-10.373200
  0.581000,-10.132300
  0.583000, -9.895500
  0.585000, -9.662900
  0.587000, -9.434500
  0.589000, -9.210400
  0.591000, -8.990700
  0.593000, -8.775400
  0.595000, -8.564800
  0.597000, -8.359000
  0.599000, -8.157800
  0.601000, -7.961500
  0.603000, -7.769700
  0.605000, -7.582000
  0.607000, -7.398600
  0.609000, -7.220000
  0.611000, -7.045800
  0.613000, -6.875800
  0.615000, -6.709800
  0.617000, -6.547800
  0.619000, -6.390000
  0.621000, -6.236500
  0.623000, -6.087200
  0.625000, -5.942400
  0.627000, -5.801300
  0.629000, -5.663400
  0.631000, -5.529700
  0.633000, -5.399700
  0.635000, -5.273500
  0.637000, -5.152700
  0.639000, -5.034400
  0.641000, -4.918800
  0.643000, -4.808600
  0.645000, -4.701800
  0.647000, -4.597900
  0.649000, -4.497700
  0.651000, -4.402200
  0.653000, -4.309800
  0.655000, -4.221100
  0.657000, -4.136300
  0.659000, -4.054900
  0.661000, -3.977600
  0.663000, -3.903300
  0.665000, -3.833000
  0.667000, -3.767300
  0.669000, -3.705000
  0.671000, -3.646400
  0.673000, -3.591200
  0.675000, -3.539100
  0.677000, -3.490700
  0.679000, -3.445900
  0.681000, -3.404700
  0.683000, -3.366700
  0.685000, -3.332500
  0.687000, -3.301800
  0.689000, -3.274000
  0.691000, -3.249000
  0.693000, -3.227200
  0.695000, -3.208500
  0.697000, -3.192700
  0.699000, -3.179500
  0.701000, -3.168600
  0.703000, -3.160000
  0.705000, -3.153700
  0.707000, -3.150200
  0.709000, -3.148600
  0.711000, -3.148300
  0.713000, -3.149600
  0.715000, -3.152300
  0.717000, -3.156600
  0.719000, -3.163000
  0.721000, -3.170600
  0.723000, -3.178800
  0.725000, -3.188500
  0.727000, -3.198500
  0.729000, -3.209100
  0.731000, -3.220400
  0.733000, -3.231900
  0.735000, -3.244300
  0.737000, -3.256700
  0.739000, -3.268800
  0.741000, -3.281000
  0.743000, -3.292500
  0.745000, -3.303700
  0.747000, -3.315300
  0.749000, -3.325800
  0.751000, -3.335200
  0.753000, -3.343900
  0.755000, -3.351700
  0.757000, -3.358500
  0.759000, -3.364000
  0.761000, -3.368200
  0.763000, -3.372000
  0.765000, -3.374900
  0.767000, -3.376400
  0.769000, -3.376400
  0.771000, -3.375000
  0.773000, -3.372500
  0.775000, -3.368100
  0.777000, -3.362100
  0.779000, -3.355100
  0.781000, -3.347000
  0.783000, -3.337300
  0.785000, -3.325900
  0.787000, -3.312800
  0.789000, -3.298200
  0.791000, -3.282200
  0.793000, -3.264800
  0.795000, -3.245900
  0.797000, -3.225800
  0.799000, -3.204200
  0.801000, -3.181000
  0.803000, -3.156500
  0.805000, -3.130900
  0.807000, -3.103800
  0.809000, -3.075500
  0.811000, -3.046000
  0.813000, -3.015300
  0.815000, -2.983500
  0.817000, -2.950700
  0.819000, -2.916700
  0.821000, -2.881700
  0.823000, -2.845900
  0.825000, -2.809500
  0.827000, -2.772400
  0.829000, -2.734300
  0.831000, -2.695300
  0.833000, -2.655600
  0.835000, -2.615500
  0.837000, -2.575100
  0.839000, -2.533700
  0.841000, -2.491900
  0.843000, -2.449900
  0.845000, -2.407400
  0.847000, -2.364500
  0.849000, -2.321500
  0.851000, -2.278300
  0.853000, -2.234900
  0.855000, -2.191400
  0.857000, -2.148100
  0.859000, -2.105100
  0.861000, -2.061900
  0.863000, -2.018800
  0.865000, -1.976100
  0.867000, -1.933600
  0.869000, -1.891400
  0.871000, -1.849200
  0.873000, -1.807300
  0.875000, -1.765800
  0.877000, -1.724800
  0.879000, -1.684400
  0.881000, -1.644700
  0.883000, -1.605300
  0.885000, -1.566400
  0.887000, -1.528400
  0.889000, -1.490900
  0.891000, -1.453900
  0.893000, -1.417400
  0.895000, -1.381500
  0.897000, -1.346200
  0.899000, -1.312000
  0.901000, -1.278600
  0.903000, -1.245800
  0.905000, -1.213800
  0.907000, -1.182400
  0.909000, -1.151900
  0.911000, -1.122400
  0.913000, -1.093500
  0.915000, -1.065600
  0.917000, -1.038600
  0.919000, -1.012200
  0.921000, -0.986500
  0.923000, -0.961800
  0.925000, -0.938100
  0.927000, -0.915300
  0.929000, -0.893100
  0.931000, -0.872000
  0.933000, -0.851900
  0.935000, -0.832500
  0.937000, -0.813900
  0.939000, -0.796200
  0.941000, -0.779300
  0.943000, -0.763300
  0.945000, -0.748000
  0.947000, -0.733700
  0.949000, -0.720300
  0.951000, -0.707500
  0.953000, -0.695500
  0.955000, -0.684300
  0.957000, -0.673900
  0.959000, -0.664200
  0.961000, -0.655200
  0.963000, -0.647000
  0.965000, -0.639600
  0.967000, -0.632900
  0.969000, -0.626800
  0.971000, -0.621300
  0.973000, -0.616700
  0.975000, -0.612600
  0.977000, -0.608900
  0.979000, -0.605700
  0.981000, -0.603100
  0.983000, -0.601200
  0.985000, -0.599900
  0.987000, -0.599000
  0.989000, -0.598500
  0.991000, -0.598200
  0.993000, -0.598400
  0.995000, -0.598900
  0.997000, -0.599800
  0.999000, -0.601000
  1.001000, -0.602500
  1.003000, -0.604200
  1.005000, -0.606000
  1.007000, -0.608000
  1.009000, -0.610400
  1.011000, -0.613000
  1.013000, -0.615400
  1.015000, -0.618000
  1.017000, -0.620700
  1.019000, -0.623500
  1.021000, -0.626500
  1.023000, -0.629400
  1.025000, -0.632200
  1.027000, -0.635100
  1.029000, -0.637800
  1.031000, -0.640400
  1.033000, -0.642900
  1.035000, -0.645300
  1.037000, -0.647500
  1.039000, -0.649400
  1.041000, -0.651100
  1.043000, -0.652700
  1.045000, -0.654000
  1.047000, -0.655100
  1.049000, -0.655900
  1.051000, -0.656500
  1.053000, -0.656900
  1.055000, -0.657000
  1.057000, -0.656800
  1.059000, -0.656400
  1.061000, -0.655700
  1.063000, -0.654700
  1.065000, -0.653400
  1.067000, -0.651800
  1.069000, -0.649900
  1.071000, -0.647700
  1.073000, -0.645300
  1.075000, -0.642500
  1.077000, -0.639400
  1.079000, -0.636000
  1.081000, -0.632200
  1.083000, -0.628200
  1.085000, -0.624000
  1.087000, -0.619400
  1.089000, -0.614600
  1.091000, -0.609600
  1.093000, -0.604400
  1.095000, -0.598900
  1.097000, -0.593200
  1.099000, -0.587400
  1.101000, -0.581100
  1.103000, -0.574600
  1.105000, -0.568000
  1.107000, -0.561200
  1.109000, -0.554300
  1.111000, -0.547200
  1.113000, -0.539900
  1.115000, -0.532500
  1.117000, -0.524900
  1.119000, -0.517200
  1.121000, -0.509200
  1.123000, -0.501200
  1.125000, -0.493100
  1.127000, -0.485000
  1.129000, -0.476900
  1.131000, -0.468700
  1.133000, -0.460500
  1.135000, -0.452200
  1.137000, -0.443800
  1.139000, -0.435400
  1.141000, -0.427000
  1.143000, -0.418400
  1.145000, -0.409900
  1.147000, -0.401500
  1.149000, -0.393200
  1.151000, -0.384800
  1.153000, -0.376200
  1.155000, -0.367700
  1.157000, -0.359400
  1.159000, -0.351100
  1.161000, -0.342900
  1.163000, -0.334600
  1.165000, -0.326400
  1.167000, -0.318400
  1.169000, -0.310400
  1.171000, -0.302400
  1.173000, -0.294700
  1.175000, -0.286900
  1.177000, -0.279100
  1.179000, -0.271500
  1.181000, -0.263800
  1.183000, -0.256200
  1.185000, -0.248600
  1.187000, -0.241200
  1.189000, -0.233900
  1.191000, -0.226600
  1.193000, -0.219300
  1.195000, -0.212100
  1.197000, -0.204700
  1.199000, -0.197600
  1.201000, -0.190400
  1.203000, -0.183300
  1.205000, -0.176300
  1.207000, -0.169300
  1.209000, -0.162300
  1.211000, -0.155500
  1.213000, -0.148800
  1.215000, -0.142100
  1.217000, -0.135300
  1.219000, -0.128500
  1.221000, -0.121900
  1.223000, -0.115300
  1.225000, -0.108800
  1.227000, -0.102300
  1.229000, -0.095800
  1.231000, -0.089400
  1.233000, -0.083100
  1.235000, -0.076700
  1.237000, -0.070400
  1.239000, -0.064400
  1.241000, -0.058600
  1.243000, -0.052700
  1.245000, -0.046900
  1.247000, -0.041300
  1.249000, -0.035900
  1.251000, -0.030600
  1.253000, -0.025400
  1.255000, -0.020400
  1.257000, -0.015500
  1.259000, -0.010700
  1.261000, -0.006200
  1.263000, -0.001900
  1.265000,  0.002300
  1.267000,  0.006300
  1.269000,  0.010100
  1.271000,  0.013800
  1.273000,  0.017300
  1.275000,  0.020600
  1.277000,  0.023600
  1.279000,  0.026300
  1.281000,  0.029000
  1.283000,  0.031500
  1.285000,  0.033700
  1.287000,  0.035700
  1.289000,  0.037500
  1.291000,  0.039100
  1.293000,  0.040500
  1.295000,  0.041700
  1.297000,  0.042900
  1.299000,  0.043900
  1.301000,  0.044700
  1.303000,  0.045200
  1.305000,  0.045600
  1.307000,  0.045800
  1.309000,  0.045900
  1.311000,  0.046000
  1.313000,  0.046000
  1.315000,  0.045800
  1.317000,  0.045500
  1.319000,  0.045300
  1.321000,  0.045000
  1.323000,  0.044600
  1.325000,  0.044300
  1.327000,  0.043800
  1.329000,  0.043400
  1.331000,  0.042900
  1.333000,  0.042500
  1.335000,  0.042200
  1.337000,  0.042000
  1.339000,  0.041700
  1.341000,  0.041400
  1.343000,  0.041400
  1.345000,  0.041400
  1.347000,  0.041500
  1.349000,  0.041700
  1.351000,  0.042000
  1.353000,  0.042500
  1.355000,  0.043300
  1.357000,  0.044000
  1.359000,  0.044800
  1.361000,  0.045800
  1.363000,  0.046900
  1.365000,  0.048000
  1.367000,  0.049300
  1.369000,  0.050700
  1.371000,  0.052200
  1.373000,  0.053800
  1.375000,  0.055300
  1.377000,  0.056800
  1.379000,  0.058400
  1.381000,  0.060200
  1.383000,  0.062000
  1.385000,  0.063700
  1.387000,  0.065500
  1.389000,  0.067300
  1.391000,  0.068700
  1.393000,  0.070200
  1.395000,  0.071400
  1.397000,  0.072400
  1.399000,  0.073100
