# z (nm)   (kJ/mol)
  0.253000,  6.539100
  0.255000,  5.819400
  0.257000,  5.124400
  0.259000,  4.393200
  0.261000,  3.649900
  0.263000,  2.940700
  0.265000,  2.223200
  0.267000,  1.506000
  0.269000,  0.769500
  0.271000,  0.022000
  0.273000, -0.715700
  0.275000, -1.466300
  0.277000, -2.219600
  0.279000, -2.966300
  0.281000, -3.712800
  0.283000, -4.455700
  0.285000, -5.196800
  0.287000, -5.935100
  0.289000, -6.659300
  0.291000, -7.371500
  0.293000, -8.078400
  0.295000, -8.774600
  0.297000, -9.457300
  0.299000,-10.127200
  0.301000,-10.778100
  0.303000,-11.410400
  0.305000,-12.028600
  0.307000,-12.627900
  0.309000,-13.209300
  0.311000,-13.773000
  0.313000,-14.310900
  0.315000,-14.824200
  0.317000,-15.316300
  0.319000,-15.784700
  0.321000,-16.228500
  0.323000,-16.646800
  0.325000,-17.040600
  0.327000,-17.410600
  0.329000,-17.755500
  0.331000,-18.071700
  0.333000,-18.360900
  0.335000,-18.623800
  0.337000,-18.859500
  0.339000,-19.068600
  0.341000,-19.250700
  0.343000,-19.405600
  0.345000,-19.533700
  0.347000,-19.635600
  0.349000,-19.710700
  0.351000,-19.759400
  0.353000,-19.783100
  0.355000,-19.781700
  0.357000,-19.756800
  0.359000,-19.709000
  0.361000,-19.637200
  0.363000,-19.544500
  0.365000,-19.431900
  0.367000,-19.298800
  0.369000,-19.145200
  0.371000,-18.972900
  0.373000,-18.783900
  0.375000,-18.579900
  0.377000,-18.361500
  0.379000,-18.128300
  0.381000,-17.883700
  0.383000,-17.629000
  0.385000,-17.364400
  0.387000,-17.090800
  0.389000,-16.809700
  0.391000,-16.523400
  0.393000,-16.232600
  0.395000,-15.937700
  0.397000,-15.640300
  0.399000,-15.342700
  0.401000,-15.044400
  0.403000,-14.746800
  0.405000,-14.451700
  0.407000,-14.159300
  0.409000,-13.870000
  0.411000,-13.583400
  0.413000,-13.301700
  0.415000,-13.025700
  0.417000,-12.755600
  0.419000,-12.491900
  0.421000,-12.235100
  0.423000,-11.985900
  0.425000,-11.744300
  0.427000,-11.510300
  0.429000,-11.285000
  0.431000,-11.068300
  0.433000,-10.859300
  0.435000,-10.658200
  0.437000,-10.465400
  0.439000,-10.281200
  0.441000,-10.105800
  0.443000, -9.938300
  0.445000, -9.778200
  0.447000, -9.625200
  0.449000, -9.478400
  0.451000, -9.338200
  0.453000, -9.205500
  0.455000, -9.080300
  0.457000, -8.961300
  0.459000, -8.846800
  0.461000, -8.737700
  0.463000, -8.634700
  0.465000, -8.536600
  0.467000, -8.441900
  0.469000, -8.350700
  0.471000, -8.261800
  0.473000, -8.175000
  0.475000, -8.091300
  0.477000, -8.009900
  0.479000, -7.930500
  0.481000, -7.851900
  0.483000, -7.773200
  0.485000, -7.694200
  0.487000, -7.615000
  0.489000, -7.535600
  0.491000, -7.454700
  0.493000, -7.372300
  0.495000, -7.288600
  0.497000, -7.202400
  0.499000, -7.113200
  0.501000, -7.021300
  0.503000, -6.926700
  0.505000, -6.829000
  0.507000, -6.727900
  0.509000, -6.623100
  0.511000, -6.514600
  0.513000, -6.402200
  0.515000, -6.285800
  0.517000, -6.165600
  0.519000, -6.041500
  0.521000, -5.913400
  0.523000, -5.781400
  0.525000, -5.644800
  0.527000, -5.504400
  0.529000, -5.360400
  0.531000, -5.212400
  0.533000, -5.061300
  0.535000, -4.907200
  0.537000, -4.749700
  0.539000, -4.588900
  0.541000, -4.425000
  0.543000, -4.259100
  0.545000, -4.091100
  0.547000, -3.920400
  0.549000, -3.749200
  0.551000, -3.577400
  0.553000, -3.404300
  0.555000, -3.230400
  0.557000, -3.056500
  0.559000, -2.883800
  0.561000, -2.712400
  0.563000, -2.541500
  0.565000, -2.372500
  0.567000, -2.205700
  0.569000, -2.040200
  0.571000, -1.878300
  0.573000, -1.720200
  0.575000, -1.566300
  0.577000, -1.415000
  0.579000, -1.267500
  0.581000, -1.126300
  0.583000, -0.989800
  0.585000, -0.858900
  0.587000, -0.734200
  0.589000, -0.615600
  0.591000, -0.503400
  0.593000, -0.397100
  0.595000, -0.297900
  0.597000, -0.206200
  0.599000, -0.121300
  0.601000, -0.043500
  0.603000,  0.027300
  0.605000,  0.091100
  0.607000,  0.147700
  0.609000,  0.197400
  0.611000,  0.240100
  0.613000,  0.275400
  0.615000,  0.303800
  0.617000,  0.325500
  0.619000,  0.340100
  0.621000,  0.348000
  0.623000,  0.349800
  0.625000,  0.346000
  0.627000,  0.337000
  0.629000,  0.323000
  0.631000,  0.303700
  0.633000,  0.279200
  0.635000,  0.249900
  0.637000,  0.217100
  0.639000,  0.180600
  0.641000,  0.139200
  0.643000,  0.095000
  0.645000,  0.049200
  0.647000,  0.000400
  0.649000, -0.050400
  0.651000, -0.103300
  0.653000, -0.157900
  0.655000, -0.212900
  0.657000, -0.269900
  0.659000, -0.328300
  0.661000, -0.385700
  0.663000, -0.442900
  0.665000, -0.500300
  0.667000, -0.557000
  0.669000, -0.613600
  0.671000, -0.669300
  0.673000, -0.724000
  0.675000, -0.777700
  0.677000, -0.829500
  0.679000, -0.880300
  0.681000, -0.929500
  0.683000, -0.976900
  0.685000, -1.022600
  0.687000, -1.065900
  0.689000, -1.107000
  0.691000, -1.146000
  0.693000, -1.182700
  0.695000, -1.217300
  0.697000, -1.249900
  0.699000, -1.280200
  0.701000, -1.308200
  0.703000, -1.333800
  0.705000, -1.356800
  0.707000, -1.377700
  0.709000, -1.396800
  0.711000, -1.413900
  0.713000, -1.428900
  0.715000, -1.441600
  0.717000, -1.452500
  0.719000, -1.461900
  0.721000, -1.469300
  0.723000, -1.475200
  0.725000, -1.479400
  0.727000, -1.482100
  0.729000, -1.483700
  0.731000, -1.483600
  0.733000, -1.481900
  0.735000, -1.479400
  0.737000, -1.476300
  0.739000, -1.472100
  0.741000, -1.467000
  0.743000, -1.461400
  0.745000, -1.455200
  0.747000, -1.448000
  0.749000, -1.440300
  0.751000, -1.432300
  0.753000, -1.423900
  0.755000, -1.415200
  0.757000, -1.406400
  0.759000, -1.397100
  0.761000, -1.387800
  0.763000, -1.378200
  0.765000, -1.368100
  0.767000, -1.358100
  0.769000, -1.347900
  0.771000, -1.337400
  0.773000, -1.326700
  0.775000, -1.316000
  0.777000, -1.305200
  0.779000, -1.294300
  0.781000, -1.283200
  0.783000, -1.272000
  0.785000, -1.260600
  0.787000, -1.248900
  0.789000, -1.236800
  0.791000, -1.224500
  0.793000, -1.211800
  0.795000, -1.198700
  0.797000, -1.185300
  0.799000, -1.171500
  0.801000, -1.157300
  0.803000, -1.142600
  0.805000, -1.127400
  0.807000, -1.111700
  0.809000, -1.095500
  0.811000, -1.078700
  0.813000, -1.061500
  0.815000, -1.043700
  0.817000, -1.025400
  0.819000, -1.006400
  0.821000, -0.986800
  0.823000, -0.966600
  0.825000, -0.945800
  0.827000, -0.924400
  0.829000, -0.902600
  0.831000, -0.880200
  0.833000, -0.857000
  0.835000, -0.833400
  0.837000, -0.809500
  0.839000, -0.785200
  0.841000, -0.760600
  0.843000, -0.735800
  0.845000, -0.710400
  0.847000, -0.684800
  0.849000, -0.659200
  0.851000, -0.633100
  0.853000, -0.606800
  0.855000, -0.580300
  0.857000, -0.553800
  0.859000, -0.527400
  0.861000, -0.501400
  0.863000, -0.475600
  0.865000, -0.449600
  0.867000, -0.424000
  0.869000, -0.398600
  0.871000, -0.373500
  0.873000, -0.349000
  0.875000, -0.324800
  0.877000, -0.301300
  0.879000, -0.278400
  0.881000, -0.255900
  0.883000, -0.234100
  0.885000, -0.213000
  0.887000, -0.192600
  0.889000, -0.173100
  0.891000, -0.154500
  0.893000, -0.136600
  0.895000, -0.119700
  0.897000, -0.103600
  0.899000, -0.088500
  0.901000, -0.074200
  0.903000, -0.060700
  0.905000, -0.048200
  0.907000, -0.036700
  0.909000, -0.026000
  0.911000, -0.016400
  0.913000, -0.007700
  0.915000,  0.000200
  0.917000,  0.007200
  0.919000,  0.013200
  0.921000,  0.018300
  0.923000,  0.022400
  0.925000,  0.025700
  0.927000,  0.028200
  0.929000,  0.030000
  0.931000,  0.031000
  0.933000,  0.031300
  0.935000,  0.031000
  0.937000,  0.029800
  0.939000,  0.027900
  0.941000,  0.025400
  0.943000,  0.022200
  0.945000,  0.018500
  0.947000,  0.014300
  0.949000,  0.009700
  0.951000,  0.004700
  0.953000, -0.000700
  0.955000, -0.006600
  0.957000, -0.012800
  0.959000, -0.019200
  0.961000, -0.025800
  0.963000, -0.032900
  0.965000, -0.040300
  0.967000, -0.047800
  0.969000, -0.055600
  0.971000, -0.063700
  0.973000, -0.071800
  0.975000, -0.080000
  0.977000, -0.088200
  0.979000, -0.096400
  0.981000, -0.104700
  0.983000, -0.113000
  0.985000, -0.121200
  0.987000, -0.129300
  0.989000, -0.137400
  0.991000, -0.145600
  0.993000, -0.153600
  0.995000, -0.161600
  0.997000, -0.169600
  0.999000, -0.177300
  1.001000, -0.184900
  1.003000, -0.192500
  1.005000, -0.200000
  1.007000, -0.207300
  1.009000, -0.214500
  1.011000, -0.221400
  1.013000, -0.228200
  1.015000, -0.234900
  1.017000, -0.241500
  1.019000, -0.247900
  1.021000, -0.254000
  1.023000, -0.260100
  1.025000, -0.266100
  1.027000, -0.271800
  1.029000, -0.277300
  1.031000, -0.282600
  1.033000, -0.288000
  1.035000, -0.293100
  1.037000, -0.297900
  1.039000, -0.302500
  1.041000, -0.307100
  1.043000, -0.311600
  1.045000, -0.315900
  1.047000, -0.319900
  1.049000, -0.323800
  1.051000, -0.327400
  1.053000, -0.330900
  1.055000, -0.334300
  1.057000, -0.337400
  1.059000, -0.340300
  1.061000, -0.343200
  1.063000, -0.345900
  1.065000, -0.348500
  1.067000, -0.350800
  1.069000, -0.352800
  1.071000, -0.354500
  1.073000, -0.356100
  1.075000, -0.357600
  1.077000, -0.358800
  1.079000, -0.359800
  1.081000, -0.360600
  1.083000, -0.360900
  1.085000, -0.361100
  1.087000, -0.360900
  1.089000, -0.360600
  1.091000, -0.360000
  1.093000, -0.359100
  1.095000, -0.357800
  1.097000, -0.356300
  1.099000, -0.354600
  1.101000, -0.352600
  1.103000, -0.350200
  1.105000, -0.347600
  1.107000, -0.344700
  1.109000, -0.341400
  1.111000, -0.337700
  1.113000, -0.333700
  1.115000, -0.329400
  1.117000, -0.324800
  1.119000, -0.320000
  1.121000, -0.314900
  1.123000, -0.309600
  1.125000, -0.303900
  1.127000, -0.297700
  1.129000, -0.291500
  1.131000, -0.285100
  1.133000, -0.278300
  1.135000, -0.271300
  1.137000, -0.264100
  1.139000, -0.256700
  1.141000, -0.249200
  1.143000, -0.241500
  1.145000, -0.233700
  1.147000, -0.225800
  1.149000, -0.217700
  1.151000, -0.209500
  1.153000, -0.201300
  1.155000, -0.193000
  1.157000, -0.184600
  1.159000, -0.176300
  1.161000, -0.168000
  1.163000, -0.159600
  1.165000, -0.151200
  1.167000, -0.142900
  1.169000, -0.134700
  1.171000, -0.126600
  1.173000, -0.118600
  1.175000, -0.110700
  1.177000, -0.102900
  1.179000, -0.095400
  1.181000, -0.088200
  1.183000, -0.081000
  1.185000, -0.074000
  1.187000, -0.067200
  1.189000, -0.060900
  1.191000, -0.054900
  1.193000, -0.049000
  1.195000, -0.043200
  1.197000, -0.037700
  1.199000, -0.032400
  1.201000, -0.027300
  1.203000, -0.022400
  1.205000, -0.017900
  1.207000, -0.013600
  1.209000, -0.009700
  1.211000, -0.006100
  1.213000, -0.002600
  1.215000,  0.000600
  1.217000,  0.003500
  1.219000,  0.006200
  1.221000,  0.008500
  1.223000,  0.010600
  1.225000,  0.012500
  1.227000,  0.014100
  1.229000,  0.015500
  1.231000,  0.016700
  1.233000,  0.017800
  1.235000,  0.018700
  1.237000,  0.019500
  1.239000,  0.019900
  1.241000,  0.020300
  1.243000,  0.020500
  1.245000,  0.020500
  1.247000,  0.020400
  1.249000,  0.020100
  1.251000,  0.019800
  1.253000,  0.019300
  1.255000,  0.018800
  1.257000,  0.018100
  1.259000,  0.017200
  1.261000,  0.016100
  1.263000,  0.015000
  1.265000,  0.013900
  1.267000,  0.012700
  1.269000,  0.011500
  1.271000,  0.010100
  1.273000,  0.008600
  1.275000,  0.007100
  1.277000,  0.005800
  1.279000,  0.004300
  1.281000,  0.002600
  1.283000,  0.001100
  1.285000, -0.000600
  1.287000, -0.002300
  1.289000, -0.004000
  1.291000, -0.005600
  1.293000, -0.007200
  1.295000, -0.008700
  1.297000, -0.010400
  1.299000, -0.012000
  1.301000, -0.013500
  1.303000, -0.015100
  1.305000, -0.016500
  1.307000, -0.017900
  1.309000, -0.019400
  1.311000, -0.020800
  1.313000, -0.022000
  1.315000, -0.023100
  1.317000, -0.024200
  1.319000, -0.025300
  1.321000, -0.026100
  1.323000, -0.026700
  1.325000, -0.027200
  1.327000, -0.027600
  1.329000, -0.027800
  1.331000, -0.027900
  1.333000, -0.027800
  1.335000, -0.027600
  1.337000, -0.027200
  1.339000, -0.026500
  1.341000, -0.025700
  1.343000, -0.024700
  1.345000, -0.023500
  1.347000, -0.022200
  1.349000, -0.020700
  1.351000, -0.019100
  1.353000, -0.017300
  1.355000, -0.015400
  1.357000, -0.013200
  1.359000, -0.011000
  1.361000, -0.008700
  1.363000, -0.006200
  1.365000, -0.003500
  1.367000, -0.000600
  1.369000,  0.002300
  1.371000,  0.005400
  1.373000,  0.008600
  1.375000,  0.011700
  1.377000,  0.014800
  1.379000,  0.017900
  1.381000,  0.020900
  1.383000,  0.024200
  1.385000,  0.027500
  1.387000,  0.030700
  1.389000,  0.033700
  1.391000,  0.036400
  1.393000,  0.038900
  1.395000,  0.041200
  1.397000,  0.043300
  1.399000,  0.044900
