# z (nm)   (kJ/mol)
  0.261000, 17.094600
  0.265000, 16.582800
  0.269000, 16.265100
  0.271000, 15.904000
  0.273000, 15.552800
  0.275000, 15.191900
  0.277000, 14.782000
  0.279000, 14.343000
  0.281000, 13.912800
  0.283000, 13.490400
  0.285000, 13.060100
  0.287000, 12.618300
  0.289000, 12.173600
  0.291000, 11.713500
  0.293000, 11.253500
  0.295000, 10.803100
  0.297000, 10.342000
  0.299000,  9.870400
  0.301000,  9.404600
  0.303000,  8.949300
  0.305000,  8.496000
  0.307000,  8.036300
  0.309000,  7.577600
  0.311000,  7.116700
  0.313000,  6.654400
  0.315000,  6.201800
  0.317000,  5.758000
  0.319000,  5.325400
  0.321000,  4.900300
  0.323000,  4.472700
  0.325000,  4.051000
  0.327000,  3.642200
  0.329000,  3.243100
  0.331000,  2.855200
  0.333000,  2.476900
  0.335000,  2.100600
  0.337000,  1.736600
  0.339000,  1.390600
  0.341000,  1.055100
  0.343000,  0.728100
  0.345000,  0.413000
  0.347000,  0.111600
  0.349000, -0.177800
  0.351000, -0.456300
  0.353000, -0.721500
  0.355000, -0.974100
  0.357000, -1.215700
  0.359000, -1.440700
  0.361000, -1.649600
  0.363000, -1.844000
  0.365000, -2.025700
  0.367000, -2.196000
  0.369000, -2.351500
  0.371000, -2.493400
  0.373000, -2.623800
  0.375000, -2.741500
  0.377000, -2.846600
  0.379000, -2.938200
  0.381000, -3.016700
  0.383000, -3.083200
  0.385000, -3.136400
  0.387000, -3.176900
  0.389000, -3.205400
  0.391000, -3.221000
  0.393000, -3.225000
  0.395000, -3.218500
  0.397000, -3.200400
  0.399000, -3.172100
  0.401000, -3.133800
  0.403000, -3.085500
  0.405000, -3.028000
  0.407000, -2.961200
  0.409000, -2.886300
  0.411000, -2.802900
  0.413000, -2.710700
  0.415000, -2.611400
  0.417000, -2.505800
  0.419000, -2.394600
  0.421000, -2.278900
  0.423000, -2.159800
  0.425000, -2.037800
  0.427000, -1.910700
  0.429000, -1.779300
  0.431000, -1.647000
  0.433000, -1.511800
  0.435000, -1.373600
  0.437000, -1.235200
  0.439000, -1.097600
  0.441000, -0.960300
  0.443000, -0.822500
  0.445000, -0.685400
  0.447000, -0.549800
  0.449000, -0.416200
  0.451000, -0.284600
  0.453000, -0.155200
  0.455000, -0.028800
  0.457000,  0.094500
  0.459000,  0.214300
  0.461000,  0.331100
  0.463000,  0.444200
  0.465000,  0.552900
  0.467000,  0.657500
  0.469000,  0.757900
  0.471000,  0.853300
  0.473000,  0.944100
  0.475000,  1.030700
  0.477000,  1.112600
  0.479000,  1.189400
  0.481000,  1.261500
  0.483000,  1.329200
  0.485000,  1.392100
  0.487000,  1.450000
  0.489000,  1.503200
  0.491000,  1.551700
  0.493000,  1.595500
  0.495000,  1.634000
  0.497000,  1.667600
  0.499000,  1.697000
  0.501000,  1.721600
  0.503000,  1.741200
  0.505000,  1.756500
  0.507000,  1.767000
  0.509000,  1.773400
  0.511000,  1.775900
  0.513000,  1.774000
  0.515000,  1.768000
  0.517000,  1.757800
  0.519000,  1.743400
  0.521000,  1.725500
  0.523000,  1.704000
  0.525000,  1.678600
  0.527000,  1.649800
  0.529000,  1.617300
  0.531000,  1.581800
  0.533000,  1.543300
  0.535000,  1.501900
  0.537000,  1.457500
  0.539000,  1.410000
  0.541000,  1.360000
  0.543000,  1.307400
  0.545000,  1.252100
  0.547000,  1.194400
  0.549000,  1.134600
  0.551000,  1.073100
  0.553000,  1.009700
  0.555000,  0.944600
  0.557000,  0.877600
  0.559000,  0.808300
  0.561000,  0.737800
  0.563000,  0.666500
  0.565000,  0.593900
  0.567000,  0.520000
  0.569000,  0.445500
  0.571000,  0.370800
  0.573000,  0.295200
  0.575000,  0.219400
  0.577000,  0.144300
  0.579000,  0.069200
  0.581000, -0.006400
  0.583000, -0.081600
  0.585000, -0.156400
  0.587000, -0.230800
  0.589000, -0.304400
  0.591000, -0.377300
  0.593000, -0.448700
  0.595000, -0.518800
  0.597000, -0.588000
  0.599000, -0.655900
  0.601000, -0.722200
  0.603000, -0.787200
  0.605000, -0.850400
  0.607000, -0.911700
  0.609000, -0.971200
  0.611000, -1.028500
  0.613000, -1.083300
  0.615000, -1.135900
  0.617000, -1.186700
  0.619000, -1.235000
  0.621000, -1.281000
  0.623000, -1.324700
  0.625000, -1.366200
  0.627000, -1.405400
  0.629000, -1.442200
  0.631000, -1.476300
  0.633000, -1.507700
  0.635000, -1.536700
  0.637000, -1.563200
  0.639000, -1.587200
  0.641000, -1.608600
  0.643000, -1.627400
  0.645000, -1.643800
  0.647000, -1.657900
  0.649000, -1.669500
  0.651000, -1.678600
  0.653000, -1.685300
  0.655000, -1.689700
  0.657000, -1.691700
  0.659000, -1.691400
  0.661000, -1.689000
  0.663000, -1.684500
  0.665000, -1.677900
  0.667000, -1.669200
  0.669000, -1.658600
  0.671000, -1.646100
  0.673000, -1.631600
  0.675000, -1.615200
  0.677000, -1.597100
  0.679000, -1.577200
  0.681000, -1.555900
  0.683000, -1.533000
  0.685000, -1.508400
  0.687000, -1.482300
  0.689000, -1.454600
  0.691000, -1.425800
  0.693000, -1.395700
  0.695000, -1.364400
  0.697000, -1.332000
  0.699000, -1.298700
  0.701000, -1.264500
  0.703000, -1.229400
  0.705000, -1.193500
  0.707000, -1.156800
  0.709000, -1.119300
  0.711000, -1.081300
  0.713000, -1.042900
  0.715000, -1.004000
  0.717000, -0.964700
  0.719000, -0.925200
  0.721000, -0.885500
  0.723000, -0.845700
  0.725000, -0.805700
  0.727000, -0.765700
  0.729000, -0.726000
  0.731000, -0.686400
  0.733000, -0.647100
  0.735000, -0.608100
  0.737000, -0.569400
  0.739000, -0.531400
  0.741000, -0.493900
  0.743000, -0.457000
  0.745000, -0.420500
  0.747000, -0.384900
  0.749000, -0.350100
  0.751000, -0.315900
  0.753000, -0.282800
  0.755000, -0.250800
  0.757000, -0.219900
  0.759000, -0.189700
  0.761000, -0.160500
  0.763000, -0.132700
  0.765000, -0.106000
  0.767000, -0.080500
  0.769000, -0.056200
  0.771000, -0.033100
  0.773000, -0.011400
  0.775000,  0.009200
  0.777000,  0.028600
  0.779000,  0.046800
  0.781000,  0.063700
  0.783000,  0.079300
  0.785000,  0.093500
  0.787000,  0.106500
  0.789000,  0.118200
  0.791000,  0.128800
  0.793000,  0.138200
  0.795000,  0.146400
  0.797000,  0.153400
  0.799000,  0.159200
  0.801000,  0.164000
  0.803000,  0.167800
  0.805000,  0.170700
  0.807000,  0.172700
  0.809000,  0.173700
  0.811000,  0.173900
  0.813000,  0.173000
  0.815000,  0.171400
  0.817000,  0.169100
  0.819000,  0.166200
  0.821000,  0.162600
  0.823000,  0.158300
  0.825000,  0.153500
  0.827000,  0.148100
  0.829000,  0.142300
  0.831000,  0.136200
  0.833000,  0.129500
  0.835000,  0.122500
  0.837000,  0.115300
  0.839000,  0.107900
  0.841000,  0.100300
  0.843000,  0.092600
  0.845000,  0.084900
  0.847000,  0.077000
  0.849000,  0.069000
  0.851000,  0.061100
  0.853000,  0.053300
  0.855000,  0.045600
  0.857000,  0.037900
  0.859000,  0.030400
  0.861000,  0.023000
  0.863000,  0.015700
  0.865000,  0.008600
  0.867000,  0.001700
  0.869000, -0.005000
  0.871000, -0.011400
  0.873000, -0.017400
  0.875000, -0.023400
  0.877000, -0.029000
  0.879000, -0.034100
  0.881000, -0.039000
  0.883000, -0.043600
  0.885000, -0.048000
  0.887000, -0.052200
  0.889000, -0.056000
  0.891000, -0.059600
  0.893000, -0.062700
  0.895000, -0.065400
  0.897000, -0.067800
  0.899000, -0.069900
  0.901000, -0.071800
  0.903000, -0.073400
  0.905000, -0.074600
  0.907000, -0.075600
  0.909000, -0.076400
  0.911000, -0.076900
  0.913000, -0.077200
  0.915000, -0.077300
  0.917000, -0.077200
  0.919000, -0.076900
  0.921000, -0.076400
  0.923000, -0.075700
  0.925000, -0.074900
  0.927000, -0.074000
  0.929000, -0.072900
  0.931000, -0.071600
  0.933000, -0.070300
  0.935000, -0.068900
  0.937000, -0.067500
  0.939000, -0.066100
  0.941000, -0.064800
  0.943000, -0.063300
  0.945000, -0.061700
  0.947000, -0.059900
  0.949000, -0.058300
  0.951000, -0.056500
  0.953000, -0.054600
  0.955000, -0.052800
  0.957000, -0.050900
  0.959000, -0.049100
  0.961000, -0.047200
  0.963000, -0.045400
  0.965000, -0.043500
  0.967000, -0.041600
  0.969000, -0.039900
  0.971000, -0.038100
  0.973000, -0.036300
  0.975000, -0.034600
  0.977000, -0.032900
  0.979000, -0.031200
  0.981000, -0.029400
  0.983000, -0.027500
  0.985000, -0.025700
  0.987000, -0.024000
  0.989000, -0.022200
  0.991000, -0.020300
  0.993000, -0.018300
  0.995000, -0.016300
  0.997000, -0.014300
  0.999000, -0.012100
  1.001000, -0.009900
  1.003000, -0.007700
  1.005000, -0.005300
  1.007000, -0.002900
  1.009000, -0.000600
  1.011000,  0.001800
  1.013000,  0.004300
  1.015000,  0.006900
  1.017000,  0.009600
  1.019000,  0.012400
  1.021000,  0.015300
  1.023000,  0.018300
  1.025000,  0.021300
  1.027000,  0.024500
  1.029000,  0.027700
  1.031000,  0.031100
  1.033000,  0.034500
  1.035000,  0.037900
  1.037000,  0.041200
  1.039000,  0.044500
  1.041000,  0.047800
  1.043000,  0.051200
  1.045000,  0.054500
  1.047000,  0.057900
  1.049000,  0.061300
  1.051000,  0.064600
  1.053000,  0.067900
  1.055000,  0.071000
  1.057000,  0.074100
  1.059000,  0.077200
  1.061000,  0.080300
  1.063000,  0.083200
  1.065000,  0.086000
  1.067000,  0.088700
  1.069000,  0.091200
  1.071000,  0.093500
  1.073000,  0.095800
  1.075000,  0.098000
  1.077000,  0.100000
  1.079000,  0.101700
  1.081000,  0.103200
  1.083000,  0.104600
  1.085000,  0.105800
  1.087000,  0.106800
  1.089000,  0.107600
  1.091000,  0.108200
  1.093000,  0.108700
  1.095000,  0.109000
  1.097000,  0.109000
  1.099000,  0.109000
  1.101000,  0.108900
  1.103000,  0.108600
  1.105000,  0.108100
  1.107000,  0.107700
  1.109000,  0.106900
  1.111000,  0.106100
  1.113000,  0.105000
  1.115000,  0.103900
  1.117000,  0.102700
  1.119000,  0.101400
  1.121000,  0.100100
  1.123000,  0.098600
  1.125000,  0.097000
  1.127000,  0.095400
  1.129000,  0.093600
  1.131000,  0.091900
  1.133000,  0.090000
  1.135000,  0.088100
  1.137000,  0.086300
  1.139000,  0.084500
  1.141000,  0.082800
  1.143000,  0.081100
  1.145000,  0.079400
  1.147000,  0.077600
  1.149000,  0.075900
  1.151000,  0.074300
  1.153000,  0.072800
  1.155000,  0.071300
  1.157000,  0.069800
  1.159000,  0.068300
  1.161000,  0.066600
  1.163000,  0.064900
  1.165000,  0.063400
  1.167000,  0.061900
  1.169000,  0.060400
  1.171000,  0.058800
  1.173000,  0.057400
  1.175000,  0.055800
  1.177000,  0.054100
  1.179000,  0.052400
  1.181000,  0.050900
  1.183000,  0.049300
  1.185000,  0.047500
  1.187000,  0.045900
  1.189000,  0.044300
  1.191000,  0.042700
  1.193000,  0.041000
  1.195000,  0.039300
  1.197000,  0.037600
  1.199000,  0.035900
  1.201000,  0.034200
  1.203000,  0.032500
  1.205000,  0.030800
  1.207000,  0.029000
  1.209000,  0.027200
  1.211000,  0.025500
  1.213000,  0.023700
  1.215000,  0.022000
  1.217000,  0.020300
  1.219000,  0.018500
  1.221000,  0.016900
  1.223000,  0.015200
  1.225000,  0.013600
  1.227000,  0.011800
  1.229000,  0.010200
  1.231000,  0.008600
  1.233000,  0.007100
  1.235000,  0.005700
  1.237000,  0.004200
  1.239000,  0.002700
  1.241000,  0.001200
  1.243000, -0.000200
  1.245000, -0.001500
  1.247000, -0.002700
  1.249000, -0.003900
  1.251000, -0.005000
  1.253000, -0.006000
  1.255000, -0.006900
  1.257000, -0.007900
  1.259000, -0.008800
  1.261000, -0.009600
  1.263000, -0.010300
  1.265000, -0.011100
  1.267000, -0.011700
  1.269000, -0.012300
  1.271000, -0.012900
  1.273000, -0.013300
  1.275000, -0.013700
  1.277000, -0.014200
  1.279000, -0.014500
  1.281000, -0.014800
  1.283000, -0.014900
  1.285000, -0.015100
  1.287000, -0.015300
  1.289000, -0.015400
  1.291000, -0.015600
  1.293000, -0.015800
  1.295000, -0.016000
  1.297000, -0.016200
  1.299000, -0.016500
  1.301000, -0.016600
  1.303000, -0.016800
  1.305000, -0.017000
  1.307000, -0.017100
  1.309000, -0.017300
  1.311000, -0.017500
  1.313000, -0.017700
  1.315000, -0.017900
  1.317000, -0.018000
  1.319000, -0.018000
  1.321000, -0.018000
  1.323000, -0.017900
  1.325000, -0.017900
  1.327000, -0.017700
  1.329000, -0.017600
  1.331000, -0.017500
  1.333000, -0.017200
  1.335000, -0.016900
  1.337000, -0.016500
  1.339000, -0.016100
  1.341000, -0.015400
  1.343000, -0.014600
  1.345000, -0.013800
  1.347000, -0.012900
  1.349000, -0.011800
  1.351000, -0.010600
  1.353000, -0.009400
  1.355000, -0.008000
  1.357000, -0.006500
  1.359000, -0.004900
  1.361000, -0.003100
  1.363000, -0.001000
  1.365000,  0.001100
  1.367000,  0.003300
  1.369000,  0.005900
  1.371000,  0.008500
  1.373000,  0.011000
  1.375000,  0.013700
  1.377000,  0.016400
  1.379000,  0.019400
  1.381000,  0.022300
  1.383000,  0.025200
  1.385000,  0.028300
  1.387000,  0.031400
  1.389000,  0.034200
  1.391000,  0.036800
  1.393000,  0.039200
  1.395000,  0.041200
  1.397000,  0.042900
  1.399000,  0.044400
