# z (nm)   (kJ/mol)
  0.285000, 14.501300
  0.287000, 14.076900
  0.289000, 13.638400
  0.291000, 13.191900
  0.293000, 12.752400
  0.295000, 12.319500
  0.297000, 11.872600
  0.299000, 11.419000
  0.301000, 10.966400
  0.303000, 10.499000
  0.305000, 10.019800
  0.307000,  9.529300
  0.309000,  9.038700
  0.311000,  8.557600
  0.313000,  8.075700
  0.315000,  7.586300
  0.317000,  7.096800
  0.319000,  6.611400
  0.321000,  6.126700
  0.323000,  5.646400
  0.325000,  5.167700
  0.327000,  4.688800
  0.329000,  4.212400
  0.331000,  3.741500
  0.333000,  3.274900
  0.335000,  2.815100
  0.337000,  2.365300
  0.339000,  1.920500
  0.341000,  1.475600
  0.343000,  1.040000
  0.345000,  0.616800
  0.347000,  0.197400
  0.349000, -0.216600
  0.351000, -0.624900
  0.353000, -1.024000
  0.355000, -1.411500
  0.357000, -1.794200
  0.359000, -2.173200
  0.361000, -2.542500
  0.363000, -2.902100
  0.365000, -3.252600
  0.367000, -3.596300
  0.369000, -3.931900
  0.371000, -4.260000
  0.373000, -4.581100
  0.375000, -4.891700
  0.377000, -5.192000
  0.379000, -5.483600
  0.381000, -5.766000
  0.383000, -6.039200
  0.385000, -6.304600
  0.387000, -6.562400
  0.389000, -6.811800
  0.391000, -7.051000
  0.393000, -7.281100
  0.395000, -7.502300
  0.397000, -7.714400
  0.399000, -7.916700
  0.401000, -8.108900
  0.403000, -8.292000
  0.405000, -8.465900
  0.407000, -8.631700
  0.409000, -8.787100
  0.411000, -8.932100
  0.413000, -9.068400
  0.415000, -9.194700
  0.417000, -9.311300
  0.419000, -9.419600
  0.421000, -9.518900
  0.423000, -9.610300
  0.425000, -9.694300
  0.427000, -9.769100
  0.429000, -9.833300
  0.431000, -9.886900
  0.433000, -9.931900
  0.435000, -9.970400
  0.437000,-10.000300
  0.439000,-10.021800
  0.441000,-10.037200
  0.443000,-10.044500
  0.445000,-10.043900
  0.447000,-10.036000
  0.449000,-10.020400
  0.451000, -9.997700
  0.453000, -9.968100
  0.455000, -9.932000
  0.457000, -9.889200
  0.459000, -9.839900
  0.461000, -9.784500
  0.463000, -9.722900
  0.465000, -9.655700
  0.467000, -9.583000
  0.469000, -9.504700
  0.471000, -9.420900
  0.473000, -9.332000
  0.475000, -9.237600
  0.477000, -9.138100
  0.479000, -9.034000
  0.481000, -8.925100
  0.483000, -8.812100
  0.485000, -8.694600
  0.487000, -8.572800
  0.489000, -8.447100
  0.491000, -8.317500
  0.493000, -8.184000
  0.495000, -8.047100
  0.497000, -7.907500
  0.499000, -7.764800
  0.501000, -7.619000
  0.503000, -7.470400
  0.505000, -7.319200
  0.507000, -7.165600
  0.509000, -7.010000
  0.511000, -6.852700
  0.513000, -6.693700
  0.515000, -6.533000
  0.517000, -6.370900
  0.519000, -6.208000
  0.521000, -6.044300
  0.523000, -5.879400
  0.525000, -5.713900
  0.527000, -5.548500
  0.529000, -5.383400
  0.531000, -5.218700
  0.533000, -5.054300
  0.535000, -4.890900
  0.537000, -4.728800
  0.539000, -4.567900
  0.541000, -4.408500
  0.543000, -4.251100
  0.545000, -4.096100
  0.547000, -3.943500
  0.549000, -3.793400
  0.551000, -3.646500
  0.553000, -3.503000
  0.555000, -3.362900
  0.557000, -3.226800
  0.559000, -3.094600
  0.561000, -2.966100
  0.563000, -2.842100
  0.565000, -2.722800
  0.567000, -2.608700
  0.569000, -2.500200
  0.571000, -2.396900
  0.573000, -2.298700
  0.575000, -2.205200
  0.577000, -2.117200
  0.579000, -2.034900
  0.581000, -1.957900
  0.583000, -1.886600
  0.585000, -1.821800
  0.587000, -1.763000
  0.589000, -1.710000
  0.591000, -1.662800
  0.593000, -1.621000
  0.595000, -1.584900
  0.597000, -1.553900
  0.599000, -1.528400
  0.601000, -1.508600
  0.603000, -1.493800
  0.605000, -1.483600
  0.607000, -1.477600
  0.609000, -1.476400
  0.611000, -1.479400
  0.613000, -1.485900
  0.615000, -1.495900
  0.617000, -1.509400
  0.619000, -1.525700
  0.621000, -1.544900
  0.623000, -1.566700
  0.625000, -1.591300
  0.627000, -1.617800
  0.629000, -1.646200
  0.631000, -1.676200
  0.633000, -1.707000
  0.635000, -1.738800
  0.637000, -1.771100
  0.639000, -1.804000
  0.641000, -1.837000
  0.643000, -1.869700
  0.645000, -1.901700
  0.647000, -1.933000
  0.649000, -1.962600
  0.651000, -1.991100
  0.653000, -2.018600
  0.655000, -2.044400
  0.657000, -2.068400
  0.659000, -2.090700
  0.661000, -2.111200
  0.663000, -2.129700
  0.665000, -2.146000
  0.667000, -2.160200
  0.669000, -2.172300
  0.671000, -2.181800
  0.673000, -2.189200
  0.675000, -2.194200
  0.677000, -2.196700
  0.679000, -2.196900
  0.681000, -2.195100
  0.683000, -2.190800
  0.685000, -2.184400
  0.687000, -2.175800
  0.689000, -2.165100
  0.691000, -2.152400
  0.693000, -2.137500
  0.695000, -2.120700
  0.697000, -2.102400
  0.699000, -2.082300
  0.701000, -2.060800
  0.703000, -2.037300
  0.705000, -2.012500
  0.707000, -1.986700
  0.709000, -1.959700
  0.711000, -1.931500
  0.713000, -1.902800
  0.715000, -1.873100
  0.717000, -1.842900
  0.719000, -1.812200
  0.721000, -1.781000
  0.723000, -1.749600
  0.725000, -1.718000
  0.727000, -1.686300
  0.729000, -1.654600
  0.731000, -1.622600
  0.733000, -1.590800
  0.735000, -1.559200
  0.737000, -1.527700
  0.739000, -1.496400
  0.741000, -1.465600
  0.743000, -1.435300
  0.745000, -1.405400
  0.747000, -1.375800
  0.749000, -1.346900
  0.751000, -1.318400
  0.753000, -1.290400
  0.755000, -1.263100
  0.757000, -1.236200
  0.759000, -1.209700
  0.761000, -1.183900
  0.763000, -1.158800
  0.765000, -1.134200
  0.767000, -1.110400
  0.769000, -1.087400
  0.771000, -1.064900
  0.773000, -1.043000
  0.775000, -1.021700
  0.777000, -1.001000
  0.779000, -0.981000
  0.781000, -0.961500
  0.783000, -0.942400
  0.785000, -0.923900
  0.787000, -0.905900
  0.789000, -0.888300
  0.791000, -0.871200
  0.793000, -0.854500
  0.795000, -0.838300
  0.797000, -0.822600
  0.799000, -0.807500
  0.801000, -0.792800
  0.803000, -0.778600
  0.805000, -0.764800
  0.807000, -0.751400
  0.809000, -0.738500
  0.811000, -0.725900
  0.813000, -0.713900
  0.815000, -0.702400
  0.817000, -0.691000
  0.819000, -0.679900
  0.821000, -0.669400
  0.823000, -0.659200
  0.825000, -0.649200
  0.827000, -0.639500
  0.829000, -0.630200
  0.831000, -0.621300
  0.833000, -0.612800
  0.835000, -0.604800
  0.837000, -0.597300
  0.839000, -0.590000
  0.841000, -0.583000
  0.843000, -0.576300
  0.845000, -0.569800
  0.847000, -0.563500
  0.849000, -0.557300
  0.851000, -0.551500
  0.853000, -0.546100
  0.855000, -0.540900
  0.857000, -0.535700
  0.859000, -0.530700
  0.861000, -0.526000
  0.863000, -0.521400
  0.865000, -0.517000
  0.867000, -0.512700
  0.869000, -0.508800
  0.871000, -0.504800
  0.873000, -0.501000
  0.875000, -0.497300
  0.877000, -0.493800
  0.879000, -0.490300
  0.881000, -0.486900
  0.883000, -0.483500
  0.885000, -0.480100
  0.887000, -0.476700
  0.889000, -0.473400
  0.891000, -0.470200
  0.893000, -0.466800
  0.895000, -0.463300
  0.897000, -0.459900
  0.899000, -0.456400
  0.901000, -0.452900
  0.903000, -0.449400
  0.905000, -0.445900
  0.907000, -0.442400
  0.909000, -0.438800
  0.911000, -0.435200
  0.913000, -0.431400
  0.915000, -0.427600
  0.917000, -0.423800
  0.919000, -0.419900
  0.921000, -0.416100
  0.923000, -0.412200
  0.925000, -0.408200
  0.927000, -0.404300
  0.929000, -0.400300
  0.931000, -0.396300
  0.933000, -0.392200
  0.935000, -0.388200
  0.937000, -0.384200
  0.939000, -0.380200
  0.941000, -0.376200
  0.943000, -0.372200
  0.945000, -0.368400
  0.947000, -0.364600
  0.949000, -0.360700
  0.951000, -0.357000
  0.953000, -0.353300
  0.955000, -0.349700
  0.957000, -0.346100
  0.959000, -0.342600
  0.961000, -0.339200
  0.963000, -0.336000
  0.965000, -0.332900
  0.967000, -0.330100
  0.969000, -0.327400
  0.971000, -0.324900
  0.973000, -0.322600
  0.975000, -0.320200
  0.977000, -0.317900
  0.979000, -0.315800
  0.981000, -0.313800
  0.983000, -0.312100
  0.985000, -0.310500
  0.987000, -0.309000
  0.989000, -0.307800
  0.991000, -0.306600
  0.993000, -0.305500
  0.995000, -0.304700
  0.997000, -0.304300
  0.999000, -0.303900
  1.001000, -0.303600
  1.003000, -0.303300
  1.005000, -0.303400
  1.007000, -0.303700
  1.009000, -0.303900
  1.011000, -0.304300
  1.013000, -0.304700
  1.015000, -0.305200
  1.017000, -0.305900
  1.019000, -0.306600
  1.021000, -0.307300
  1.023000, -0.308200
  1.025000, -0.309000
  1.027000, -0.309900
  1.029000, -0.310700
  1.031000, -0.311600
  1.033000, -0.312400
  1.035000, -0.313100
  1.037000, -0.313700
  1.039000, -0.314300
  1.041000, -0.314900
  1.043000, -0.315300
  1.045000, -0.315600
  1.047000, -0.315900
  1.049000, -0.315900
  1.051000, -0.315800
  1.053000, -0.315500
  1.055000, -0.315000
  1.057000, -0.314400
  1.059000, -0.313400
  1.061000, -0.312400
  1.063000, -0.311300
  1.065000, -0.309900
  1.067000, -0.308400
  1.069000, -0.306600
  1.071000, -0.304400
  1.073000, -0.302000
  1.075000, -0.299500
  1.077000, -0.296900
  1.079000, -0.293900
  1.081000, -0.290600
  1.083000, -0.287000
  1.085000, -0.283200
  1.087000, -0.279300
  1.089000, -0.275100
  1.091000, -0.270800
  1.093000, -0.266500
  1.095000, -0.261900
  1.097000, -0.257200
  1.099000, -0.252300
  1.101000, -0.247300
  1.103000, -0.242100
  1.105000, -0.236800
  1.107000, -0.231300
  1.109000, -0.225700
  1.111000, -0.220100
  1.113000, -0.214400
  1.115000, -0.208600
  1.117000, -0.202500
  1.119000, -0.196400
  1.121000, -0.190300
  1.123000, -0.184300
  1.125000, -0.178400
  1.127000, -0.172300
  1.129000, -0.166200
  1.131000, -0.160100
  1.133000, -0.154100
  1.135000, -0.148100
  1.137000, -0.142000
  1.139000, -0.136100
  1.141000, -0.130200
  1.143000, -0.124300
  1.145000, -0.118700
  1.147000, -0.113100
  1.149000, -0.107500
  1.151000, -0.102000
  1.153000, -0.096600
  1.155000, -0.091400
  1.157000, -0.086200
  1.159000, -0.081000
  1.161000, -0.076000
  1.163000, -0.071200
  1.165000, -0.066600
  1.167000, -0.062200
  1.169000, -0.057900
  1.171000, -0.053700
  1.173000, -0.049700
  1.175000, -0.045900
  1.177000, -0.042100
  1.179000, -0.038500
  1.181000, -0.035100
  1.183000, -0.031900
  1.185000, -0.028700
  1.187000, -0.025700
  1.189000, -0.022900
  1.191000, -0.020200
  1.193000, -0.017700
  1.195000, -0.015400
  1.197000, -0.013300
  1.199000, -0.011400
  1.201000, -0.009700
  1.203000, -0.008000
  1.205000, -0.006400
  1.207000, -0.005100
  1.209000, -0.003900
  1.211000, -0.003000
  1.213000, -0.002200
  1.215000, -0.001400
  1.217000, -0.000700
  1.219000, -0.000300
  1.221000,  0.000200
  1.223000,  0.000600
  1.225000,  0.000900
  1.227000,  0.001100
  1.229000,  0.001000
  1.231000,  0.000700
  1.233000,  0.000400
  1.235000,  0.000100
  1.237000, -0.000300
  1.239000, -0.000900
  1.241000, -0.001500
  1.243000, -0.002200
  1.245000, -0.002800
  1.247000, -0.003500
  1.249000, -0.004300
  1.251000, -0.005100
  1.253000, -0.006100
  1.255000, -0.007100
  1.257000, -0.008100
  1.259000, -0.009000
  1.261000, -0.010100
  1.263000, -0.011300
  1.265000, -0.012400
  1.267000, -0.013400
  1.269000, -0.014400
  1.271000, -0.015500
  1.273000, -0.016500
  1.275000, -0.017400
  1.277000, -0.018400
  1.279000, -0.019300
  1.281000, -0.020200
  1.283000, -0.021100
  1.285000, -0.022000
  1.287000, -0.022700
  1.289000, -0.023500
  1.291000, -0.024200
  1.293000, -0.024800
  1.295000, -0.025200
  1.297000, -0.025700
  1.299000, -0.026200
  1.301000, -0.026600
  1.303000, -0.026800
  1.305000, -0.026800
  1.307000, -0.026800
  1.309000, -0.026800
  1.311000, -0.026800
  1.313000, -0.026800
  1.315000, -0.026700
  1.317000, -0.026400
  1.319000, -0.025900
  1.321000, -0.025400
  1.323000, -0.024800
  1.325000, -0.023900
  1.327000, -0.022900
  1.329000, -0.021800
  1.331000, -0.020700
  1.333000, -0.019400
  1.335000, -0.018000
  1.337000, -0.016400
  1.339000, -0.014500
  1.341000, -0.012600
  1.343000, -0.010400
  1.345000, -0.008000
  1.347000, -0.005700
  1.349000, -0.003300
  1.351000, -0.000700
  1.353000,  0.002200
  1.355000,  0.005300
  1.357000,  0.008300
  1.359000,  0.011300
  1.361000,  0.014400
  1.363000,  0.017700
  1.365000,  0.021400
  1.367000,  0.025400
  1.369000,  0.029100
  1.371000,  0.032900
  1.373000,  0.036900
  1.375000,  0.040900
  1.377000,  0.044900
  1.379000,  0.048900
  1.381000,  0.053000
  1.383000,  0.057100
  1.385000,  0.061200
  1.387000,  0.064900
  1.389000,  0.068300
  1.391000,  0.071800
  1.393000,  0.075100
  1.395000,  0.078200
  1.397000,  0.081000
  1.399000,  0.083400
