# z (nm)   (kJ/mol)
  0.255000,  3.613000
  0.257000,  2.837600
  0.259000,  2.025600
  0.261000,  1.255200
  0.263000,  0.501400
  0.265000, -0.292800
  0.267000, -1.084800
  0.269000, -1.880900
  0.271000, -2.680100
  0.273000, -3.484100
  0.275000, -4.301600
  0.277000, -5.131900
  0.279000, -5.954800
  0.281000, -6.766500
  0.283000, -7.569500
  0.285000, -8.360200
  0.287000, -9.149200
  0.289000, -9.931200
  0.291000,-10.702100
  0.293000,-11.456300
  0.295000,-12.191200
  0.297000,-12.912000
  0.299000,-13.613700
  0.301000,-14.294800
  0.303000,-14.956300
  0.305000,-15.596900
  0.307000,-16.216200
  0.309000,-16.810400
  0.311000,-17.377400
  0.313000,-17.919300
  0.315000,-18.438600
  0.317000,-18.931600
  0.319000,-19.392400
  0.321000,-19.823200
  0.323000,-20.223300
  0.325000,-20.593300
  0.327000,-20.932200
  0.329000,-21.240000
  0.331000,-21.517000
  0.333000,-21.762200
  0.335000,-21.976800
  0.337000,-22.159800
  0.339000,-22.311200
  0.341000,-22.431400
  0.343000,-22.520000
  0.345000,-22.578000
  0.347000,-22.606600
  0.349000,-22.606200
  0.351000,-22.576600
  0.353000,-22.519500
  0.355000,-22.435200
  0.357000,-22.324100
  0.359000,-22.188300
  0.361000,-22.028400
  0.363000,-21.846800
  0.365000,-21.643000
  0.367000,-21.417300
  0.369000,-21.173500
  0.371000,-20.913800
  0.373000,-20.639300
  0.375000,-20.351000
  0.377000,-20.050200
  0.379000,-19.738800
  0.381000,-19.419000
  0.383000,-19.090700
  0.385000,-18.755300
  0.387000,-18.414700
  0.389000,-18.072200
  0.391000,-17.726900
  0.393000,-17.381300
  0.395000,-17.036600
  0.397000,-16.692500
  0.399000,-16.352000
  0.401000,-16.015600
  0.403000,-15.683400
  0.405000,-15.356900
  0.407000,-15.037000
  0.409000,-14.724200
  0.411000,-14.419000
  0.413000,-14.121900
  0.415000,-13.833600
  0.417000,-13.554000
  0.419000,-13.283400
  0.421000,-13.022500
  0.423000,-12.771700
  0.425000,-12.530400
  0.427000,-12.298600
  0.429000,-12.077000
  0.431000,-11.865200
  0.433000,-11.662200
  0.435000,-11.467600
  0.437000,-11.282200
  0.439000,-11.106100
  0.441000,-10.938000
  0.443000,-10.777000
  0.445000,-10.623300
  0.447000,-10.476300
  0.449000,-10.336200
  0.451000,-10.203000
  0.453000,-10.075600
  0.455000, -9.953800
  0.457000, -9.837400
  0.459000, -9.725000
  0.461000, -9.616300
  0.463000, -9.511800
  0.465000, -9.411300
  0.467000, -9.314200
  0.469000, -9.219600
  0.471000, -9.127300
  0.473000, -9.036600
  0.475000, -8.947300
  0.477000, -8.859100
  0.479000, -8.771900
  0.481000, -8.685600
  0.483000, -8.599800
  0.485000, -8.514200
  0.487000, -8.428600
  0.489000, -8.343000
  0.491000, -8.256800
  0.493000, -8.170000
  0.495000, -8.082500
  0.497000, -7.994400
  0.499000, -7.905300
  0.501000, -7.814900
  0.503000, -7.723200
  0.505000, -7.630300
  0.507000, -7.536000
  0.509000, -7.440200
  0.511000, -7.343000
  0.513000, -7.243800
  0.515000, -7.142800
  0.517000, -7.040300
  0.519000, -6.936000
  0.521000, -6.829900
  0.523000, -6.722000
  0.525000, -6.612200
  0.527000, -6.500200
  0.529000, -6.386400
  0.531000, -6.270800
  0.533000, -6.153300
  0.535000, -6.034000
  0.537000, -5.912800
  0.539000, -5.789600
  0.541000, -5.664300
  0.543000, -5.537300
  0.545000, -5.409000
  0.547000, -5.279500
  0.549000, -5.148400
  0.551000, -5.015200
  0.553000, -4.880600
  0.555000, -4.744900
  0.557000, -4.608500
  0.559000, -4.471200
  0.561000, -4.332700
  0.563000, -4.194400
  0.565000, -4.055600
  0.567000, -3.915900
  0.569000, -3.777100
  0.571000, -3.638500
  0.573000, -3.500300
  0.575000, -3.362900
  0.577000, -3.226100
  0.579000, -3.090500
  0.581000, -2.956500
  0.583000, -2.824300
  0.585000, -2.693700
  0.587000, -2.566500
  0.589000, -2.442500
  0.591000, -2.320800
  0.593000, -2.202500
  0.595000, -2.087700
  0.597000, -1.976300
  0.599000, -1.868900
  0.601000, -1.765300
  0.603000, -1.665400
  0.605000, -1.570100
  0.607000, -1.479900
  0.609000, -1.395100
  0.611000, -1.315100
  0.613000, -1.240000
  0.615000, -1.170600
  0.617000, -1.106200
  0.619000, -1.047300
  0.621000, -0.994100
  0.623000, -0.946200
  0.625000, -0.903700
  0.627000, -0.867000
  0.629000, -0.835700
  0.631000, -0.809900
  0.633000, -0.789500
  0.635000, -0.774400
  0.637000, -0.764000
  0.639000, -0.758300
  0.641000, -0.757800
  0.643000, -0.761600
  0.645000, -0.769400
  0.647000, -0.782000
  0.649000, -0.798600
  0.651000, -0.818000
  0.653000, -0.841200
  0.655000, -0.867400
  0.657000, -0.895600
  0.659000, -0.926100
  0.661000, -0.959400
  0.663000, -0.994700
  0.665000, -1.031500
  0.667000, -1.069900
  0.669000, -1.109900
  0.671000, -1.150800
  0.673000, -1.192500
  0.675000, -1.234600
  0.677000, -1.277100
  0.679000, -1.319900
  0.681000, -1.362000
  0.683000, -1.402800
  0.685000, -1.442700
  0.687000, -1.482500
  0.689000, -1.521200
  0.691000, -1.558400
  0.693000, -1.594100
  0.695000, -1.628700
  0.697000, -1.661700
  0.699000, -1.693000
  0.701000, -1.722400
  0.703000, -1.749700
  0.705000, -1.775100
  0.707000, -1.798500
  0.709000, -1.820000
  0.711000, -1.839500
  0.713000, -1.856600
  0.715000, -1.871400
  0.717000, -1.884300
  0.719000, -1.895100
  0.721000, -1.903900
  0.723000, -1.910600
  0.725000, -1.915100
  0.727000, -1.917300
  0.729000, -1.917600
  0.731000, -1.916000
  0.733000, -1.912600
  0.735000, -1.907500
  0.737000, -1.900700
  0.739000, -1.892100
  0.741000, -1.882000
  0.743000, -1.870200
  0.745000, -1.857100
  0.747000, -1.842700
  0.749000, -1.827100
  0.751000, -1.810400
  0.753000, -1.792500
  0.755000, -1.773500
  0.757000, -1.753500
  0.759000, -1.732400
  0.761000, -1.710600
  0.763000, -1.688200
  0.765000, -1.664300
  0.767000, -1.639900
  0.769000, -1.615500
  0.771000, -1.590500
  0.773000, -1.565000
  0.775000, -1.539300
  0.777000, -1.513400
  0.779000, -1.487200
  0.781000, -1.460700
  0.783000, -1.433800
  0.785000, -1.406600
  0.787000, -1.379300
  0.789000, -1.351900
  0.791000, -1.324300
  0.793000, -1.296700
  0.795000, -1.269200
  0.797000, -1.241500
  0.799000, -1.213900
  0.801000, -1.186200
  0.803000, -1.158600
  0.805000, -1.131200
  0.807000, -1.103700
  0.809000, -1.076500
  0.811000, -1.049100
  0.813000, -1.021700
  0.815000, -0.994500
  0.817000, -0.967300
  0.819000, -0.940000
  0.821000, -0.912700
  0.823000, -0.885700
  0.825000, -0.859000
  0.827000, -0.832500
  0.829000, -0.806100
  0.831000, -0.779800
  0.833000, -0.753500
  0.835000, -0.727100
  0.837000, -0.700900
  0.839000, -0.674900
  0.841000, -0.649300
  0.843000, -0.623900
  0.845000, -0.598600
  0.847000, -0.573600
  0.849000, -0.548800
  0.851000, -0.524100
  0.853000, -0.499700
  0.855000, -0.475400
  0.857000, -0.451200
  0.859000, -0.427300
  0.861000, -0.403900
  0.863000, -0.380800
  0.865000, -0.357900
  0.867000, -0.335400
  0.869000, -0.313400
  0.871000, -0.291900
  0.873000, -0.270900
  0.875000, -0.250200
  0.877000, -0.230000
  0.879000, -0.210300
  0.881000, -0.191200
  0.883000, -0.172500
  0.885000, -0.154500
  0.887000, -0.137200
  0.889000, -0.120600
  0.891000, -0.104600
  0.893000, -0.089200
  0.895000, -0.074500
  0.897000, -0.060500
  0.899000, -0.047200
  0.901000, -0.034600
  0.903000, -0.022800
  0.905000, -0.011900
  0.907000, -0.001700
  0.909000,  0.007700
  0.911000,  0.016300
  0.913000,  0.024200
  0.915000,  0.031400
  0.917000,  0.037800
  0.919000,  0.043300
  0.921000,  0.048000
  0.923000,  0.052100
  0.925000,  0.055400
  0.927000,  0.057900
  0.929000,  0.059700
  0.931000,  0.060800
  0.933000,  0.061100
  0.935000,  0.061000
  0.937000,  0.060300
  0.939000,  0.059000
  0.941000,  0.056900
  0.943000,  0.054400
  0.945000,  0.051400
  0.947000,  0.047900
  0.949000,  0.043800
  0.951000,  0.039500
  0.953000,  0.034800
  0.955000,  0.029500
  0.957000,  0.023800
  0.959000,  0.017800
  0.961000,  0.011400
  0.963000,  0.005000
  0.965000, -0.001600
  0.967000, -0.008600
  0.969000, -0.015700
  0.971000, -0.022700
  0.973000, -0.030100
  0.975000, -0.037500
  0.977000, -0.045300
  0.979000, -0.053300
  0.981000, -0.061200
  0.983000, -0.069000
  0.985000, -0.076800
  0.987000, -0.084900
  0.989000, -0.092800
  0.991000, -0.100700
  0.993000, -0.108400
  0.995000, -0.115900
  0.997000, -0.123400
  0.999000, -0.131100
  1.001000, -0.138500
  1.003000, -0.145500
  1.005000, -0.152500
  1.007000, -0.159500
  1.009000, -0.166300
  1.011000, -0.173000
  1.013000, -0.179600
  1.015000, -0.186200
  1.017000, -0.192300
  1.019000, -0.198300
  1.021000, -0.204100
  1.023000, -0.209800
  1.025000, -0.215400
  1.027000, -0.220800
  1.029000, -0.226100
  1.031000, -0.231400
  1.033000, -0.236500
  1.035000, -0.241300
  1.037000, -0.245900
  1.039000, -0.250200
  1.041000, -0.254500
  1.043000, -0.258600
  1.045000, -0.262700
  1.047000, -0.266400
  1.049000, -0.269800
  1.051000, -0.273100
  1.053000, -0.276300
  1.055000, -0.279400
  1.057000, -0.282200
  1.059000, -0.284900
  1.061000, -0.287300
  1.063000, -0.289500
  1.065000, -0.291500
  1.067000, -0.293200
  1.069000, -0.294800
  1.071000, -0.296200
  1.073000, -0.297400
  1.075000, -0.298400
  1.077000, -0.299100
  1.079000, -0.299600
  1.081000, -0.299900
  1.083000, -0.299900
  1.085000, -0.299900
  1.087000, -0.299500
  1.089000, -0.299000
  1.091000, -0.298200
  1.093000, -0.297200
  1.095000, -0.295900
  1.097000, -0.294400
  1.099000, -0.292600
  1.101000, -0.290600
  1.103000, -0.288500
  1.105000, -0.286200
  1.107000, -0.283700
  1.109000, -0.281000
  1.111000, -0.278100
  1.113000, -0.275000
  1.115000, -0.271700
  1.117000, -0.268300
  1.119000, -0.264600
  1.121000, -0.260800
  1.123000, -0.256900
  1.125000, -0.252900
  1.127000, -0.248700
  1.129000, -0.244400
  1.131000, -0.239900
  1.133000, -0.235200
  1.135000, -0.230400
  1.137000, -0.225600
  1.139000, -0.220700
  1.141000, -0.215600
  1.143000, -0.210500
  1.145000, -0.205200
  1.147000, -0.199900
  1.149000, -0.194500
  1.151000, -0.189100
  1.153000, -0.183600
  1.155000, -0.178000
  1.157000, -0.172500
  1.159000, -0.167000
  1.161000, -0.161400
  1.163000, -0.155800
  1.165000, -0.150100
  1.167000, -0.144400
  1.169000, -0.138900
  1.171000, -0.133300
  1.173000, -0.127700
  1.175000, -0.122200
  1.177000, -0.116600
  1.179000, -0.111100
  1.181000, -0.105500
  1.183000, -0.100000
  1.185000, -0.094800
  1.187000, -0.089600
  1.189000, -0.084400
  1.191000, -0.079300
  1.193000, -0.074200
  1.195000, -0.069200
  1.197000, -0.064400
  1.199000, -0.059600
  1.201000, -0.054900
  1.203000, -0.050200
  1.205000, -0.045700
  1.207000, -0.041500
  1.209000, -0.037300
  1.211000, -0.033300
  1.213000, -0.029400
  1.215000, -0.025600
  1.217000, -0.022000
  1.219000, -0.018700
  1.221000, -0.015300
  1.223000, -0.012000
  1.225000, -0.009000
  1.227000, -0.006400
  1.229000, -0.003900
  1.231000, -0.001600
  1.233000,  0.000500
  1.235000,  0.002400
  1.237000,  0.004300
  1.239000,  0.005900
  1.241000,  0.007300
  1.243000,  0.008600
  1.245000,  0.009600
  1.247000,  0.010500
  1.249000,  0.011200
  1.251000,  0.011700
  1.253000,  0.012000
  1.255000,  0.012100
  1.257000,  0.012100
  1.259000,  0.011900
  1.261000,  0.011600
  1.263000,  0.011200
  1.265000,  0.010500
  1.267000,  0.009800
  1.269000,  0.009000
  1.271000,  0.008100
  1.273000,  0.007100
  1.275000,  0.006000
  1.277000,  0.004900
  1.279000,  0.003600
  1.281000,  0.002500
  1.283000,  0.001300
  1.285000,  0.000000
  1.287000, -0.001200
  1.289000, -0.002500
  1.291000, -0.003800
  1.293000, -0.005000
  1.295000, -0.006100
  1.297000, -0.007200
  1.299000, -0.008200
  1.301000, -0.009300
  1.303000, -0.010200
  1.305000, -0.011100
  1.307000, -0.011800
  1.309000, -0.012500
  1.311000, -0.013100
  1.313000, -0.013500
  1.315000, -0.013900
  1.317000, -0.014200
  1.319000, -0.014500
  1.321000, -0.014500
  1.323000, -0.014500
  1.325000, -0.014300
  1.327000, -0.013900
  1.329000, -0.013400
  1.331000, -0.012800
  1.333000, -0.012100
  1.335000, -0.011400
  1.337000, -0.010500
  1.339000, -0.009400
  1.341000, -0.008200
  1.343000, -0.006900
  1.345000, -0.005600
  1.347000, -0.004200
  1.349000, -0.002600
  1.351000, -0.001000
  1.353000,  0.000700
  1.355000,  0.002500
  1.357000,  0.004500
  1.359000,  0.006500
  1.361000,  0.008500
  1.363000,  0.010500
  1.365000,  0.012600
  1.367000,  0.014700
  1.369000,  0.016900
  1.371000,  0.019200
  1.373000,  0.021400
  1.375000,  0.023500
  1.377000,  0.025500
  1.379000,  0.027600
  1.381000,  0.029600
  1.383000,  0.031600
  1.385000,  0.033600
  1.387000,  0.035400
  1.389000,  0.037100
  1.391000,  0.038500
  1.393000,  0.039800
  1.395000,  0.040700
  1.397000,  0.041300
  1.399000,  0.041700
