# z (nm)   (kJ/mol)
  0.255000,  3.540500
  0.257000,  2.793200
  0.259000,  2.045300
  0.261000,  1.285500
  0.263000,  0.531800
  0.265000, -0.247800
  0.267000, -1.043300
  0.269000, -1.839100
  0.271000, -2.667500
  0.273000, -3.488900
  0.275000, -4.305700
  0.277000, -5.122800
  0.279000, -5.929400
  0.281000, -6.732700
  0.283000, -7.528500
  0.285000, -8.318500
  0.287000, -9.102900
  0.289000, -9.875800
  0.291000,-10.637500
  0.293000,-11.388000
  0.295000,-12.121900
  0.297000,-12.839600
  0.299000,-13.539700
  0.301000,-14.222000
  0.303000,-14.885300
  0.305000,-15.527200
  0.307000,-16.146500
  0.309000,-16.741500
  0.311000,-17.313000
  0.313000,-17.859300
  0.315000,-18.379800
  0.317000,-18.873600
  0.319000,-19.340400
  0.321000,-19.778300
  0.323000,-20.186200
  0.325000,-20.564200
  0.327000,-20.912300
  0.329000,-21.231800
  0.331000,-21.521400
  0.333000,-21.780300
  0.335000,-22.008400
  0.337000,-22.205200
  0.339000,-22.370300
  0.341000,-22.504600
  0.343000,-22.608700
  0.345000,-22.682600
  0.347000,-22.726400
  0.349000,-22.740900
  0.351000,-22.727200
  0.353000,-22.685600
  0.355000,-22.616000
  0.357000,-22.519400
  0.359000,-22.398200
  0.361000,-22.254500
  0.363000,-22.087600
  0.365000,-21.899000
  0.367000,-21.690400
  0.369000,-21.461500
  0.371000,-21.213700
  0.373000,-20.949500
  0.375000,-20.670200
  0.377000,-20.376500
  0.379000,-20.070600
  0.381000,-19.753300
  0.383000,-19.426600
  0.385000,-19.092500
  0.387000,-18.751800
  0.389000,-18.405600
  0.391000,-18.057100
  0.393000,-17.706200
  0.395000,-17.353400
  0.397000,-17.000400
  0.399000,-16.647400
  0.401000,-16.296300
  0.403000,-15.948900
  0.405000,-15.605300
  0.407000,-15.265800
  0.409000,-14.931900
  0.411000,-14.604200
  0.413000,-14.283300
  0.415000,-13.969700
  0.417000,-13.663800
  0.419000,-13.366500
  0.421000,-13.077800
  0.423000,-12.797300
  0.425000,-12.526000
  0.427000,-12.264600
  0.429000,-12.012400
  0.431000,-11.769700
  0.433000,-11.536300
  0.435000,-11.312400
  0.437000,-11.097900
  0.439000,-10.892600
  0.441000,-10.696500
  0.443000,-10.509300
  0.445000,-10.331400
  0.447000,-10.161900
  0.449000,-10.000300
  0.451000, -9.847000
  0.453000, -9.700400
  0.455000, -9.560900
  0.457000, -9.429100
  0.459000, -9.303900
  0.461000, -9.185000
  0.463000, -9.072400
  0.465000, -8.965200
  0.467000, -8.863100
  0.469000, -8.766300
  0.471000, -8.673500
  0.473000, -8.584800
  0.475000, -8.499700
  0.477000, -8.418600
  0.479000, -8.340900
  0.481000, -8.264700
  0.483000, -8.191000
  0.485000, -8.120000
  0.487000, -8.050500
  0.489000, -7.982400
  0.491000, -7.915300
  0.493000, -7.848800
  0.495000, -7.783000
  0.497000, -7.717100
  0.499000, -7.650600
  0.501000, -7.583800
  0.503000, -7.516600
  0.505000, -7.448400
  0.507000, -7.378600
  0.509000, -7.307100
  0.511000, -7.234200
  0.513000, -7.159500
  0.515000, -7.082700
  0.517000, -7.003500
  0.519000, -6.921800
  0.521000, -6.837300
  0.523000, -6.749900
  0.525000, -6.659900
  0.527000, -6.566700
  0.529000, -6.470700
  0.531000, -6.371600
  0.533000, -6.269000
  0.535000, -6.163500
  0.537000, -6.054900
  0.539000, -5.942300
  0.541000, -5.825800
  0.543000, -5.706000
  0.545000, -5.583500
  0.547000, -5.458500
  0.549000, -5.330900
  0.551000, -5.200300
  0.553000, -5.066900
  0.555000, -4.931000
  0.557000, -4.792600
  0.559000, -4.651900
  0.561000, -4.509400
  0.563000, -4.365300
  0.565000, -4.219600
  0.567000, -4.071800
  0.569000, -3.923800
  0.571000, -3.777000
  0.573000, -3.628900
  0.575000, -3.479800
  0.577000, -3.331400
  0.579000, -3.184100
  0.581000, -3.038800
  0.583000, -2.894900
  0.585000, -2.752400
  0.587000, -2.612800
  0.589000, -2.475600
  0.591000, -2.341300
  0.593000, -2.210400
  0.595000, -2.082500
  0.597000, -1.957700
  0.599000, -1.837600
  0.601000, -1.722700
  0.603000, -1.611500
  0.605000, -1.504800
  0.607000, -1.404200
  0.609000, -1.309000
  0.611000, -1.219200
  0.613000, -1.135700
  0.615000, -1.058000
  0.617000, -0.985900
  0.619000, -0.920000
  0.621000, -0.860500
  0.623000, -0.807100
  0.625000, -0.760000
  0.627000, -0.718800
  0.629000, -0.683100
  0.631000, -0.653700
  0.633000, -0.630600
  0.635000, -0.612800
  0.637000, -0.600100
  0.639000, -0.592200
  0.641000, -0.589600
  0.643000, -0.592800
  0.645000, -0.600700
  0.647000, -0.611800
  0.649000, -0.627600
  0.651000, -0.648000
  0.653000, -0.672200
  0.655000, -0.699600
  0.657000, -0.730200
  0.659000, -0.763800
  0.661000, -0.800400
  0.663000, -0.839500
  0.665000, -0.880400
  0.667000, -0.923100
  0.669000, -0.967200
  0.671000, -1.012700
  0.673000, -1.059000
  0.675000, -1.105700
  0.677000, -1.152800
  0.679000, -1.200100
  0.681000, -1.248400
  0.683000, -1.296500
  0.685000, -1.343500
  0.687000, -1.390400
  0.689000, -1.436900
  0.691000, -1.482200
  0.693000, -1.526700
  0.695000, -1.570200
  0.697000, -1.612200
  0.699000, -1.652900
  0.701000, -1.691200
  0.703000, -1.728000
  0.705000, -1.763700
  0.707000, -1.797000
  0.709000, -1.828800
  0.711000, -1.858800
  0.713000, -1.886200
  0.715000, -1.911700
  0.717000, -1.935200
  0.719000, -1.956700
  0.721000, -1.976200
  0.723000, -1.993800
  0.725000, -2.009300
  0.727000, -2.022800
  0.729000, -2.034100
  0.731000, -2.043400
  0.733000, -2.050600
  0.735000, -2.056000
  0.737000, -2.059600
  0.739000, -2.061300
  0.741000, -2.061100
  0.743000, -2.059100
  0.745000, -2.055500
  0.747000, -2.050200
  0.749000, -2.043200
  0.751000, -2.034800
  0.753000, -2.024900
  0.755000, -2.013700
  0.757000, -2.001000
  0.759000, -1.987200
  0.761000, -1.972000
  0.763000, -1.955700
  0.765000, -1.938300
  0.767000, -1.919900
  0.769000, -1.900700
  0.771000, -1.880600
  0.773000, -1.859700
  0.775000, -1.837800
  0.777000, -1.815100
  0.779000, -1.791800
  0.781000, -1.767700
  0.783000, -1.743000
  0.785000, -1.717700
  0.787000, -1.691700
  0.789000, -1.665300
  0.791000, -1.638300
  0.793000, -1.610700
  0.795000, -1.583100
  0.797000, -1.555200
  0.799000, -1.526800
  0.801000, -1.498100
  0.803000, -1.469000
  0.805000, -1.439700
  0.807000, -1.410100
  0.809000, -1.380300
  0.811000, -1.350600
  0.813000, -1.320600
  0.815000, -1.290200
  0.817000, -1.259800
  0.819000, -1.229400
  0.821000, -1.198700
  0.823000, -1.168100
  0.825000, -1.137500
  0.827000, -1.106800
  0.829000, -1.076000
  0.831000, -1.045200
  0.833000, -1.014300
  0.835000, -0.983400
  0.837000, -0.952500
  0.839000, -0.921800
  0.841000, -0.891000
  0.843000, -0.860300
  0.845000, -0.829900
  0.847000, -0.799600
  0.849000, -0.769500
  0.851000, -0.739600
  0.853000, -0.709900
  0.855000, -0.680300
  0.857000, -0.651100
  0.859000, -0.622100
  0.861000, -0.593300
  0.863000, -0.565000
  0.865000, -0.536900
  0.867000, -0.509300
  0.869000, -0.482300
  0.871000, -0.455700
  0.873000, -0.429200
  0.875000, -0.403200
  0.877000, -0.377900
  0.879000, -0.353200
  0.881000, -0.328900
  0.883000, -0.305100
  0.885000, -0.281800
  0.887000, -0.259300
  0.889000, -0.237400
  0.891000, -0.216300
  0.893000, -0.195900
  0.895000, -0.176200
  0.897000, -0.156900
  0.899000, -0.138600
  0.901000, -0.121000
  0.903000, -0.104300
  0.905000, -0.088500
  0.907000, -0.073600
  0.909000, -0.059500
  0.911000, -0.046200
  0.913000, -0.033600
  0.915000, -0.022100
  0.917000, -0.011500
  0.919000, -0.001800
  0.921000,  0.007100
  0.923000,  0.015100
  0.925000,  0.022100
  0.927000,  0.028200
  0.929000,  0.033500
  0.931000,  0.037900
  0.933000,  0.041400
  0.935000,  0.044000
  0.937000,  0.045800
  0.939000,  0.046800
  0.941000,  0.046900
  0.943000,  0.046200
  0.945000,  0.044600
  0.947000,  0.042300
  0.949000,  0.039200
  0.951000,  0.035400
  0.953000,  0.031200
  0.955000,  0.026100
  0.957000,  0.020300
  0.959000,  0.014000
  0.961000,  0.007100
  0.963000, -0.000200
  0.965000, -0.008000
  0.967000, -0.016400
  0.969000, -0.025300
  0.971000, -0.034800
  0.973000, -0.044500
  0.975000, -0.054600
  0.977000, -0.064900
  0.979000, -0.075500
  0.981000, -0.086300
  0.983000, -0.097400
  0.985000, -0.108800
  0.987000, -0.120300
  0.989000, -0.131700
  0.991000, -0.143300
  0.993000, -0.154800
  0.995000, -0.166300
  0.997000, -0.177700
  0.999000, -0.189000
  1.001000, -0.200200
  1.003000, -0.211300
  1.005000, -0.222100
  1.007000, -0.232700
  1.009000, -0.243100
  1.011000, -0.253100
  1.013000, -0.262900
  1.015000, -0.272600
  1.017000, -0.281900
  1.019000, -0.290700
  1.021000, -0.299000
  1.023000, -0.307000
  1.025000, -0.314500
  1.027000, -0.321600
  1.029000, -0.328200
  1.031000, -0.334500
  1.033000, -0.340200
  1.035000, -0.345500
  1.037000, -0.350200
  1.039000, -0.354400
  1.041000, -0.358100
  1.043000, -0.361500
  1.045000, -0.364400
  1.047000, -0.366900
  1.049000, -0.368800
  1.051000, -0.370100
  1.053000, -0.371000
  1.055000, -0.371400
  1.057000, -0.371400
  1.059000, -0.371100
  1.061000, -0.370300
  1.063000, -0.369000
  1.065000, -0.367200
  1.067000, -0.365100
  1.069000, -0.362700
  1.071000, -0.359900
  1.073000, -0.356800
  1.075000, -0.353300
  1.077000, -0.349500
  1.079000, -0.345400
  1.081000, -0.341000
  1.083000, -0.336400
  1.085000, -0.331500
  1.087000, -0.326300
  1.089000, -0.320900
  1.091000, -0.315400
  1.093000, -0.309700
  1.095000, -0.303700
  1.097000, -0.297700
  1.099000, -0.291400
  1.101000, -0.285000
  1.103000, -0.278500
  1.105000, -0.271800
  1.107000, -0.265000
  1.109000, -0.258200
  1.111000, -0.251300
  1.113000, -0.244500
  1.115000, -0.237600
  1.117000, -0.230700
  1.119000, -0.223700
  1.121000, -0.216700
  1.123000, -0.209700
  1.125000, -0.202800
  1.127000, -0.195800
  1.129000, -0.188800
  1.131000, -0.181900
  1.133000, -0.175000
  1.135000, -0.168200
  1.137000, -0.161500
  1.139000, -0.154900
  1.141000, -0.148200
  1.143000, -0.141800
  1.145000, -0.135600
  1.147000, -0.129300
  1.149000, -0.123000
  1.151000, -0.116900
  1.153000, -0.110900
  1.155000, -0.105100
  1.157000, -0.099500
  1.159000, -0.093900
  1.161000, -0.088300
  1.163000, -0.082900
  1.165000, -0.077600
  1.167000, -0.072500
  1.169000, -0.067400
  1.171000, -0.062600
  1.173000, -0.058000
  1.175000, -0.053700
  1.177000, -0.049500
  1.179000, -0.045300
  1.181000, -0.041300
  1.183000, -0.037400
  1.185000, -0.033800
  1.187000, -0.030300
  1.189000, -0.026900
  1.191000, -0.023500
  1.193000, -0.020400
  1.195000, -0.017500
  1.197000, -0.014600
  1.199000, -0.011900
  1.201000, -0.009300
  1.203000, -0.006900
  1.205000, -0.004600
  1.207000, -0.002400
  1.209000, -0.000300
  1.211000,  0.001700
  1.213000,  0.003500
  1.215000,  0.005200
  1.217000,  0.006700
  1.219000,  0.008100
  1.221000,  0.009300
  1.223000,  0.010400
  1.225000,  0.011400
  1.227000,  0.012200
  1.229000,  0.013100
  1.231000,  0.013900
  1.233000,  0.014600
  1.235000,  0.015200
  1.237000,  0.015600
  1.239000,  0.016000
  1.241000,  0.016200
  1.243000,  0.016400
  1.245000,  0.016600
  1.247000,  0.016700
  1.249000,  0.016800
  1.251000,  0.016500
  1.253000,  0.016300
  1.255000,  0.016200
  1.257000,  0.016000
  1.259000,  0.015600
  1.261000,  0.015100
  1.263000,  0.014500
  1.265000,  0.013900
  1.267000,  0.013100
  1.269000,  0.012400
  1.271000,  0.011700
  1.273000,  0.010900
  1.275000,  0.010000
  1.277000,  0.009000
  1.279000,  0.007900
  1.281000,  0.006700
  1.283000,  0.005500
  1.285000,  0.004400
  1.287000,  0.003100
  1.289000,  0.001700
  1.291000,  0.000500
  1.293000, -0.000800
  1.295000, -0.002200
  1.297000, -0.003500
  1.299000, -0.004900
  1.301000, -0.006200
  1.303000, -0.007400
  1.305000, -0.008600
  1.307000, -0.009800
  1.309000, -0.011000
  1.311000, -0.012200
  1.313000, -0.013300
  1.315000, -0.014300
  1.317000, -0.015400
  1.319000, -0.016400
  1.321000, -0.017300
  1.323000, -0.018200
  1.325000, -0.019000
  1.327000, -0.019600
  1.329000, -0.020100
  1.331000, -0.020500
  1.333000, -0.020800
  1.335000, -0.021000
  1.337000, -0.021200
  1.339000, -0.021300
  1.341000, -0.021100
  1.343000, -0.020600
  1.345000, -0.020000
  1.347000, -0.019500
  1.349000, -0.018800
  1.351000, -0.017800
  1.353000, -0.016900
  1.355000, -0.015900
  1.357000, -0.014800
  1.359000, -0.013600
  1.361000, -0.012100
  1.363000, -0.010500
  1.365000, -0.008800
  1.367000, -0.006800
  1.369000, -0.004800
  1.371000, -0.003100
  1.373000, -0.001400
  1.375000,  0.000400
  1.377000,  0.002200
  1.379000,  0.004000
  1.381000,  0.005800
  1.383000,  0.007600
  1.385000,  0.009300
  1.387000,  0.011000
  1.389000,  0.012500
  1.391000,  0.013500
  1.393000,  0.014400
  1.395000,  0.015100
  1.397000,  0.015700
  1.399000,  0.016000
