# z (nm)   (kJ/mol)
  0.255000,  3.658800
  0.259000,  2.146300
  0.261000,  1.373000
  0.263000,  0.605700
  0.265000, -0.203300
  0.267000, -1.035500
  0.269000, -1.863800
  0.271000, -2.697700
  0.273000, -3.543300
  0.275000, -4.400500
  0.277000, -5.254000
  0.279000, -6.100300
  0.281000, -6.945500
  0.283000, -7.782200
  0.285000, -8.609900
  0.287000, -9.429900
  0.289000,-10.242400
  0.291000,-11.048100
  0.293000,-11.835400
  0.295000,-12.602600
  0.297000,-13.353400
  0.299000,-14.083200
  0.301000,-14.792600
  0.303000,-15.486000
  0.305000,-16.158000
  0.307000,-16.801000
  0.309000,-17.417600
  0.311000,-18.012700
  0.313000,-18.581900
  0.315000,-19.121300
  0.317000,-19.634200
  0.319000,-20.117000
  0.321000,-20.565900
  0.323000,-20.985500
  0.325000,-21.372200
  0.327000,-21.724800
  0.329000,-22.045400
  0.331000,-22.332500
  0.333000,-22.585500
  0.335000,-22.803500
  0.337000,-22.986600
  0.339000,-23.136300
  0.341000,-23.252500
  0.343000,-23.334900
  0.345000,-23.383200
  0.347000,-23.397800
  0.349000,-23.378700
  0.351000,-23.327000
  0.353000,-23.244500
  0.355000,-23.131900
  0.357000,-22.988100
  0.359000,-22.814100
  0.361000,-22.613200
  0.363000,-22.385800
  0.365000,-22.132200
  0.367000,-21.856000
  0.369000,-21.557800
  0.371000,-21.238200
  0.373000,-20.899700
  0.375000,-20.541700
  0.377000,-20.165700
  0.379000,-19.775400
  0.381000,-19.372800
  0.383000,-18.957500
  0.385000,-18.532500
  0.387000,-18.099800
  0.389000,-17.659200
  0.391000,-17.213500
  0.393000,-16.762900
  0.395000,-16.309700
  0.397000,-15.855500
  0.399000,-15.401000
  0.401000,-14.948300
  0.403000,-14.497100
  0.405000,-14.049900
  0.407000,-13.608200
  0.409000,-13.172800
  0.411000,-12.744800
  0.413000,-12.325000
  0.415000,-11.913000
  0.417000,-11.509500
  0.419000,-11.115900
  0.421000,-10.733100
  0.423000,-10.361500
  0.425000,-10.001600
  0.427000, -9.653400
  0.429000, -9.317300
  0.431000, -8.993400
  0.433000, -8.682100
  0.435000, -8.383400
  0.437000, -8.097700
  0.439000, -7.824800
  0.441000, -7.564000
  0.443000, -7.315900
  0.445000, -7.080600
  0.447000, -6.857700
  0.449000, -6.647100
  0.451000, -6.448700
  0.453000, -6.262300
  0.455000, -6.087300
  0.457000, -5.923800
  0.459000, -5.771100
  0.461000, -5.628900
  0.463000, -5.497300
  0.465000, -5.375300
  0.467000, -5.262300
  0.469000, -5.158500
  0.471000, -5.063200
  0.473000, -4.975700
  0.475000, -4.895900
  0.477000, -4.823400
  0.479000, -4.757800
  0.481000, -4.698800
  0.483000, -4.645800
  0.485000, -4.598100
  0.487000, -4.555800
  0.489000, -4.518400
  0.491000, -4.484100
  0.493000, -4.453300
  0.495000, -4.426600
  0.497000, -4.402500
  0.499000, -4.380400
  0.501000, -4.360200
  0.503000, -4.341500
  0.505000, -4.323600
  0.507000, -4.306000
  0.509000, -4.289200
  0.511000, -4.272600
  0.513000, -4.255800
  0.515000, -4.238200
  0.517000, -4.219100
  0.519000, -4.198500
  0.521000, -4.176100
  0.523000, -4.151700
  0.525000, -4.125300
  0.527000, -4.096500
  0.529000, -4.064900
  0.531000, -4.030600
  0.533000, -3.993300
  0.535000, -3.952800
  0.537000, -3.908900
  0.539000, -3.861600
  0.541000, -3.810900
  0.543000, -3.756700
  0.545000, -3.699200
  0.547000, -3.638800
  0.549000, -3.575100
  0.551000, -3.507800
  0.553000, -3.437100
  0.555000, -3.363900
  0.557000, -3.288000
  0.559000, -3.209100
  0.561000, -3.128400
  0.563000, -3.046200
  0.565000, -2.961000
  0.567000, -2.874300
  0.569000, -2.787200
  0.571000, -2.699600
  0.573000, -2.611200
  0.575000, -2.521900
  0.577000, -2.433400
  0.579000, -2.345400
  0.581000, -2.257900
  0.583000, -2.171500
  0.585000, -2.086000
  0.587000, -2.001500
  0.589000, -1.920000
  0.591000, -1.842200
  0.593000, -1.766900
  0.595000, -1.696300
  0.597000, -1.630100
  0.599000, -1.567300
  0.601000, -1.508900
  0.603000, -1.454600
  0.605000, -1.404600
  0.607000, -1.359500
  0.609000, -1.319400
  0.611000, -1.284500
  0.613000, -1.255000
  0.615000, -1.231300
  0.617000, -1.212900
  0.619000, -1.200000
  0.621000, -1.192800
  0.623000, -1.191100
  0.625000, -1.194700
  0.627000, -1.203600
  0.629000, -1.217200
  0.631000, -1.235600
  0.633000, -1.258400
  0.635000, -1.286200
  0.637000, -1.318600
  0.639000, -1.355200
  0.641000, -1.395700
  0.643000, -1.438500
  0.645000, -1.484100
  0.647000, -1.533600
  0.649000, -1.585500
  0.651000, -1.639700
  0.653000, -1.695500
  0.655000, -1.752300
  0.657000, -1.810600
  0.659000, -1.868900
  0.661000, -1.928300
  0.663000, -1.988100
  0.665000, -2.047700
  0.667000, -2.107100
  0.669000, -2.164900
  0.671000, -2.221300
  0.673000, -2.277300
  0.675000, -2.332800
  0.677000, -2.385100
  0.679000, -2.434900
  0.681000, -2.483600
  0.683000, -2.530500
  0.685000, -2.575000
  0.687000, -2.616400
  0.689000, -2.654900
  0.691000, -2.690400
  0.693000, -2.723100
  0.695000, -2.753000
  0.697000, -2.779700
  0.699000, -2.803400
  0.701000, -2.823800
  0.703000, -2.841000
  0.705000, -2.855100
  0.707000, -2.866000
  0.709000, -2.873700
  0.711000, -2.878500
  0.713000, -2.880000
  0.715000, -2.878400
  0.717000, -2.873900
  0.719000, -2.866600
  0.721000, -2.856600
  0.723000, -2.843700
  0.725000, -2.827900
  0.727000, -2.809800
  0.729000, -2.789100
  0.731000, -2.765700
  0.733000, -2.740900
  0.735000, -2.714600
  0.737000, -2.685900
  0.739000, -2.655000
  0.741000, -2.622900
  0.743000, -2.588900
  0.745000, -2.553200
  0.747000, -2.516300
  0.749000, -2.478100
  0.751000, -2.439400
  0.753000, -2.400000
  0.755000, -2.359700
  0.757000, -2.318600
  0.759000, -2.277400
  0.761000, -2.235900
  0.763000, -2.193600
  0.765000, -2.150800
  0.767000, -2.108300
  0.769000, -2.065900
  0.771000, -2.023200
  0.773000, -1.979900
  0.775000, -1.936400
  0.777000, -1.893800
  0.779000, -1.851400
  0.781000, -1.809000
  0.783000, -1.767000
  0.785000, -1.725500
  0.787000, -1.684100
  0.789000, -1.643300
  0.791000, -1.603500
  0.793000, -1.564200
  0.795000, -1.525400
  0.797000, -1.487000
  0.799000, -1.449000
  0.801000, -1.411700
  0.803000, -1.374800
  0.805000, -1.338400
  0.807000, -1.302500
  0.809000, -1.267300
  0.811000, -1.232700
  0.813000, -1.198400
  0.815000, -1.164800
  0.817000, -1.131600
  0.819000, -1.098900
  0.821000, -1.066800
  0.823000, -1.035200
  0.825000, -1.004100
  0.827000, -0.973400
  0.829000, -0.943100
  0.831000, -0.913300
  0.833000, -0.884300
  0.835000, -0.855800
  0.837000, -0.827600
  0.839000, -0.799700
  0.841000, -0.772200
  0.843000, -0.745100
  0.845000, -0.718400
  0.847000, -0.692200
  0.849000, -0.666800
  0.851000, -0.641700
  0.853000, -0.617100
  0.855000, -0.593300
  0.857000, -0.569800
  0.859000, -0.546600
  0.861000, -0.524000
  0.863000, -0.502000
  0.865000, -0.480600
  0.867000, -0.459700
  0.869000, -0.439100
  0.871000, -0.419300
  0.873000, -0.400300
  0.875000, -0.382000
  0.877000, -0.364200
  0.879000, -0.347000
  0.881000, -0.330400
  0.883000, -0.314700
  0.885000, -0.299900
  0.887000, -0.285600
  0.889000, -0.272200
  0.891000, -0.259600
  0.893000, -0.247800
  0.895000, -0.236800
  0.897000, -0.226600
  0.899000, -0.217300
  0.901000, -0.208900
  0.903000, -0.201300
  0.905000, -0.194300
  0.907000, -0.188100
  0.909000, -0.182900
  0.911000, -0.178500
  0.913000, -0.174900
  0.915000, -0.172100
  0.917000, -0.170100
  0.919000, -0.168900
  0.921000, -0.168400
  0.923000, -0.168500
  0.925000, -0.169500
  0.927000, -0.171100
  0.929000, -0.173100
  0.931000, -0.175700
  0.933000, -0.179000
  0.935000, -0.182900
  0.937000, -0.187300
  0.939000, -0.192000
  0.941000, -0.197200
  0.943000, -0.203000
  0.945000, -0.209100
  0.947000, -0.215400
  0.949000, -0.222100
  0.951000, -0.229000
  0.953000, -0.236100
  0.955000, -0.243100
  0.957000, -0.250200
  0.959000, -0.257600
  0.961000, -0.265000
  0.963000, -0.272200
  0.965000, -0.279500
  0.967000, -0.286900
  0.969000, -0.294000
  0.971000, -0.301100
  0.973000, -0.308000
  0.975000, -0.314600
  0.977000, -0.321000
  0.979000, -0.327100
  0.981000, -0.333000
  0.983000, -0.338700
  0.985000, -0.344100
  0.987000, -0.349300
  0.989000, -0.354100
  0.991000, -0.358500
  0.993000, -0.362600
  0.995000, -0.366200
  0.997000, -0.369500
  0.999000, -0.372400
  1.001000, -0.375100
  1.003000, -0.377300
  1.005000, -0.379300
  1.007000, -0.380900
  1.009000, -0.382100
  1.011000, -0.382800
  1.013000, -0.383000
  1.015000, -0.382800
  1.017000, -0.382300
  1.019000, -0.381500
  1.021000, -0.380300
  1.023000, -0.379000
  1.025000, -0.377300
  1.027000, -0.375400
  1.029000, -0.373200
  1.031000, -0.370700
  1.033000, -0.367800
  1.035000, -0.364600
  1.037000, -0.361400
  1.039000, -0.358100
  1.041000, -0.354300
  1.043000, -0.350400
  1.045000, -0.346400
  1.047000, -0.342200
  1.049000, -0.338000
  1.051000, -0.333500
  1.053000, -0.328700
  1.055000, -0.323600
  1.057000, -0.318500
  1.059000, -0.313500
  1.061000, -0.308400
  1.063000, -0.303100
  1.065000, -0.297600
  1.067000, -0.292100
  1.069000, -0.286500
  1.071000, -0.280800
  1.073000, -0.275100
  1.075000, -0.269300
  1.077000, -0.263800
  1.079000, -0.258200
  1.081000, -0.252500
  1.083000, -0.246900
  1.085000, -0.241200
  1.087000, -0.235600
  1.089000, -0.230100
  1.091000, -0.224600
  1.093000, -0.219300
  1.095000, -0.213900
  1.097000, -0.208500
  1.099000, -0.203000
  1.101000, -0.197700
  1.103000, -0.192300
  1.105000, -0.187000
  1.107000, -0.181700
  1.109000, -0.176500
  1.111000, -0.171400
  1.113000, -0.166300
  1.115000, -0.161100
  1.117000, -0.156200
  1.119000, -0.151400
  1.121000, -0.146500
  1.123000, -0.141800
  1.125000, -0.137100
  1.127000, -0.132400
  1.129000, -0.127800
  1.131000, -0.123200
  1.133000, -0.118800
  1.135000, -0.114400
  1.137000, -0.109900
  1.139000, -0.105500
  1.141000, -0.101300
  1.143000, -0.097000
  1.145000, -0.092700
  1.147000, -0.088600
  1.149000, -0.084600
  1.151000, -0.080700
  1.153000, -0.076800
  1.155000, -0.073000
  1.157000, -0.069300
  1.159000, -0.065500
  1.161000, -0.061800
  1.163000, -0.058000
  1.165000, -0.054300
  1.167000, -0.050600
  1.169000, -0.047200
  1.171000, -0.043800
  1.173000, -0.040400
  1.175000, -0.037200
  1.177000, -0.034100
  1.179000, -0.030900
  1.181000, -0.027800
  1.183000, -0.024700
  1.185000, -0.021700
  1.187000, -0.018800
  1.189000, -0.016000
  1.191000, -0.013400
  1.193000, -0.010900
  1.195000, -0.008200
  1.197000, -0.005700
  1.199000, -0.003300
  1.201000, -0.001000
  1.203000,  0.001100
  1.205000,  0.003300
  1.207000,  0.005400
  1.209000,  0.007300
  1.211000,  0.008800
  1.213000,  0.010500
  1.215000,  0.012000
  1.217000,  0.013100
  1.219000,  0.014300
  1.221000,  0.015500
  1.223000,  0.016500
  1.225000,  0.017300
  1.227000,  0.018000
  1.229000,  0.018500
  1.231000,  0.018900
  1.233000,  0.019100
  1.235000,  0.019300
  1.237000,  0.019400
  1.239000,  0.019400
  1.241000,  0.019400
  1.243000,  0.019000
  1.245000,  0.018300
  1.247000,  0.017500
  1.249000,  0.016600
  1.251000,  0.015800
  1.253000,  0.014800
  1.255000,  0.013700
  1.257000,  0.012300
  1.259000,  0.010900
  1.261000,  0.009400
  1.263000,  0.007800
  1.265000,  0.006200
  1.267000,  0.004400
  1.269000,  0.002500
  1.271000,  0.000800
  1.273000, -0.001000
  1.275000, -0.002800
  1.277000, -0.004600
  1.279000, -0.006500
  1.281000, -0.008300
  1.283000, -0.010300
  1.285000, -0.012200
  1.287000, -0.014100
  1.289000, -0.016000
  1.291000, -0.017800
  1.293000, -0.019600
  1.295000, -0.021400
  1.297000, -0.023000
  1.299000, -0.024500
  1.301000, -0.025900
  1.303000, -0.027200
  1.305000, -0.028400
  1.307000, -0.029400
  1.309000, -0.030300
  1.311000, -0.031200
  1.313000, -0.032000
  1.315000, -0.032700
  1.317000, -0.033100
  1.319000, -0.033300
  1.321000, -0.033500
  1.323000, -0.033500
  1.325000, -0.033200
  1.327000, -0.032700
  1.329000, -0.032000
  1.331000, -0.031300
  1.333000, -0.030300
  1.335000, -0.029200
  1.337000, -0.027900
  1.339000, -0.026600
  1.341000, -0.025100
  1.343000, -0.023500
  1.345000, -0.021700
  1.347000, -0.019800
  1.349000, -0.017600
  1.351000, -0.015300
  1.353000, -0.012900
  1.355000, -0.010400
  1.357000, -0.007600
  1.359000, -0.004800
  1.361000, -0.002000
  1.363000,  0.000900
  1.365000,  0.003900
  1.367000,  0.007000
  1.369000,  0.010300
  1.371000,  0.013400
  1.373000,  0.016600
  1.375000,  0.019700
  1.377000,  0.022900
  1.379000,  0.026100
  1.381000,  0.029300
  1.383000,  0.032500
  1.385000,  0.035500
  1.387000,  0.038200
  1.389000,  0.041000
  1.391000,  0.043700
  1.393000,  0.046100
  1.395000,  0.048300
  1.397000,  0.050100
  1.399000,  0.051500
