# z (nm)   (kJ/mol)
  0.299000, 11.247700
  0.301000, 10.680900
  0.303000, 10.057000
  0.305000,  9.416500
  0.307000,  8.762300
  0.309000,  8.146100
  0.311000,  7.548900
  0.313000,  6.918900
  0.315000,  6.278600
  0.317000,  5.652400
  0.319000,  5.029200
  0.321000,  4.384400
  0.323000,  3.722700
  0.325000,  3.059900
  0.327000,  2.405500
  0.329000,  1.755100
  0.331000,  1.095500
  0.333000,  0.439800
  0.335000, -0.199200
  0.337000, -0.833800
  0.339000, -1.472800
  0.341000, -2.098700
  0.343000, -2.708100
  0.345000, -3.306700
  0.347000, -3.898400
  0.349000, -4.480900
  0.351000, -5.046100
  0.353000, -5.596600
  0.355000, -6.133500
  0.357000, -6.655700
  0.359000, -7.163700
  0.361000, -7.657500
  0.363000, -8.135000
  0.365000, -8.595000
  0.367000, -9.038600
  0.369000, -9.465600
  0.371000, -9.873400
  0.373000,-10.262700
  0.375000,-10.633200
  0.377000,-10.985900
  0.379000,-11.319300
  0.381000,-11.631500
  0.383000,-11.924400
  0.385000,-12.197000
  0.387000,-12.449500
  0.389000,-12.681200
  0.391000,-12.892400
  0.393000,-13.083400
  0.395000,-13.253400
  0.397000,-13.403200
  0.399000,-13.533400
  0.401000,-13.644000
  0.403000,-13.734900
  0.405000,-13.806300
  0.407000,-13.858100
  0.409000,-13.891100
  0.411000,-13.904900
  0.413000,-13.901100
  0.415000,-13.880700
  0.417000,-13.843600
  0.419000,-13.791200
  0.421000,-13.723100
  0.423000,-13.641200
  0.425000,-13.544900
  0.427000,-13.434000
  0.429000,-13.310700
  0.431000,-13.177200
  0.433000,-13.032600
  0.435000,-12.876100
  0.437000,-12.708600
  0.439000,-12.531900
  0.441000,-12.348500
  0.443000,-12.157800
  0.445000,-11.959300
  0.447000,-11.754400
  0.449000,-11.543700
  0.451000,-11.328600
  0.453000,-11.109400
  0.455000,-10.885900
  0.457000,-10.659000
  0.459000,-10.429100
  0.461000,-10.197100
  0.463000, -9.963100
  0.465000, -9.727600
  0.467000, -9.490500
  0.469000, -9.251900
  0.471000, -9.012700
  0.473000, -8.772500
  0.475000, -8.532000
  0.477000, -8.291800
  0.479000, -8.051700
  0.481000, -7.811500
  0.483000, -7.571300
  0.485000, -7.331200
  0.487000, -7.091500
  0.489000, -6.851800
  0.491000, -6.612900
  0.493000, -6.374900
  0.495000, -6.137100
  0.497000, -5.900100
  0.499000, -5.664000
  0.501000, -5.428400
  0.503000, -5.193600
  0.505000, -4.959700
  0.507000, -4.726600
  0.509000, -4.494100
  0.511000, -4.262900
  0.513000, -4.032700
  0.515000, -3.803400
  0.517000, -3.575200
  0.519000, -3.348500
  0.521000, -3.122600
  0.523000, -2.897200
  0.525000, -2.673200
  0.527000, -2.451000
  0.529000, -2.230500
  0.531000, -2.012200
  0.533000, -1.795200
  0.535000, -1.578600
  0.537000, -1.363600
  0.539000, -1.151400
  0.541000, -0.941500
  0.543000, -0.734200
  0.545000, -0.529300
  0.547000, -0.326200
  0.549000, -0.125900
  0.551000,  0.070900
  0.553000,  0.265000
  0.555000,  0.456500
  0.557000,  0.644100
  0.559000,  0.827300
  0.561000,  1.007400
  0.563000,  1.183400
  0.565000,  1.355400
  0.567000,  1.523700
  0.569000,  1.685800
  0.571000,  1.841100
  0.573000,  1.992000
  0.575000,  2.138600
  0.577000,  2.280400
  0.579000,  2.416700
  0.581000,  2.546200
  0.583000,  2.670600
  0.585000,  2.789700
  0.587000,  2.902100
  0.589000,  3.008300
  0.591000,  3.109200
  0.593000,  3.204000
  0.595000,  3.291800
  0.597000,  3.373000
  0.599000,  3.447700
  0.601000,  3.514900
  0.603000,  3.575000
  0.605000,  3.627800
  0.607000,  3.673300
  0.609000,  3.712100
  0.611000,  3.744000
  0.613000,  3.769000
  0.615000,  3.786800
  0.617000,  3.797200
  0.619000,  3.800400
  0.621000,  3.796600
  0.623000,  3.785700
  0.625000,  3.768000
  0.627000,  3.743800
  0.629000,  3.712900
  0.631000,  3.675600
  0.633000,  3.632200
  0.635000,  3.583100
  0.637000,  3.527700
  0.639000,  3.466400
  0.641000,  3.400000
  0.643000,  3.327900
  0.645000,  3.251300
  0.647000,  3.170100
  0.649000,  3.084200
  0.651000,  2.994000
  0.653000,  2.900200
  0.655000,  2.803200
  0.657000,  2.702200
  0.659000,  2.597300
  0.661000,  2.488400
  0.663000,  2.378100
  0.665000,  2.266400
  0.667000,  2.152900
  0.669000,  2.037300
  0.671000,  1.919200
  0.673000,  1.799900
  0.675000,  1.679700
  0.677000,  1.559800
  0.679000,  1.439200
  0.681000,  1.319700
  0.683000,  1.201000
  0.685000,  1.080600
  0.687000,  0.961300
  0.689000,  0.844500
  0.691000,  0.728300
  0.693000,  0.612200
  0.695000,  0.499000
  0.697000,  0.388700
  0.699000,  0.279900
  0.701000,  0.173600
  0.703000,  0.069700
  0.705000, -0.032200
  0.707000, -0.131200
  0.709000, -0.227300
  0.711000, -0.320500
  0.713000, -0.410100
  0.715000, -0.496800
  0.717000, -0.580500
  0.719000, -0.660300
  0.721000, -0.736500
  0.723000, -0.808800
  0.725000, -0.876500
  0.727000, -0.940200
  0.729000, -1.000500
  0.731000, -1.057400
  0.733000, -1.110800
  0.735000, -1.160200
  0.737000, -1.205400
  0.739000, -1.246900
  0.741000, -1.284700
  0.743000, -1.318700
  0.745000, -1.349100
  0.747000, -1.375900
  0.749000, -1.398800
  0.751000, -1.417900
  0.753000, -1.433600
  0.755000, -1.445700
  0.757000, -1.454400
  0.759000, -1.460000
  0.761000, -1.462400
  0.763000, -1.461600
  0.765000, -1.457800
  0.767000, -1.451200
  0.769000, -1.442000
  0.771000, -1.429600
  0.773000, -1.414500
  0.775000, -1.397000
  0.777000, -1.377000
  0.779000, -1.354500
  0.781000, -1.330000
  0.783000, -1.303400
  0.785000, -1.274900
  0.787000, -1.244600
  0.789000, -1.212500
  0.791000, -1.178700
  0.793000, -1.143400
  0.795000, -1.106600
  0.797000, -1.068100
  0.799000, -1.028300
  0.801000, -0.987500
  0.803000, -0.945300
  0.805000, -0.902400
  0.807000, -0.858700
  0.809000, -0.814100
  0.811000, -0.768900
  0.813000, -0.723000
  0.815000, -0.676600
  0.817000, -0.630200
  0.819000, -0.583600
  0.821000, -0.536400
  0.823000, -0.488800
  0.825000, -0.441100
  0.827000, -0.393500
  0.829000, -0.345900
  0.831000, -0.298200
  0.833000, -0.250700
  0.835000, -0.203600
  0.837000, -0.156900
  0.839000, -0.110500
  0.841000, -0.064600
  0.843000, -0.019200
  0.845000,  0.025800
  0.847000,  0.070000
  0.849000,  0.113600
  0.851000,  0.156700
  0.853000,  0.199300
  0.855000,  0.241200
  0.857000,  0.282200
  0.859000,  0.322100
  0.861000,  0.361000
  0.863000,  0.399000
  0.865000,  0.435900
  0.867000,  0.471800
  0.869000,  0.506500
  0.871000,  0.540000
  0.873000,  0.572400
  0.875000,  0.603600
  0.877000,  0.633600
  0.879000,  0.662300
  0.881000,  0.689700
  0.883000,  0.715600
  0.885000,  0.740000
  0.887000,  0.762900
  0.889000,  0.784500
  0.891000,  0.804800
  0.893000,  0.823300
  0.895000,  0.840400
  0.897000,  0.856000
  0.899000,  0.870100
  0.901000,  0.882500
  0.903000,  0.893300
  0.905000,  0.902700
  0.907000,  0.910600
  0.909000,  0.916900
  0.911000,  0.921600
  0.913000,  0.924800
  0.915000,  0.926400
  0.917000,  0.926300
  0.919000,  0.924700
  0.921000,  0.921500
  0.923000,  0.916800
  0.925000,  0.910500
  0.927000,  0.902900
  0.929000,  0.894000
  0.931000,  0.883500
  0.933000,  0.871500
  0.935000,  0.858300
  0.937000,  0.843800
  0.939000,  0.827900
  0.941000,  0.810900
  0.943000,  0.792600
  0.945000,  0.773100
  0.947000,  0.752400
  0.949000,  0.730500
  0.951000,  0.707600
  0.953000,  0.683900
  0.955000,  0.659100
  0.957000,  0.633500
  0.959000,  0.607100
  0.961000,  0.579800
  0.963000,  0.551700
  0.965000,  0.523400
  0.967000,  0.494400
  0.969000,  0.464800
  0.971000,  0.434600
  0.973000,  0.404000
  0.975000,  0.373000
  0.977000,  0.342000
  0.979000,  0.311100
  0.981000,  0.279900
  0.983000,  0.248400
  0.985000,  0.216800
  0.987000,  0.185400
  0.989000,  0.154100
  0.991000,  0.122900
  0.993000,  0.091700
  0.995000,  0.061000
  0.997000,  0.030700
  0.999000,  0.000900
  1.001000, -0.028700
  1.003000, -0.057800
  1.005000, -0.086300
  1.007000, -0.114300
  1.009000, -0.141300
  1.011000, -0.167500
  1.013000, -0.193200
  1.015000, -0.217800
  1.017000, -0.241500
  1.019000, -0.264400
  1.021000, -0.286400
  1.023000, -0.307500
  1.025000, -0.327700
  1.027000, -0.346800
  1.029000, -0.365000
  1.031000, -0.382200
  1.033000, -0.398200
  1.035000, -0.413300
  1.037000, -0.427200
  1.039000, -0.440200
  1.041000, -0.452100
  1.043000, -0.462900
  1.045000, -0.472500
  1.047000, -0.481100
  1.049000, -0.488500
  1.051000, -0.494900
  1.053000, -0.500300
  1.055000, -0.504600
  1.057000, -0.508000
  1.059000, -0.510400
  1.061000, -0.511800
  1.063000, -0.512400
  1.065000, -0.512100
  1.067000, -0.510900
  1.069000, -0.508900
  1.071000, -0.506000
  1.073000, -0.502400
  1.075000, -0.498100
  1.077000, -0.493000
  1.079000, -0.487200
  1.081000, -0.480900
  1.083000, -0.473900
  1.085000, -0.466400
  1.087000, -0.458300
  1.089000, -0.449800
  1.091000, -0.440900
  1.093000, -0.431600
  1.095000, -0.421900
  1.097000, -0.411900
  1.099000, -0.401600
  1.101000, -0.391000
  1.103000, -0.380300
  1.105000, -0.369500
  1.107000, -0.358400
  1.109000, -0.347100
  1.111000, -0.335700
  1.113000, -0.324200
  1.115000, -0.312500
  1.117000, -0.300800
  1.119000, -0.289200
  1.121000, -0.277600
  1.123000, -0.265900
  1.125000, -0.254400
  1.127000, -0.242900
  1.129000, -0.231400
  1.131000, -0.220000
  1.133000, -0.208600
  1.135000, -0.197300
  1.137000, -0.186100
  1.139000, -0.175000
  1.141000, -0.164100
  1.143000, -0.153300
  1.145000, -0.142600
  1.147000, -0.132100
  1.149000, -0.121900
  1.151000, -0.111600
  1.153000, -0.101400
  1.155000, -0.091400
  1.157000, -0.081500
  1.159000, -0.071900
  1.161000, -0.062500
  1.163000, -0.053200
  1.165000, -0.044000
  1.167000, -0.035000
  1.169000, -0.026300
  1.171000, -0.017800
  1.173000, -0.009500
  1.175000, -0.001500
  1.177000,  0.006300
  1.179000,  0.013900
  1.181000,  0.021300
  1.183000,  0.028400
  1.185000,  0.035300
  1.187000,  0.042000
  1.189000,  0.048300
  1.191000,  0.054400
  1.193000,  0.060200
  1.195000,  0.065800
  1.197000,  0.071000
  1.199000,  0.075900
  1.201000,  0.080300
  1.203000,  0.084500
  1.205000,  0.088500
  1.207000,  0.092100
  1.209000,  0.095400
  1.211000,  0.098400
  1.213000,  0.101000
  1.215000,  0.103300
  1.217000,  0.105400
  1.219000,  0.107200
  1.221000,  0.108500
  1.223000,  0.109500
  1.225000,  0.110200
  1.227000,  0.110600
  1.229000,  0.110600
  1.231000,  0.110300
  1.233000,  0.109600
  1.235000,  0.108500
  1.237000,  0.107200
  1.239000,  0.105700
  1.241000,  0.103700
  1.243000,  0.101600
  1.245000,  0.099300
  1.247000,  0.096800
  1.249000,  0.094000
  1.251000,  0.091000
  1.253000,  0.087800
  1.255000,  0.084300
  1.257000,  0.080400
  1.259000,  0.076500
  1.261000,  0.072500
  1.263000,  0.068200
  1.265000,  0.063800
  1.267000,  0.059400
  1.269000,  0.054700
  1.271000,  0.050000
  1.273000,  0.045100
  1.275000,  0.040200
  1.277000,  0.035300
  1.279000,  0.030300
  1.281000,  0.025100
  1.283000,  0.020000
  1.285000,  0.014800
  1.287000,  0.009600
  1.289000,  0.004200
  1.291000, -0.001000
  1.293000, -0.006100
  1.295000, -0.011200
  1.297000, -0.016200
  1.299000, -0.021100
  1.301000, -0.026000
  1.303000, -0.030800
  1.305000, -0.035500
  1.307000, -0.040200
  1.309000, -0.044800
  1.311000, -0.049100
  1.313000, -0.053300
  1.315000, -0.057500
  1.317000, -0.061500
  1.319000, -0.065300
  1.321000, -0.068900
  1.323000, -0.072300
  1.325000, -0.075400
  1.327000, -0.078300
  1.329000, -0.081000
  1.331000, -0.083500
  1.333000, -0.085700
  1.335000, -0.087600
  1.337000, -0.089300
  1.339000, -0.090700
  1.341000, -0.091900
  1.343000, -0.092800
  1.345000, -0.093500
  1.347000, -0.093900
  1.349000, -0.094000
  1.351000, -0.093900
  1.353000, -0.093400
  1.355000, -0.092800
  1.357000, -0.091900
  1.359000, -0.090800
  1.361000, -0.089400
  1.363000, -0.087900
  1.365000, -0.086300
  1.367000, -0.084500
  1.369000, -0.082400
  1.371000, -0.080000
  1.373000, -0.077500
  1.375000, -0.074900
  1.377000, -0.072300
  1.379000, -0.069500
  1.381000, -0.066800
  1.383000, -0.064100
  1.385000, -0.061200
  1.387000, -0.058300
  1.389000, -0.055600
  1.391000, -0.053200
  1.393000, -0.050800
  1.395000, -0.048600
  1.397000, -0.046900
  1.399000, -0.045500
