# z (nm)   (kJ/mol)
  0.289000,  9.958300
  0.291000,  9.423700
  0.293000,  8.899600
  0.295000,  8.365200
  0.297000,  7.784200
  0.299000,  7.206100
  0.301000,  6.625500
  0.303000,  6.043800
  0.305000,  5.460000
  0.307000,  4.864900
  0.309000,  4.267900
  0.311000,  3.676800
  0.313000,  3.078800
  0.315000,  2.478500
  0.317000,  1.870800
  0.319000,  1.262400
  0.321000,  0.669300
  0.323000,  0.086500
  0.325000, -0.486400
  0.327000, -1.053100
  0.329000, -1.620200
  0.331000, -2.181500
  0.333000, -2.731500
  0.335000, -3.272000
  0.337000, -3.800900
  0.339000, -4.313800
  0.341000, -4.814000
  0.343000, -5.307200
  0.345000, -5.785200
  0.347000, -6.246200
  0.349000, -6.696400
  0.351000, -7.130400
  0.353000, -7.547300
  0.355000, -7.950900
  0.357000, -8.335100
  0.359000, -8.699800
  0.361000, -9.050400
  0.363000, -9.384500
  0.365000, -9.701000
  0.367000, -9.999400
  0.369000,-10.279500
  0.371000,-10.540600
  0.373000,-10.782900
  0.375000,-11.007100
  0.377000,-11.212900
  0.379000,-11.400900
  0.381000,-11.571100
  0.383000,-11.723000
  0.385000,-11.857000
  0.387000,-11.973800
  0.389000,-12.072400
  0.391000,-12.153800
  0.393000,-12.217800
  0.395000,-12.265400
  0.397000,-12.297800
  0.399000,-12.315300
  0.401000,-12.318100
  0.403000,-12.305600
  0.405000,-12.278900
  0.407000,-12.239100
  0.409000,-12.187200
  0.411000,-12.123500
  0.413000,-12.048000
  0.415000,-11.961300
  0.417000,-11.864200
  0.419000,-11.758300
  0.421000,-11.644200
  0.423000,-11.522600
  0.425000,-11.393700
  0.427000,-11.258500
  0.429000,-11.118300
  0.431000,-10.972300
  0.433000,-10.821700
  0.435000,-10.667500
  0.437000,-10.510400
  0.439000,-10.350300
  0.441000,-10.187300
  0.443000,-10.024100
  0.445000, -9.860000
  0.447000, -9.694900
  0.449000, -9.530500
  0.451000, -9.366400
  0.453000, -9.202700
  0.455000, -9.040000
  0.457000, -8.878700
  0.459000, -8.718800
  0.461000, -8.560700
  0.463000, -8.404900
  0.465000, -8.251800
  0.467000, -8.101300
  0.469000, -7.953200
  0.471000, -7.807800
  0.473000, -7.664500
  0.475000, -7.523800
  0.477000, -7.386200
  0.479000, -7.251800
  0.481000, -7.119700
  0.483000, -6.990200
  0.485000, -6.863600
  0.487000, -6.739200
  0.489000, -6.617800
  0.491000, -6.499300
  0.493000, -6.383000
  0.495000, -6.269100
  0.497000, -6.157500
  0.499000, -6.048300
  0.501000, -5.941800
  0.503000, -5.837400
  0.505000, -5.734600
  0.507000, -5.633500
  0.509000, -5.533900
  0.511000, -5.436100
  0.513000, -5.340500
  0.515000, -5.246000
  0.517000, -5.152600
  0.519000, -5.060500
  0.521000, -4.969400
  0.523000, -4.879300
  0.525000, -4.789800
  0.527000, -4.701100
  0.529000, -4.613000
  0.531000, -4.525300
  0.533000, -4.438000
  0.535000, -4.351100
  0.537000, -4.264800
  0.539000, -4.178500
  0.541000, -4.092500
  0.543000, -4.006700
  0.545000, -3.920600
  0.547000, -3.834600
  0.549000, -3.748800
  0.551000, -3.663100
  0.553000, -3.576800
  0.555000, -3.490300
  0.557000, -3.404200
  0.559000, -3.318100
  0.561000, -3.232000
  0.563000, -3.145400
  0.565000, -3.059200
  0.567000, -2.973500
  0.569000, -2.888100
  0.571000, -2.803000
  0.573000, -2.718300
  0.575000, -2.634100
  0.577000, -2.550300
  0.579000, -2.467000
  0.581000, -2.384600
  0.583000, -2.303100
  0.585000, -2.222600
  0.587000, -2.143600
  0.589000, -2.065800
  0.591000, -1.989300
  0.593000, -1.914200
  0.595000, -1.840500
  0.597000, -1.768600
  0.599000, -1.698100
  0.601000, -1.630700
  0.603000, -1.566100
  0.605000, -1.503700
  0.607000, -1.443800
  0.609000, -1.386900
  0.611000, -1.332900
  0.613000, -1.281600
  0.615000, -1.233600
  0.617000, -1.188900
  0.619000, -1.147800
  0.621000, -1.110000
  0.623000, -1.075600
  0.625000, -1.044900
  0.627000, -1.017900
  0.629000, -0.994400
  0.631000, -0.974100
  0.633000, -0.957100
  0.635000, -0.944000
  0.637000, -0.934400
  0.639000, -0.928800
  0.641000, -0.926600
  0.643000, -0.927700
  0.645000, -0.931800
  0.647000, -0.939200
  0.649000, -0.949700
  0.651000, -0.962600
  0.653000, -0.978400
  0.655000, -0.996900
  0.657000, -1.017700
  0.659000, -1.041000
  0.661000, -1.066400
  0.663000, -1.093100
  0.665000, -1.122100
  0.667000, -1.152900
  0.669000, -1.184300
  0.671000, -1.216500
  0.673000, -1.249300
  0.675000, -1.282700
  0.677000, -1.316800
  0.679000, -1.351400
  0.681000, -1.386100
  0.683000, -1.420400
  0.685000, -1.454600
  0.687000, -1.488200
  0.689000, -1.521200
  0.691000, -1.553700
  0.693000, -1.585100
  0.695000, -1.614700
  0.697000, -1.642800
  0.699000, -1.669400
  0.701000, -1.694700
  0.703000, -1.719000
  0.705000, -1.741600
  0.707000, -1.762500
  0.709000, -1.781300
  0.711000, -1.798100
  0.713000, -1.812900
  0.715000, -1.825600
  0.717000, -1.836800
  0.719000, -1.846000
  0.721000, -1.852800
  0.723000, -1.857500
  0.725000, -1.860200
  0.727000, -1.861100
  0.729000, -1.859900
  0.731000, -1.856600
  0.733000, -1.851500
  0.735000, -1.844300
  0.737000, -1.835300
  0.739000, -1.824500
  0.741000, -1.811900
  0.743000, -1.797900
  0.745000, -1.782000
  0.747000, -1.764400
  0.749000, -1.745400
  0.751000, -1.725100
  0.753000, -1.703500
  0.755000, -1.680800
  0.757000, -1.657300
  0.759000, -1.632500
  0.761000, -1.606500
  0.763000, -1.579700
  0.765000, -1.552000
  0.767000, -1.523500
  0.769000, -1.493900
  0.771000, -1.463800
  0.773000, -1.432900
  0.775000, -1.401900
  0.777000, -1.370600
  0.779000, -1.338700
  0.781000, -1.306600
  0.783000, -1.274400
  0.785000, -1.242000
  0.787000, -1.209200
  0.789000, -1.176500
  0.791000, -1.144300
  0.793000, -1.111700
  0.795000, -1.079000
  0.797000, -1.046900
  0.799000, -1.014700
  0.801000, -0.982400
  0.803000, -0.950200
  0.805000, -0.918300
  0.807000, -0.886500
  0.809000, -0.855000
  0.811000, -0.824000
  0.813000, -0.793400
  0.815000, -0.763100
  0.817000, -0.732900
  0.819000, -0.703400
  0.821000, -0.674500
  0.823000, -0.645600
  0.825000, -0.617100
  0.827000, -0.589000
  0.829000, -0.561400
  0.831000, -0.534500
  0.833000, -0.507900
  0.835000, -0.481800
  0.837000, -0.456400
  0.839000, -0.431500
  0.841000, -0.407100
  0.843000, -0.383300
  0.845000, -0.360000
  0.847000, -0.337400
  0.849000, -0.315300
  0.851000, -0.293700
  0.853000, -0.272700
  0.855000, -0.252300
  0.857000, -0.232500
  0.859000, -0.213500
  0.861000, -0.195200
  0.863000, -0.177400
  0.865000, -0.160200
  0.867000, -0.143900
  0.869000, -0.128300
  0.871000, -0.113200
  0.873000, -0.098800
  0.875000, -0.085100
  0.877000, -0.072100
  0.879000, -0.059800
  0.881000, -0.048400
  0.883000, -0.037600
  0.885000, -0.027600
  0.887000, -0.018300
  0.889000, -0.009800
  0.891000, -0.002000
  0.893000,  0.005200
  0.895000,  0.011600
  0.897000,  0.017200
  0.899000,  0.022200
  0.901000,  0.026500
  0.903000,  0.030200
  0.905000,  0.033000
  0.907000,  0.035300
  0.909000,  0.036900
  0.911000,  0.037800
  0.913000,  0.038100
  0.915000,  0.037800
  0.917000,  0.036900
  0.919000,  0.035400
  0.921000,  0.033200
  0.923000,  0.030400
  0.925000,  0.027300
  0.927000,  0.023700
  0.929000,  0.019500
  0.931000,  0.014800
  0.933000,  0.009600
  0.935000,  0.003900
  0.937000, -0.002200
  0.939000, -0.008800
  0.941000, -0.015700
  0.943000, -0.022900
  0.945000, -0.030500
  0.947000, -0.038200
  0.949000, -0.046300
  0.951000, -0.054800
  0.953000, -0.063400
  0.955000, -0.072000
  0.957000, -0.080800
  0.959000, -0.089700
  0.961000, -0.098800
  0.963000, -0.108200
  0.965000, -0.117500
  0.967000, -0.126800
  0.969000, -0.136000
  0.971000, -0.145000
  0.973000, -0.154200
  0.975000, -0.163200
  0.977000, -0.172200
  0.979000, -0.181100
  0.981000, -0.189700
  0.983000, -0.198100
  0.985000, -0.206300
  0.987000, -0.214300
  0.989000, -0.222000
  0.991000, -0.229300
  0.993000, -0.236500
  0.995000, -0.243300
  0.997000, -0.249900
  0.999000, -0.256200
  1.001000, -0.262100
  1.003000, -0.267500
  1.005000, -0.272800
  1.007000, -0.277700
  1.009000, -0.282300
  1.011000, -0.286400
  1.013000, -0.290100
  1.015000, -0.293300
  1.017000, -0.296200
  1.019000, -0.298800
  1.021000, -0.301000
  1.023000, -0.303000
  1.025000, -0.304500
  1.027000, -0.305700
  1.029000, -0.306600
  1.031000, -0.307200
  1.033000, -0.307400
  1.035000, -0.307200
  1.037000, -0.306800
  1.039000, -0.306000
  1.041000, -0.304900
  1.043000, -0.303500
  1.045000, -0.301900
  1.047000, -0.300100
  1.049000, -0.298300
  1.051000, -0.296000
  1.053000, -0.293500
  1.055000, -0.290900
  1.057000, -0.288000
  1.059000, -0.285000
  1.061000, -0.281900
  1.063000, -0.278800
  1.065000, -0.275600
  1.067000, -0.272200
  1.069000, -0.268800
  1.071000, -0.265300
  1.073000, -0.261700
  1.075000, -0.258000
  1.077000, -0.254400
  1.079000, -0.250700
  1.081000, -0.247100
  1.083000, -0.243300
  1.085000, -0.239500
  1.087000, -0.235600
  1.089000, -0.231800
  1.091000, -0.227900
  1.093000, -0.223900
  1.095000, -0.220000
  1.097000, -0.216200
  1.099000, -0.212300
  1.101000, -0.208500
  1.103000, -0.204700
  1.105000, -0.200900
  1.107000, -0.197200
  1.109000, -0.193400
  1.111000, -0.189600
  1.113000, -0.185900
  1.115000, -0.182300
  1.117000, -0.178700
  1.119000, -0.175100
  1.121000, -0.171500
  1.123000, -0.168000
  1.125000, -0.164600
  1.127000, -0.161300
  1.129000, -0.157800
  1.131000, -0.154300
  1.133000, -0.150900
  1.135000, -0.147500
  1.137000, -0.144200
  1.139000, -0.140900
  1.141000, -0.137400
  1.143000, -0.134000
  1.145000, -0.130700
  1.147000, -0.127200
  1.149000, -0.123900
  1.151000, -0.120700
  1.153000, -0.117400
  1.155000, -0.114100
  1.157000, -0.110900
  1.159000, -0.107700
  1.161000, -0.104400
  1.163000, -0.101200
  1.165000, -0.098000
  1.167000, -0.094900
  1.169000, -0.091800
  1.171000, -0.088600
  1.173000, -0.085300
  1.175000, -0.082000
  1.177000, -0.078800
  1.179000, -0.075700
  1.181000, -0.072500
  1.183000, -0.069300
  1.185000, -0.066100
  1.187000, -0.063000
  1.189000, -0.059900
  1.191000, -0.056800
  1.193000, -0.053700
  1.195000, -0.050600
  1.197000, -0.047600
  1.199000, -0.044500
  1.201000, -0.041300
  1.203000, -0.038000
  1.205000, -0.034900
  1.207000, -0.031800
  1.209000, -0.028600
  1.211000, -0.025600
  1.213000, -0.022500
  1.215000, -0.019500
  1.217000, -0.016500
  1.219000, -0.013600
  1.221000, -0.010600
  1.223000, -0.007700
  1.225000, -0.004900
  1.227000, -0.002100
  1.229000,  0.000700
  1.231000,  0.003500
  1.233000,  0.006100
  1.235000,  0.008600
  1.237000,  0.011100
  1.239000,  0.013400
  1.241000,  0.015800
  1.243000,  0.018100
  1.245000,  0.020300
  1.247000,  0.022300
  1.249000,  0.024100
  1.251000,  0.025800
  1.253000,  0.027300
  1.255000,  0.028600
  1.257000,  0.029800
  1.259000,  0.030900
  1.261000,  0.031900
  1.263000,  0.032700
  1.265000,  0.033300
  1.267000,  0.033800
  1.269000,  0.034000
  1.271000,  0.034200
  1.273000,  0.034100
  1.275000,  0.033800
  1.277000,  0.033400
  1.279000,  0.032700
  1.281000,  0.031800
  1.283000,  0.030800
  1.285000,  0.029700
  1.287000,  0.028600
  1.289000,  0.027300
  1.291000,  0.025700
  1.293000,  0.024100
  1.295000,  0.022200
  1.297000,  0.020300
  1.299000,  0.018200
  1.301000,  0.016100
  1.303000,  0.013900
  1.305000,  0.011500
  1.307000,  0.009200
  1.309000,  0.006800
  1.311000,  0.004400
  1.313000,  0.002000
  1.315000, -0.000500
  1.317000, -0.003000
  1.319000, -0.005500
  1.321000, -0.007700
  1.323000, -0.009900
  1.325000, -0.012100
  1.327000, -0.014100
  1.329000, -0.015900
  1.331000, -0.017800
  1.333000, -0.019600
  1.335000, -0.021200
  1.337000, -0.022700
  1.339000, -0.024100
  1.341000, -0.025300
  1.343000, -0.026200
  1.345000, -0.027000
  1.347000, -0.027600
  1.349000, -0.027900
  1.351000, -0.027900
  1.353000, -0.027800
  1.355000, -0.027600
  1.357000, -0.027200
  1.359000, -0.026700
  1.361000, -0.025900
  1.363000, -0.024900
  1.365000, -0.023800
  1.367000, -0.022300
  1.369000, -0.020600
  1.371000, -0.019100
  1.373000, -0.017300
  1.375000, -0.015200
  1.377000, -0.013200
  1.379000, -0.010900
  1.381000, -0.008500
  1.383000, -0.006300
  1.385000, -0.003800
  1.387000, -0.001100
  1.389000,  0.001600
  1.391000,  0.004000
  1.393000,  0.006200
  1.395000,  0.008300
  1.397000,  0.009500
  1.399000,  0.010600
