# z (nm)   (kJ/mol)
  0.277000,  2.047000
  0.279000,  1.510000
  0.281000,  0.908000
  0.283000,  0.302300
  0.285000, -0.309300
  0.287000, -0.963500
  0.289000, -1.613500
  0.291000, -2.270800
  0.293000, -2.940800
  0.295000, -3.620700
  0.297000, -4.294500
  0.299000, -4.970200
  0.301000, -5.650100
  0.303000, -6.322800
  0.305000, -6.993700
  0.307000, -7.655300
  0.309000, -8.317200
  0.311000, -8.975900
  0.313000, -9.630300
  0.315000,-10.278000
  0.317000,-10.913200
  0.319000,-11.539300
  0.321000,-12.156800
  0.323000,-12.764800
  0.325000,-13.362000
  0.327000,-13.945200
  0.329000,-14.515300
  0.331000,-15.073800
  0.333000,-15.613700
  0.335000,-16.138800
  0.337000,-16.649500
  0.339000,-17.141600
  0.341000,-17.617000
  0.343000,-18.075900
  0.345000,-18.515700
  0.347000,-18.935400
  0.349000,-19.334800
  0.351000,-19.713400
  0.353000,-20.070100
  0.355000,-20.406100
  0.357000,-20.721700
  0.359000,-21.015300
  0.361000,-21.286500
  0.363000,-21.534800
  0.365000,-21.761200
  0.367000,-21.965600
  0.369000,-22.147900
  0.371000,-22.307300
  0.373000,-22.444200
  0.375000,-22.560500
  0.377000,-22.654900
  0.379000,-22.726100
  0.381000,-22.775900
  0.383000,-22.806200
  0.385000,-22.816800
  0.387000,-22.807400
  0.389000,-22.779500
  0.391000,-22.734400
  0.393000,-22.672300
  0.395000,-22.591600
  0.397000,-22.493100
  0.399000,-22.379600
  0.401000,-22.250900
  0.403000,-22.108200
  0.405000,-21.952600
  0.407000,-21.784900
  0.409000,-21.607500
  0.411000,-21.420500
  0.413000,-21.222500
  0.415000,-21.014500
  0.417000,-20.798600
  0.419000,-20.575200
  0.421000,-20.345100
  0.423000,-20.109200
  0.425000,-19.868400
  0.427000,-19.623800
  0.429000,-19.376300
  0.431000,-19.125900
  0.433000,-18.873100
  0.435000,-18.618800
  0.437000,-18.363700
  0.439000,-18.108800
  0.441000,-17.854500
  0.443000,-17.601300
  0.445000,-17.350100
  0.447000,-17.101200
  0.449000,-16.855600
  0.451000,-16.613100
  0.453000,-16.373700
  0.455000,-16.138800
  0.457000,-15.909000
  0.459000,-15.683800
  0.461000,-15.463800
  0.463000,-15.249500
  0.465000,-15.041100
  0.467000,-14.838400
  0.469000,-14.642200
  0.471000,-14.452700
  0.473000,-14.269800
  0.475000,-14.094100
  0.477000,-13.924600
  0.479000,-13.761700
  0.481000,-13.605700
  0.483000,-13.456000
  0.485000,-13.312800
  0.487000,-13.175800
  0.489000,-13.044700
  0.491000,-12.919300
  0.493000,-12.799800
  0.495000,-12.685900
  0.497000,-12.577300
  0.499000,-12.474200
  0.501000,-12.376000
  0.503000,-12.281400
  0.505000,-12.190700
  0.507000,-12.104100
  0.509000,-12.020100
  0.511000,-11.938700
  0.513000,-11.859700
  0.515000,-11.782600
  0.517000,-11.707100
  0.519000,-11.631900
  0.521000,-11.556400
  0.523000,-11.480800
  0.525000,-11.404700
  0.527000,-11.327600
  0.529000,-11.249000
  0.531000,-11.168100
  0.533000,-11.084900
  0.535000,-10.998300
  0.537000,-10.907800
  0.539000,-10.813900
  0.541000,-10.715900
  0.543000,-10.613200
  0.545000,-10.505600
  0.547000,-10.393000
  0.549000,-10.275300
  0.551000,-10.152200
  0.553000,-10.023400
  0.555000, -9.888500
  0.557000, -9.748100
  0.559000, -9.602400
  0.561000, -9.450200
  0.563000, -9.292200
  0.565000, -9.128100
  0.567000, -8.957900
  0.569000, -8.782500
  0.571000, -8.601400
  0.573000, -8.414700
  0.575000, -8.222900
  0.577000, -8.027200
  0.579000, -7.826300
  0.581000, -7.621200
  0.583000, -7.413000
  0.585000, -7.202400
  0.587000, -6.989300
  0.589000, -6.773600
  0.591000, -6.557300
  0.593000, -6.339600
  0.595000, -6.121600
  0.597000, -5.903000
  0.599000, -5.683700
  0.601000, -5.465400
  0.603000, -5.248900
  0.605000, -5.034800
  0.607000, -4.823800
  0.609000, -4.615500
  0.611000, -4.410500
  0.613000, -4.210400
  0.615000, -4.016400
  0.617000, -3.828300
  0.619000, -3.645200
  0.621000, -3.468100
  0.623000, -3.298800
  0.625000, -3.136300
  0.627000, -2.980500
  0.629000, -2.832800
  0.631000, -2.693500
  0.633000, -2.563200
  0.635000, -2.441900
  0.637000, -2.328800
  0.639000, -2.223900
  0.641000, -2.127500
  0.643000, -2.039800
  0.645000, -1.961200
  0.647000, -1.891600
  0.649000, -1.830300
  0.651000, -1.777700
  0.653000, -1.733300
  0.655000, -1.696500
  0.657000, -1.666700
  0.659000, -1.644500
  0.661000, -1.629900
  0.663000, -1.621100
  0.665000, -1.620000
  0.667000, -1.625800
  0.669000, -1.636000
  0.671000, -1.650600
  0.673000, -1.669900
  0.675000, -1.695400
  0.677000, -1.724700
  0.679000, -1.756900
  0.681000, -1.793600
  0.683000, -1.830500
  0.685000, -1.869700
  0.687000, -1.913400
  0.689000, -1.958900
  0.691000, -2.005000
  0.693000, -2.050400
  0.695000, -2.096500
  0.697000, -2.143500
  0.699000, -2.191600
  0.701000, -2.238900
  0.703000, -2.286200
  0.705000, -2.334200
  0.707000, -2.379800
  0.709000, -2.423800
  0.711000, -2.466800
  0.713000, -2.507800
  0.715000, -2.546500
  0.717000, -2.583200
  0.719000, -2.618300
  0.721000, -2.651600
  0.723000, -2.682600
  0.725000, -2.710600
  0.727000, -2.736200
  0.729000, -2.759600
  0.731000, -2.780300
  0.733000, -2.798200
  0.735000, -2.813400
  0.737000, -2.826200
  0.739000, -2.836600
  0.741000, -2.844400
  0.743000, -2.849600
  0.745000, -2.852200
  0.747000, -2.852400
  0.749000, -2.850500
  0.751000, -2.846500
  0.753000, -2.840100
  0.755000, -2.831600
  0.757000, -2.821000
  0.759000, -2.808500
  0.761000, -2.794300
  0.763000, -2.777800
  0.765000, -2.759600
  0.767000, -2.740300
  0.769000, -2.719500
  0.771000, -2.697100
  0.773000, -2.673000
  0.775000, -2.647600
  0.777000, -2.621200
  0.779000, -2.594000
  0.781000, -2.566100
  0.783000, -2.537000
  0.785000, -2.507100
  0.787000, -2.476600
  0.789000, -2.445400
  0.791000, -2.414100
  0.793000, -2.382300
  0.795000, -2.350300
  0.797000, -2.317900
  0.799000, -2.284800
  0.801000, -2.251200
  0.803000, -2.217500
  0.805000, -2.184100
  0.807000, -2.150200
  0.809000, -2.116100
  0.811000, -2.082200
  0.813000, -2.048100
  0.815000, -2.014100
  0.817000, -1.980000
  0.819000, -1.945700
  0.821000, -1.911700
  0.823000, -1.877500
  0.825000, -1.843300
  0.827000, -1.809600
  0.829000, -1.775800
  0.831000, -1.741800
  0.833000, -1.707600
  0.835000, -1.673300
  0.837000, -1.639500
  0.839000, -1.605800
  0.841000, -1.572000
  0.843000, -1.538100
  0.845000, -1.503800
  0.847000, -1.469600
  0.849000, -1.436000
  0.851000, -1.402300
  0.853000, -1.368600
  0.855000, -1.335200
  0.857000, -1.301600
  0.859000, -1.268200
  0.861000, -1.234800
  0.863000, -1.201300
  0.865000, -1.167900
  0.867000, -1.134600
  0.869000, -1.101100
  0.871000, -1.067700
  0.873000, -1.034600
  0.875000, -1.001700
  0.877000, -0.969000
  0.879000, -0.936500
  0.881000, -0.904400
  0.883000, -0.872500
  0.885000, -0.841000
  0.887000, -0.810000
  0.889000, -0.779100
  0.891000, -0.748500
  0.893000, -0.718500
  0.895000, -0.688600
  0.897000, -0.659100
  0.899000, -0.630700
  0.901000, -0.602700
  0.903000, -0.575200
  0.905000, -0.548300
  0.907000, -0.522100
  0.909000, -0.496600
  0.911000, -0.471700
  0.913000, -0.447400
  0.915000, -0.423900
  0.917000, -0.401500
  0.919000, -0.380000
  0.921000, -0.359300
  0.923000, -0.339300
  0.925000, -0.320400
  0.927000, -0.302300
  0.929000, -0.285200
  0.931000, -0.269100
  0.933000, -0.253900
  0.935000, -0.239600
  0.937000, -0.226500
  0.939000, -0.214400
  0.941000, -0.203200
  0.943000, -0.193000
  0.945000, -0.183900
  0.947000, -0.175700
  0.949000, -0.168600
  0.951000, -0.162500
  0.953000, -0.157400
  0.955000, -0.153200
  0.957000, -0.149900
  0.959000, -0.147500
  0.961000, -0.146000
  0.963000, -0.145200
  0.965000, -0.145200
  0.967000, -0.146300
  0.969000, -0.148100
  0.971000, -0.150500
  0.973000, -0.153400
  0.975000, -0.157100
  0.977000, -0.161400
  0.979000, -0.166600
  0.981000, -0.172500
  0.983000, -0.179000
  0.985000, -0.185800
  0.987000, -0.192900
  0.989000, -0.200500
  0.991000, -0.208500
  0.993000, -0.216700
  0.995000, -0.225500
  0.997000, -0.234500
  0.999000, -0.243800
  1.001000, -0.253500
  1.003000, -0.263000
  1.005000, -0.272400
  1.007000, -0.281800
  1.009000, -0.291300
  1.011000, -0.300800
  1.013000, -0.310300
  1.015000, -0.319800
  1.017000, -0.329200
  1.019000, -0.338400
  1.021000, -0.347300
  1.023000, -0.356100
  1.025000, -0.364600
  1.027000, -0.372900
  1.029000, -0.381000
  1.031000, -0.388900
  1.033000, -0.396400
  1.035000, -0.403700
  1.037000, -0.410500
  1.039000, -0.417000
  1.041000, -0.423200
  1.043000, -0.429000
  1.045000, -0.434600
  1.047000, -0.439900
  1.049000, -0.444800
  1.051000, -0.449300
  1.053000, -0.453300
  1.055000, -0.456800
  1.057000, -0.460000
  1.059000, -0.462800
  1.061000, -0.465100
  1.063000, -0.467000
  1.065000, -0.468700
  1.067000, -0.470000
  1.069000, -0.470900
  1.071000, -0.471500
  1.073000, -0.471600
  1.075000, -0.471300
  1.077000, -0.470800
  1.079000, -0.469900
  1.081000, -0.468500
  1.083000, -0.466800
  1.085000, -0.464800
  1.087000, -0.462500
  1.089000, -0.459900
  1.091000, -0.457100
  1.093000, -0.453800
  1.095000, -0.450400
  1.097000, -0.446700
  1.099000, -0.442800
  1.101000, -0.438600
  1.103000, -0.434300
  1.105000, -0.429800
  1.107000, -0.425200
  1.109000, -0.420400
  1.111000, -0.415300
  1.113000, -0.410100
  1.115000, -0.404500
  1.117000, -0.398900
  1.119000, -0.393100
  1.121000, -0.387100
  1.123000, -0.381100
  1.125000, -0.375100
  1.127000, -0.369000
  1.129000, -0.362700
  1.131000, -0.356200
  1.133000, -0.349700
  1.135000, -0.343400
  1.137000, -0.336900
  1.139000, -0.330100
  1.141000, -0.323400
  1.143000, -0.316600
  1.145000, -0.309600
  1.147000, -0.302700
  1.149000, -0.296000
  1.151000, -0.289300
  1.153000, -0.282400
  1.155000, -0.275600
  1.157000, -0.268900
  1.159000, -0.262200
  1.161000, -0.255600
  1.163000, -0.248900
  1.165000, -0.242100
  1.167000, -0.235400
  1.169000, -0.228800
  1.171000, -0.222200
  1.173000, -0.215400
  1.175000, -0.208700
  1.177000, -0.202100
  1.179000, -0.195500
  1.181000, -0.189000
  1.183000, -0.182600
  1.185000, -0.176200
  1.187000, -0.169900
  1.189000, -0.163600
  1.191000, -0.157500
  1.193000, -0.151300
  1.195000, -0.145300
  1.197000, -0.139300
  1.199000, -0.133400
  1.201000, -0.127700
  1.203000, -0.122000
  1.205000, -0.116500
  1.207000, -0.110900
  1.209000, -0.105400
  1.211000, -0.100100
  1.213000, -0.094800
  1.215000, -0.089700
  1.217000, -0.084600
  1.219000, -0.079400
  1.221000, -0.074500
  1.223000, -0.069600
  1.225000, -0.064900
  1.227000, -0.060400
  1.229000, -0.055800
  1.231000, -0.051300
  1.233000, -0.047000
  1.235000, -0.042700
  1.237000, -0.038400
  1.239000, -0.034300
  1.241000, -0.030400
  1.243000, -0.026500
  1.245000, -0.022800
  1.247000, -0.019200
  1.249000, -0.015700
  1.251000, -0.012400
  1.253000, -0.009100
  1.255000, -0.006000
  1.257000, -0.002900
  1.259000,  0.000100
  1.261000,  0.002900
  1.263000,  0.005700
  1.265000,  0.008300
  1.267000,  0.010800
  1.269000,  0.013200
  1.271000,  0.015400
  1.273000,  0.017500
  1.275000,  0.019400
  1.277000,  0.021300
  1.279000,  0.023000
  1.281000,  0.024500
  1.283000,  0.026000
  1.285000,  0.027300
  1.287000,  0.028500
  1.289000,  0.029500
  1.291000,  0.030300
  1.293000,  0.031100
  1.295000,  0.031700
  1.297000,  0.032100
  1.299000,  0.032400
  1.301000,  0.032500
  1.303000,  0.032600
  1.305000,  0.032600
  1.307000,  0.032400
  1.309000,  0.032100
  1.311000,  0.031700
  1.313000,  0.031100
  1.315000,  0.030500
  1.317000,  0.029800
  1.319000,  0.029000
  1.321000,  0.028100
  1.323000,  0.027200
  1.325000,  0.026300
  1.327000,  0.025300
  1.329000,  0.024300
  1.331000,  0.023400
  1.333000,  0.022600
  1.335000,  0.021800
  1.337000,  0.021100
  1.339000,  0.020400
  1.341000,  0.019600
  1.343000,  0.019100
  1.345000,  0.018600
  1.347000,  0.018100
  1.349000,  0.017800
  1.351000,  0.017600
  1.353000,  0.017500
  1.355000,  0.017600
  1.357000,  0.017800
  1.359000,  0.018100
  1.361000,  0.018700
  1.363000,  0.019300
  1.365000,  0.020100
  1.367000,  0.020900
  1.369000,  0.022100
  1.371000,  0.023400
  1.373000,  0.024900
  1.375000,  0.026400
  1.377000,  0.028000
  1.379000,  0.029700
  1.381000,  0.031600
  1.383000,  0.033600
  1.385000,  0.035800
  1.387000,  0.038000
  1.389000,  0.039800
  1.391000,  0.041700
  1.393000,  0.043400
  1.395000,  0.045100
  1.397000,  0.046700
  1.399000,  0.048000
