# z (nm)   (kJ/mol)
  0.247000, 11.281600
  0.249000, 10.767000
  0.251000, 10.277500
  0.253000,  9.780200
  0.255000,  9.259400
  0.257000,  8.724300
  0.259000,  8.179100
  0.261000,  7.620400
  0.263000,  7.045400
  0.265000,  6.476300
  0.267000,  5.920300
  0.269000,  5.376800
  0.271000,  4.838500
  0.273000,  4.293800
  0.275000,  3.752100
  0.277000,  3.222500
  0.279000,  2.696200
  0.281000,  2.171600
  0.283000,  1.654700
  0.285000,  1.148300
  0.287000,  0.655000
  0.289000,  0.175600
  0.291000, -0.298100
  0.293000, -0.766200
  0.295000, -1.222800
  0.297000, -1.670500
  0.299000, -2.099500
  0.301000, -2.511100
  0.303000, -2.912800
  0.305000, -3.302100
  0.307000, -3.677200
  0.309000, -4.040400
  0.311000, -4.390000
  0.313000, -4.725600
  0.315000, -5.046700
  0.317000, -5.353300
  0.319000, -5.645400
  0.321000, -5.920300
  0.323000, -6.180700
  0.325000, -6.428300
  0.327000, -6.660500
  0.329000, -6.877200
  0.331000, -7.079500
  0.333000, -7.268100
  0.335000, -7.442800
  0.337000, -7.602600
  0.339000, -7.748100
  0.341000, -7.879300
  0.343000, -7.996100
  0.345000, -8.099100
  0.347000, -8.188200
  0.349000, -8.263700
  0.351000, -8.325500
  0.353000, -8.374400
  0.355000, -8.411500
  0.357000, -8.436300
  0.359000, -8.448100
  0.361000, -8.447800
  0.363000, -8.437300
  0.365000, -8.415800
  0.367000, -8.383200
  0.369000, -8.341800
  0.371000, -8.290400
  0.373000, -8.228200
  0.375000, -8.157800
  0.377000, -8.079700
  0.379000, -7.994500
  0.381000, -7.902200
  0.383000, -7.801900
  0.385000, -7.694000
  0.387000, -7.580300
  0.389000, -7.461900
  0.391000, -7.338600
  0.393000, -7.210300
  0.395000, -7.077000
  0.397000, -6.938800
  0.399000, -6.796000
  0.401000, -6.649100
  0.403000, -6.498900
  0.405000, -6.346100
  0.407000, -6.190400
  0.409000, -6.031200
  0.411000, -5.869300
  0.413000, -5.705300
  0.415000, -5.540000
  0.417000, -5.373000
  0.419000, -5.203800
  0.421000, -5.033300
  0.423000, -4.862300
  0.425000, -4.690000
  0.427000, -4.516600
  0.429000, -4.342600
  0.431000, -4.168200
  0.433000, -3.993400
  0.435000, -3.818300
  0.437000, -3.643000
  0.439000, -3.467500
  0.441000, -3.292500
  0.443000, -3.118000
  0.445000, -2.943800
  0.447000, -2.770700
  0.449000, -2.598400
  0.451000, -2.426200
  0.453000, -2.255800
  0.455000, -2.087200
  0.457000, -1.919400
  0.459000, -1.753200
  0.461000, -1.589000
  0.463000, -1.426800
  0.465000, -1.266300
  0.467000, -1.107900
  0.469000, -0.952000
  0.471000, -0.798400
  0.473000, -0.648000
  0.475000, -0.500900
  0.477000, -0.356500
  0.479000, -0.215500
  0.481000, -0.077400
  0.483000,  0.057100
  0.485000,  0.187800
  0.487000,  0.315000
  0.489000,  0.438600
  0.491000,  0.558700
  0.493000,  0.674200
  0.495000,  0.785200
  0.497000,  0.892000
  0.499000,  0.994800
  0.501000,  1.093100
  0.503000,  1.186300
  0.505000,  1.275300
  0.507000,  1.359900
  0.509000,  1.439200
  0.511000,  1.513800
  0.513000,  1.583300
  0.515000,  1.647600
  0.517000,  1.707300
  0.519000,  1.761800
  0.521000,  1.811300
  0.523000,  1.856000
  0.525000,  1.895400
  0.527000,  1.929900
  0.529000,  1.959300
  0.531000,  1.983900
  0.533000,  2.003700
  0.535000,  2.018500
  0.537000,  2.028400
  0.539000,  2.033800
  0.541000,  2.034200
  0.543000,  2.030100
  0.545000,  2.021500
  0.547000,  2.008500
  0.549000,  1.991200
  0.551000,  1.969700
  0.553000,  1.944000
  0.555000,  1.914300
  0.557000,  1.881100
  0.559000,  1.844300
  0.561000,  1.804000
  0.563000,  1.760300
  0.565000,  1.713800
  0.567000,  1.664600
  0.569000,  1.612100
  0.571000,  1.556200
  0.573000,  1.498500
  0.575000,  1.438500
  0.577000,  1.376600
  0.579000,  1.313300
  0.581000,  1.247600
  0.583000,  1.179700
  0.585000,  1.111200
  0.587000,  1.042400
  0.589000,  0.972400
  0.591000,  0.901000
  0.593000,  0.829300
  0.595000,  0.758100
  0.597000,  0.686000
  0.599000,  0.613500
  0.601000,  0.541800
  0.603000,  0.470200
  0.605000,  0.398800
  0.607000,  0.327900
  0.609000,  0.258000
  0.611000,  0.189300
  0.613000,  0.121600
  0.615000,  0.054900
  0.617000, -0.010300
  0.619000, -0.073800
  0.621000, -0.135900
  0.623000, -0.196500
  0.625000, -0.255100
  0.627000, -0.312100
  0.629000, -0.367300
  0.631000, -0.420500
  0.633000, -0.471900
  0.635000, -0.521400
  0.637000, -0.568900
  0.639000, -0.614000
  0.641000, -0.657000
  0.643000, -0.698000
  0.645000, -0.736900
  0.647000, -0.773600
  0.649000, -0.808000
  0.651000, -0.840400
  0.653000, -0.871000
  0.655000, -0.899100
  0.657000, -0.924800
  0.659000, -0.948500
  0.661000, -0.970400
  0.663000, -0.990400
  0.665000, -1.008100
  0.667000, -1.024000
  0.669000, -1.038200
  0.671000, -1.050500
  0.673000, -1.060800
  0.675000, -1.069200
  0.677000, -1.075900
  0.679000, -1.080800
  0.681000, -1.084100
  0.683000, -1.085800
  0.685000, -1.085900
  0.687000, -1.084200
  0.689000, -1.081000
  0.691000, -1.076200
  0.693000, -1.070200
  0.695000, -1.062700
  0.697000, -1.053500
  0.699000, -1.043300
  0.701000, -1.031900
  0.703000, -1.019000
  0.705000, -1.005000
  0.707000, -0.990000
  0.709000, -0.973800
  0.711000, -0.956700
  0.713000, -0.938400
  0.715000, -0.919100
  0.717000, -0.898900
  0.719000, -0.877900
  0.721000, -0.856000
  0.723000, -0.833000
  0.725000, -0.809200
  0.727000, -0.784900
  0.729000, -0.759700
  0.731000, -0.733600
  0.733000, -0.706800
  0.735000, -0.679400
  0.737000, -0.651300
  0.739000, -0.622700
  0.741000, -0.593800
  0.743000, -0.564600
  0.745000, -0.535200
  0.747000, -0.505300
  0.749000, -0.474800
  0.751000, -0.444300
  0.753000, -0.413600
  0.755000, -0.382700
  0.757000, -0.351700
  0.759000, -0.320700
  0.761000, -0.290000
  0.763000, -0.259200
  0.765000, -0.228600
  0.767000, -0.198100
  0.769000, -0.167600
  0.771000, -0.137300
  0.773000, -0.107200
  0.775000, -0.077600
  0.777000, -0.048400
  0.779000, -0.019600
  0.781000,  0.008600
  0.783000,  0.036200
  0.785000,  0.063100
  0.787000,  0.089600
  0.789000,  0.115600
  0.791000,  0.141000
  0.793000,  0.165700
  0.795000,  0.189700
  0.797000,  0.212700
  0.799000,  0.235000
  0.801000,  0.256700
  0.803000,  0.277400
  0.805000,  0.297200
  0.807000,  0.316200
  0.809000,  0.334300
  0.811000,  0.351400
  0.813000,  0.367700
  0.815000,  0.383000
  0.817000,  0.397400
  0.819000,  0.410900
  0.821000,  0.423600
  0.823000,  0.435300
  0.825000,  0.446200
  0.827000,  0.456000
  0.829000,  0.465000
  0.831000,  0.473200
  0.833000,  0.480400
  0.835000,  0.486800
  0.837000,  0.492300
  0.839000,  0.496900
  0.841000,  0.500700
  0.843000,  0.503600
  0.845000,  0.505800
  0.847000,  0.507200
  0.849000,  0.507500
  0.851000,  0.507100
  0.853000,  0.506000
  0.855000,  0.504300
  0.857000,  0.502100
  0.859000,  0.499000
  0.861000,  0.495200
  0.863000,  0.490600
  0.865000,  0.485700
  0.867000,  0.480300
  0.869000,  0.474400
  0.871000,  0.467900
  0.873000,  0.460900
  0.875000,  0.453300
  0.877000,  0.445400
  0.879000,  0.437100
  0.881000,  0.428400
  0.883000,  0.419300
  0.885000,  0.409800
  0.887000,  0.400000
  0.889000,  0.389800
  0.891000,  0.379400
  0.893000,  0.368800
  0.895000,  0.358000
  0.897000,  0.346900
  0.899000,  0.335500
  0.901000,  0.323800
  0.903000,  0.312000
  0.905000,  0.300100
  0.907000,  0.287900
  0.909000,  0.275800
  0.911000,  0.263500
  0.913000,  0.251200
  0.915000,  0.238900
  0.917000,  0.226600
  0.919000,  0.214300
  0.921000,  0.201900
  0.923000,  0.189500
  0.925000,  0.177000
  0.927000,  0.164500
  0.929000,  0.152200
  0.931000,  0.140100
  0.933000,  0.127800
  0.935000,  0.115500
  0.937000,  0.103400
  0.939000,  0.091500
  0.941000,  0.079700
  0.943000,  0.068000
  0.945000,  0.056400
  0.947000,  0.045000
  0.949000,  0.033900
  0.951000,  0.023000
  0.953000,  0.012200
  0.955000,  0.001700
  0.957000, -0.008600
  0.959000, -0.018600
  0.961000, -0.028300
  0.963000, -0.037700
  0.965000, -0.046900
  0.967000, -0.055800
  0.969000, -0.064500
  0.971000, -0.072800
  0.973000, -0.080700
  0.975000, -0.088400
  0.977000, -0.095700
  0.979000, -0.102700
  0.981000, -0.109400
  0.983000, -0.115700
  0.985000, -0.121600
  0.987000, -0.127100
  0.989000, -0.132200
  0.991000, -0.136900
  0.993000, -0.141200
  0.995000, -0.145200
  0.997000, -0.148800
  0.999000, -0.152000
  1.001000, -0.154700
  1.003000, -0.157100
  1.005000, -0.159200
  1.007000, -0.160800
  1.009000, -0.162000
  1.011000, -0.162800
  1.013000, -0.163300
  1.015000, -0.163400
  1.017000, -0.163000
  1.019000, -0.162200
  1.021000, -0.161100
  1.023000, -0.159700
  1.025000, -0.157900
  1.027000, -0.155700
  1.029000, -0.153300
  1.031000, -0.150600
  1.033000, -0.147500
  1.035000, -0.144200
  1.037000, -0.140600
  1.039000, -0.136700
  1.041000, -0.132700
  1.043000, -0.128400
  1.045000, -0.123800
  1.047000, -0.119000
  1.049000, -0.114100
  1.051000, -0.108900
  1.053000, -0.103700
  1.055000, -0.098200
  1.057000, -0.092700
  1.059000, -0.087100
  1.061000, -0.081400
  1.063000, -0.075600
  1.065000, -0.069800
  1.067000, -0.064100
  1.069000, -0.058400
  1.071000, -0.052500
  1.073000, -0.046600
  1.075000, -0.040700
  1.077000, -0.034900
  1.079000, -0.029100
  1.081000, -0.023400
  1.083000, -0.017800
  1.085000, -0.012300
  1.087000, -0.006800
  1.089000, -0.001400
  1.091000,  0.003900
  1.093000,  0.009000
  1.095000,  0.014100
  1.097000,  0.018900
  1.099000,  0.023600
  1.101000,  0.028300
  1.103000,  0.032900
  1.105000,  0.037400
  1.107000,  0.041700
  1.109000,  0.046000
  1.111000,  0.050100
  1.113000,  0.054000
  1.115000,  0.057900
  1.117000,  0.061700
  1.119000,  0.065400
  1.121000,  0.068900
  1.123000,  0.072300
  1.125000,  0.075600
  1.127000,  0.078800
  1.129000,  0.081800
  1.131000,  0.084700
  1.133000,  0.087600
  1.135000,  0.090300
  1.137000,  0.092800
  1.139000,  0.095300
  1.141000,  0.097800
  1.143000,  0.100100
  1.145000,  0.102400
  1.147000,  0.104400
  1.149000,  0.106300
  1.151000,  0.108100
  1.153000,  0.109800
  1.155000,  0.111400
  1.157000,  0.112900
  1.159000,  0.114300
  1.161000,  0.115600
  1.163000,  0.116700
  1.165000,  0.117700
  1.167000,  0.118600
  1.169000,  0.119300
  1.171000,  0.120000
  1.173000,  0.120500
  1.175000,  0.120900
  1.177000,  0.121100
  1.179000,  0.121000
  1.181000,  0.120600
  1.183000,  0.120100
  1.185000,  0.119500
  1.187000,  0.118500
  1.189000,  0.117500
  1.191000,  0.116500
  1.193000,  0.115300
  1.195000,  0.113700
  1.197000,  0.112000
  1.199000,  0.110200
  1.201000,  0.108000
  1.203000,  0.105600
  1.205000,  0.103000
  1.207000,  0.100300
  1.209000,  0.097400
  1.211000,  0.094300
  1.213000,  0.091200
  1.215000,  0.087800
  1.217000,  0.084300
  1.219000,  0.080700
  1.221000,  0.076900
  1.223000,  0.073100
  1.225000,  0.069100
  1.227000,  0.065100
  1.229000,  0.061100
  1.231000,  0.057000
  1.233000,  0.052700
  1.235000,  0.048500
  1.237000,  0.044200
  1.239000,  0.039900
  1.241000,  0.035700
  1.243000,  0.031400
  1.245000,  0.027300
  1.247000,  0.023100
  1.249000,  0.019000
  1.251000,  0.015000
  1.253000,  0.010900
  1.255000,  0.006900
  1.257000,  0.003000
  1.259000, -0.000700
  1.261000, -0.004400
  1.263000, -0.008000
  1.265000, -0.011400
  1.267000, -0.014700
  1.269000, -0.017900
  1.271000, -0.020900
  1.273000, -0.023800
  1.275000, -0.026400
  1.277000, -0.028900
  1.279000, -0.031300
  1.281000, -0.033600
  1.283000, -0.035800
  1.285000, -0.037700
  1.287000, -0.039600
  1.289000, -0.041200
  1.291000, -0.042800
  1.293000, -0.044200
  1.295000, -0.045400
  1.297000, -0.046600
  1.299000, -0.047600
  1.301000, -0.048400
  1.303000, -0.049100
  1.305000, -0.049700
  1.307000, -0.050100
  1.309000, -0.050500
  1.311000, -0.050800
  1.313000, -0.051000
  1.315000, -0.050900
  1.317000, -0.050700
  1.319000, -0.050500
  1.321000, -0.050200
  1.323000, -0.049800
  1.325000, -0.049300
  1.327000, -0.048800
  1.329000, -0.048000
  1.331000, -0.047100
  1.333000, -0.046000
  1.335000, -0.044900
  1.337000, -0.043600
  1.339000, -0.042100
  1.341000, -0.040700
  1.343000, -0.039100
  1.345000, -0.037500
  1.347000, -0.035800
  1.349000, -0.033800
  1.351000, -0.031500
  1.353000, -0.029300
  1.355000, -0.027000
  1.357000, -0.024400
  1.359000, -0.021900
  1.361000, -0.019400
  1.363000, -0.016800
  1.365000, -0.014100
  1.367000, -0.011200
  1.369000, -0.008300
  1.371000, -0.005200
  1.373000, -0.002000
  1.375000,  0.001000
  1.377000,  0.003800
  1.379000,  0.006700
  1.381000,  0.009700
  1.383000,  0.012400
  1.385000,  0.015100
  1.387000,  0.018000
  1.389000,  0.020700
  1.391000,  0.023100
  1.393000,  0.025300
  1.395000,  0.026900
  1.397000,  0.028400
  1.399000,  0.029500
