# z (nm)   (kJ/mol)
  0.2650   10.64310
  0.2670   10.13400
  0.2690    9.61320
  0.2710    9.08760
  0.2730    8.55680
  0.2750    8.00640
  0.2770    7.45460
  0.2790    6.90080
  0.2810    6.33870
  0.2830    5.76330
  0.2850    5.18720
  0.2870    4.61130
  0.2890    4.02840
  0.2910    3.45030
  0.2930    2.88210
  0.2950    2.32180
  0.2970    1.75760
  0.2990    1.19320
  0.3010    0.63920
  0.3030    0.09890
  0.3050   -0.43620
  0.3070   -0.96470
  0.3090   -1.48480
  0.3110   -1.99750
  0.3130   -2.49770
  0.3150   -2.98720
  0.3170   -3.46280
  0.3190   -3.92960
  0.3210   -4.38620
  0.3230   -4.82750
  0.3250   -5.25420
  0.3270   -5.66840
  0.3290   -6.06980
  0.3310   -6.45500
  0.3330   -6.82560
  0.3350   -7.18370
  0.3370   -7.52750
  0.3390   -7.85590
  0.3410   -8.16740
  0.3430   -8.46240
  0.3450   -8.74270
  0.3470   -9.00670
  0.3490   -9.25370
  0.3510   -9.48610
  0.3530   -9.70260
  0.3550   -9.90180
  0.3570  -10.08490
  0.3590  -10.25180
  0.3610  -10.40260
  0.3630  -10.53790
  0.3650  -10.65750
  0.3670  -10.76150
  0.3690  -10.85000
  0.3710  -10.92290
  0.3730  -10.98160
  0.3750  -11.02540
  0.3770  -11.05490
  0.3790  -11.07090
  0.3810  -11.07220
  0.3830  -11.06070
  0.3850  -11.03670
  0.3870  -11.00060
  0.3890  -10.95280
  0.3910  -10.89400
  0.3930  -10.82470
  0.3950  -10.74660
  0.3970  -10.66060
  0.3990  -10.56390
  0.4010  -10.45880
  0.4030  -10.34740
  0.4050  -10.22840
  0.4070  -10.10250
  0.4090   -9.97020
  0.4110   -9.83270
  0.4130   -9.69140
  0.4150   -9.54580
  0.4170   -9.39580
  0.4190   -9.24200
  0.4210   -9.08530
  0.4230   -8.92560
  0.4250   -8.76340
  0.4270   -8.59940
  0.4290   -8.43340
  0.4310   -8.26570
  0.4330   -8.09650
  0.4350   -7.92610
  0.4370   -7.75460
  0.4390   -7.58250
  0.4410   -7.40970
  0.4430   -7.23640
  0.4450   -7.06290
  0.4470   -6.88890
  0.4490   -6.71460
  0.4510   -6.54010
  0.4530   -6.36570
  0.4550   -6.19110
  0.4570   -6.01630
  0.4590   -5.84140
  0.4610   -5.66610
  0.4630   -5.49130
  0.4650   -5.31640
  0.4670   -5.14120
  0.4690   -4.96640
  0.4710   -4.79180
  0.4730   -4.61690
  0.4750   -4.44220
  0.4770   -4.26790
  0.4790   -4.09380
  0.4810   -3.91990
  0.4830   -3.74610
  0.4850   -3.57240
  0.4870   -3.39930
  0.4890   -3.22670
  0.4910   -3.05440
  0.4930   -2.88290
  0.4950   -2.71260
  0.4970   -2.54280
  0.4990   -2.37340
  0.5010   -2.20510
  0.5030   -2.03840
  0.5050   -1.87360
  0.5070   -1.71020
  0.5090   -1.54800
  0.5110   -1.38830
  0.5130   -1.23070
  0.5150   -1.07560
  0.5170   -0.92330
  0.5190   -0.77280
  0.5210   -0.62470
  0.5230   -0.48050
  0.5250   -0.34010
  0.5270   -0.20350
  0.5290   -0.06960
  0.5310    0.06050
  0.5330    0.18570
  0.5350    0.30770
  0.5370    0.42560
  0.5390    0.53800
  0.5410    0.64610
  0.5430    0.74970
  0.5450    0.84860
  0.5470    0.94270
  0.5490    1.03150
  0.5510    1.11470
  0.5530    1.19190
  0.5550    1.26370
  0.5570    1.33030
  0.5590    1.39130
  0.5610    1.44660
  0.5630    1.49610
  0.5650    1.53950
  0.5670    1.57730
  0.5690    1.60950
  0.5710    1.63590
  0.5730    1.65650
  0.5750    1.67150
  0.5770    1.68070
  0.5790    1.68450
  0.5810    1.68290
  0.5830    1.67610
  0.5850    1.66420
  0.5870    1.64700
  0.5890    1.62530
  0.5910    1.59920
  0.5930    1.56790
  0.5950    1.53240
  0.5970    1.49250
  0.5990    1.44810
  0.6010    1.40070
  0.6030    1.35020
  0.6050    1.29610
  0.6070    1.23920
  0.6090    1.17970
  0.6110    1.11740
  0.6130    1.05240
  0.6150    0.98450
  0.6170    0.91480
  0.6190    0.84350
  0.6210    0.76980
  0.6230    0.69530
  0.6250    0.62050
  0.6270    0.54460
  0.6290    0.46800
  0.6310    0.39100
  0.6330    0.31380
  0.6350    0.23670
  0.6370    0.16010
  0.6390    0.08380
  0.6410    0.00800
  0.6430   -0.06660
  0.6450   -0.14020
  0.6470   -0.21300
  0.6490   -0.28450
  0.6510   -0.35490
  0.6530   -0.42400
  0.6550   -0.49160
  0.6570   -0.55710
  0.6590   -0.62020
  0.6610   -0.68130
  0.6630   -0.74040
  0.6650   -0.79730
  0.6670   -0.85170
  0.6690   -0.90380
  0.6710   -0.95390
  0.6730   -1.00130
  0.6750   -1.04620
  0.6770   -1.08860
  0.6790   -1.12830
  0.6810   -1.16560
  0.6830   -1.20040
  0.6850   -1.23260
  0.6870   -1.26230
  0.6890   -1.28960
  0.6910   -1.31410
  0.6930   -1.33610
  0.6950   -1.35570
  0.6970   -1.37280
  0.6990   -1.38720
  0.7010   -1.39940
  0.7030   -1.40940
  0.7050   -1.41740
  0.7070   -1.42310
  0.7090   -1.42660
  0.7110   -1.42780
  0.7130   -1.42690
  0.7150   -1.42400
  0.7170   -1.41910
  0.7190   -1.41250
  0.7210   -1.40410
  0.7230   -1.39380
  0.7250   -1.38180
  0.7270   -1.36830
  0.7290   -1.35340
  0.7310   -1.33700
  0.7330   -1.31930
  0.7350   -1.30050
  0.7370   -1.28010
  0.7390   -1.25800
  0.7410   -1.23500
  0.7430   -1.21100
  0.7450   -1.18570
  0.7470   -1.15920
  0.7490   -1.13210
  0.7510   -1.10410
  0.7530   -1.07530
  0.7550   -1.04580
  0.7570   -1.01570
  0.7590   -0.98500
  0.7610   -0.95400
  0.7630   -0.92260
  0.7650   -0.89050
  0.7670   -0.85790
  0.7690   -0.82500
  0.7710   -0.79160
  0.7730   -0.75770
  0.7750   -0.72360
  0.7770   -0.68930
  0.7790   -0.65500
  0.7810   -0.62070
  0.7830   -0.58590
  0.7850   -0.55130
  0.7870   -0.51680
  0.7890   -0.48230
  0.7910   -0.44780
  0.7930   -0.41340
  0.7950   -0.37920
  0.7970   -0.34520
  0.7990   -0.31130
  0.8010   -0.27760
  0.8030   -0.24410
  0.8050   -0.21100
  0.8070   -0.17850
  0.8090   -0.14650
  0.8110   -0.11470
  0.8130   -0.08350
  0.8150   -0.05290
  0.8170   -0.02280
  0.8190    0.00680
  0.8210    0.03580
  0.8230    0.06430
  0.8250    0.09200
  0.8270    0.11900
  0.8290    0.14540
  0.8310    0.17100
  0.8330    0.19560
  0.8350    0.21950
  0.8370    0.24260
  0.8390    0.26480
  0.8410    0.28610
  0.8430    0.30660
  0.8450    0.32620
  0.8470    0.34470
  0.8490    0.36240
  0.8510    0.37920
  0.8530    0.39480
  0.8550    0.40950
  0.8570    0.42310
  0.8590    0.43580
  0.8610    0.44750
  0.8630    0.45810
  0.8650    0.46770
  0.8670    0.47630
  0.8690    0.48390
  0.8710    0.49050
  0.8730    0.49610
  0.8750    0.50070
  0.8770    0.50420
  0.8790    0.50700
  0.8810    0.50880
  0.8830    0.50960
  0.8850    0.50950
  0.8870    0.50830
  0.8890    0.50640
  0.8910    0.50350
  0.8930    0.49970
  0.8950    0.49520
  0.8970    0.48970
  0.8990    0.48340
  0.9010    0.47650
  0.9030    0.46890
  0.9050    0.46050
  0.9070    0.45150
  0.9090    0.44180
  0.9110    0.43150
  0.9130    0.42060
  0.9150    0.40910
  0.9170    0.39710
  0.9190    0.38460
  0.9210    0.37170
  0.9230    0.35830
  0.9250    0.34460
  0.9270    0.33060
  0.9290    0.31630
  0.9310    0.30160
  0.9330    0.28670
  0.9350    0.27170
  0.9370    0.25650
  0.9390    0.24100
  0.9410    0.22540
  0.9430    0.20970
  0.9450    0.19400
  0.9470    0.17830
  0.9490    0.16250
  0.9510    0.14670
  0.9530    0.13080
  0.9550    0.11520
  0.9570    0.09970
  0.9590    0.08440
  0.9610    0.06930
  0.9630    0.05430
  0.9650    0.03970
  0.9670    0.02530
  0.9690    0.01100
  0.9710   -0.00300
  0.9730   -0.01670
  0.9750   -0.03000
  0.9770   -0.04310
  0.9790   -0.05580
  0.9810   -0.06800
  0.9830   -0.07990
  0.9850   -0.09140
  0.9870   -0.10240
  0.9890   -0.11310
  0.9910   -0.12340
  0.9930   -0.13320
  0.9950   -0.14250
  0.9970   -0.15140
  0.9990   -0.15980
  1.0010   -0.16770
  1.0030   -0.17530
  1.0050   -0.18240
  1.0070   -0.18900
  1.0090   -0.19520
  1.0110   -0.20080
  1.0130   -0.20610
  1.0150   -0.21090
  1.0170   -0.21530
  1.0190   -0.21910
  1.0210   -0.22240
  1.0230   -0.22530
  1.0250   -0.22790
  1.0270   -0.23000
  1.0290   -0.23160
  1.0310   -0.23280
  1.0330   -0.23370
  1.0350   -0.23410
  1.0370   -0.23410
  1.0390   -0.23390
  1.0410   -0.23320
  1.0430   -0.23220
  1.0450   -0.23060
  1.0470   -0.22860
  1.0490   -0.22620
  1.0510   -0.22360
  1.0530   -0.22070
  1.0550   -0.21740
  1.0570   -0.21370
  1.0590   -0.20970
  1.0610   -0.20560
  1.0630   -0.20120
  1.0650   -0.19650
  1.0670   -0.19140
  1.0690   -0.18590
  1.0710   -0.18020
  1.0730   -0.17410
  1.0750   -0.16780
  1.0770   -0.16140
  1.0790   -0.15480
  1.0810   -0.14800
  1.0830   -0.14090
  1.0850   -0.13370
  1.0870   -0.12620
  1.0890   -0.11870
  1.0910   -0.11110
  1.0930   -0.10320
  1.0950   -0.09520
  1.0970   -0.08710
  1.0990   -0.07900
  1.1010   -0.07080
  1.1030   -0.06250
  1.1050   -0.05430
  1.1070   -0.04600
  1.1090   -0.03760
  1.1110   -0.02920
  1.1130   -0.02080
  1.1150   -0.01250
  1.1170   -0.00430
  1.1190    0.00390
  1.1210    0.01200
  1.1230    0.01990
  1.1250    0.02770
  1.1270    0.03520
  1.1290    0.04270
  1.1310    0.05000
  1.1330    0.05710
  1.1350    0.06410
  1.1370    0.07070
  1.1390    0.07710
  1.1410    0.08330
  1.1430    0.08930
  1.1450    0.09510
  1.1470    0.10040
  1.1490    0.10540
  1.1510    0.11020
  1.1530    0.11460
  1.1550    0.11870
  1.1570    0.12250
  1.1590    0.12600
  1.1610    0.12920
  1.1630    0.13210
  1.1650    0.13460
  1.1670    0.13670
  1.1690    0.13850
  1.1710    0.14000
  1.1730    0.14110
  1.1750    0.14170
  1.1770    0.14210
  1.1790    0.14230
  1.1810    0.14220
  1.1830    0.14170
  1.1850    0.14090
  1.1870    0.14000
  1.1890    0.13880
  1.1910    0.13730
  1.1930    0.13560
  1.1950    0.13360
  1.1970    0.13150
  1.1990    0.12910
  1.2010    0.12650
  1.2030    0.12370
  1.2050    0.12060
  1.2070    0.11740
  1.2090    0.11420
  1.2110    0.11090
  1.2130    0.10740
  1.2150    0.10380
  1.2170    0.10010
  1.2190    0.09650
  1.2210    0.09260
  1.2230    0.08880
  1.2250    0.08490
  1.2270    0.08090
  1.2290    0.07690
  1.2310    0.07290
  1.2330    0.06880
  1.2350    0.06470
  1.2370    0.06070
  1.2390    0.05670
  1.2410    0.05280
  1.2430    0.04890
  1.2450    0.04490
  1.2470    0.04090
  1.2490    0.03700
  1.2510    0.03310
  1.2530    0.02920
  1.2550    0.02550
  1.2570    0.02190
  1.2590    0.01840
  1.2610    0.01490
  1.2630    0.01160
  1.2650    0.00820
  1.2670    0.00480
  1.2690    0.00140
  1.2710   -0.00190
  1.2730   -0.00520
  1.2750   -0.00830
  1.2770   -0.01130
  1.2790   -0.01430
  1.2810   -0.01730
  1.2830   -0.02020
  1.2850   -0.02300
  1.2870   -0.02570
  1.2890   -0.02830
  1.2910   -0.03080
  1.2930   -0.03330
  1.2950   -0.03580
  1.2970   -0.03810
  1.2990   -0.04040
  1.3010   -0.04250
  1.3030   -0.04450
  1.3050   -0.04650
  1.3070   -0.04840
  1.3090   -0.05020
  1.3110   -0.05200
  1.3130   -0.05360
  1.3150   -0.05500
  1.3170   -0.05620
  1.3190   -0.05730
  1.3210   -0.05850
  1.3230   -0.05950
  1.3250   -0.06020
  1.3270   -0.06080
  1.3290   -0.06130
  1.3310   -0.06170
  1.3330   -0.06190
  1.3350   -0.06180
  1.3370   -0.06160
  1.3390   -0.06130
  1.3410   -0.06070
  1.3430   -0.06000
  1.3450   -0.05910
  1.3470   -0.05790
  1.3490   -0.05660
  1.3510   -0.05520
  1.3530   -0.05360
  1.3550   -0.05180
  1.3570   -0.04990
  1.3590   -0.04760
  1.3610   -0.04510
  1.3630   -0.04270
  1.3650   -0.04020
  1.3670   -0.03740
  1.3690   -0.03440
  1.3710   -0.03110
  1.3730   -0.02780
  1.3750   -0.02450
  1.3770   -0.02110
  1.3790   -0.01770
  1.3810   -0.01450
  1.3830   -0.01110
  1.3850   -0.00750
  1.3870   -0.00390
  1.3890   -0.00060
  1.3910    0.00250
  1.3930    0.00570
  1.3950    0.00860
  1.3970    0.01100
  1.3990    0.01290
