# z (nm)   (kJ/mol)
  0.265000, 10.643100
  0.267000, 10.134000
  0.269000,  9.613200
  0.271000,  9.087600
  0.273000,  8.556800
  0.275000,  8.006400
  0.277000,  7.454600
  0.279000,  6.900800
  0.281000,  6.338700
  0.283000,  5.763300
  0.285000,  5.187200
  0.287000,  4.611300
  0.289000,  4.028400
  0.291000,  3.450300
  0.293000,  2.882100
  0.295000,  2.321800
  0.297000,  1.757600
  0.299000,  1.193200
  0.301000,  0.639200
  0.303000,  0.098900
  0.305000, -0.436200
  0.307000, -0.964700
  0.309000, -1.484800
  0.311000, -1.997500
  0.313000, -2.497700
  0.315000, -2.987200
  0.317000, -3.462800
  0.319000, -3.929600
  0.321000, -4.386200
  0.323000, -4.827500
  0.325000, -5.254200
  0.327000, -5.668400
  0.329000, -6.069800
  0.331000, -6.455000
  0.333000, -6.825600
  0.335000, -7.183700
  0.337000, -7.527500
  0.339000, -7.855900
  0.341000, -8.167400
  0.343000, -8.462400
  0.345000, -8.742700
  0.347000, -9.006700
  0.349000, -9.253700
  0.351000, -9.486100
  0.353000, -9.702600
  0.355000, -9.901800
  0.357000,-10.084900
  0.359000,-10.251800
  0.361000,-10.402600
  0.363000,-10.537900
  0.365000,-10.657500
  0.367000,-10.761500
  0.369000,-10.850000
  0.371000,-10.922900
  0.373000,-10.981600
  0.375000,-11.025400
  0.377000,-11.054900
  0.379000,-11.070900
  0.381000,-11.072200
  0.383000,-11.060700
  0.385000,-11.036700
  0.387000,-11.000600
  0.389000,-10.952800
  0.391000,-10.894000
  0.393000,-10.824700
  0.395000,-10.746600
  0.397000,-10.660600
  0.399000,-10.563900
  0.401000,-10.458800
  0.403000,-10.347400
  0.405000,-10.228400
  0.407000,-10.102500
  0.409000, -9.970200
  0.411000, -9.832700
  0.413000, -9.691400
  0.415000, -9.545800
  0.417000, -9.395800
  0.419000, -9.242000
  0.421000, -9.085300
  0.423000, -8.925600
  0.425000, -8.763400
  0.427000, -8.599400
  0.429000, -8.433400
  0.431000, -8.265700
  0.433000, -8.096500
  0.435000, -7.926100
  0.437000, -7.754600
  0.439000, -7.582500
  0.441000, -7.409700
  0.443000, -7.236400
  0.445000, -7.062900
  0.447000, -6.888900
  0.449000, -6.714600
  0.451000, -6.540100
  0.453000, -6.365700
  0.455000, -6.191100
  0.457000, -6.016300
  0.459000, -5.841400
  0.461000, -5.666100
  0.463000, -5.491300
  0.465000, -5.316400
  0.467000, -5.141200
  0.469000, -4.966400
  0.471000, -4.791800
  0.473000, -4.616900
  0.475000, -4.442200
  0.477000, -4.267900
  0.479000, -4.093800
  0.481000, -3.919900
  0.483000, -3.746100
  0.485000, -3.572400
  0.487000, -3.399300
  0.489000, -3.226700
  0.491000, -3.054400
  0.493000, -2.882900
  0.495000, -2.712600
  0.497000, -2.542800
  0.499000, -2.373400
  0.501000, -2.205100
  0.503000, -2.038400
  0.505000, -1.873600
  0.507000, -1.710200
  0.509000, -1.548000
  0.511000, -1.388300
  0.513000, -1.230700
  0.515000, -1.075600
  0.517000, -0.923300
  0.519000, -0.772800
  0.521000, -0.624700
  0.523000, -0.480500
  0.525000, -0.340100
  0.527000, -0.203500
  0.529000, -0.069600
  0.531000,  0.060500
  0.533000,  0.185700
  0.535000,  0.307700
  0.537000,  0.425600
  0.539000,  0.538000
  0.541000,  0.646100
  0.543000,  0.749700
  0.545000,  0.848600
  0.547000,  0.942700
  0.549000,  1.031500
  0.551000,  1.114700
  0.553000,  1.191900
  0.555000,  1.263700
  0.557000,  1.330300
  0.559000,  1.391300
  0.561000,  1.446600
  0.563000,  1.496100
  0.565000,  1.539500
  0.567000,  1.577300
  0.569000,  1.609500
  0.571000,  1.635900
  0.573000,  1.656500
  0.575000,  1.671500
  0.577000,  1.680700
  0.579000,  1.684500
  0.581000,  1.682900
  0.583000,  1.676100
  0.585000,  1.664200
  0.587000,  1.647000
  0.589000,  1.625300
  0.591000,  1.599200
  0.593000,  1.567900
  0.595000,  1.532400
  0.597000,  1.492500
  0.599000,  1.448100
  0.601000,  1.400700
  0.603000,  1.350200
  0.605000,  1.296100
  0.607000,  1.239200
  0.609000,  1.179700
  0.611000,  1.117400
  0.613000,  1.052400
  0.615000,  0.984500
  0.617000,  0.914800
  0.619000,  0.843500
  0.621000,  0.769800
  0.623000,  0.695300
  0.625000,  0.620500
  0.627000,  0.544600
  0.629000,  0.468000
  0.631000,  0.391000
  0.633000,  0.313800
  0.635000,  0.236700
  0.637000,  0.160100
  0.639000,  0.083800
  0.641000,  0.008000
  0.643000, -0.066600
  0.645000, -0.140200
  0.647000, -0.213000
  0.649000, -0.284500
  0.651000, -0.354900
  0.653000, -0.424000
  0.655000, -0.491600
  0.657000, -0.557100
  0.659000, -0.620200
  0.661000, -0.681300
  0.663000, -0.740400
  0.665000, -0.797300
  0.667000, -0.851700
  0.669000, -0.903800
  0.671000, -0.953900
  0.673000, -1.001300
  0.675000, -1.046200
  0.677000, -1.088600
  0.679000, -1.128300
  0.681000, -1.165600
  0.683000, -1.200400
  0.685000, -1.232600
  0.687000, -1.262300
  0.689000, -1.289600
  0.691000, -1.314100
  0.693000, -1.336100
  0.695000, -1.355700
  0.697000, -1.372800
  0.699000, -1.387200
  0.701000, -1.399400
  0.703000, -1.409400
  0.705000, -1.417400
  0.707000, -1.423100
  0.709000, -1.426600
  0.711000, -1.427800
  0.713000, -1.426900
  0.715000, -1.424000
  0.717000, -1.419100
  0.719000, -1.412500
  0.721000, -1.404100
  0.723000, -1.393800
  0.725000, -1.381800
  0.727000, -1.368300
  0.729000, -1.353400
  0.731000, -1.337000
  0.733000, -1.319300
  0.735000, -1.300500
  0.737000, -1.280100
  0.739000, -1.258000
  0.741000, -1.235000
  0.743000, -1.211000
  0.745000, -1.185700
  0.747000, -1.159200
  0.749000, -1.132100
  0.751000, -1.104100
  0.753000, -1.075300
  0.755000, -1.045800
  0.757000, -1.015700
  0.759000, -0.985000
  0.761000, -0.954000
  0.763000, -0.922600
  0.765000, -0.890500
  0.767000, -0.857900
  0.769000, -0.825000
  0.771000, -0.791600
  0.773000, -0.757700
  0.775000, -0.723600
  0.777000, -0.689300
  0.779000, -0.655000
  0.781000, -0.620700
  0.783000, -0.585900
  0.785000, -0.551300
  0.787000, -0.516800
  0.789000, -0.482300
  0.791000, -0.447800
  0.793000, -0.413400
  0.795000, -0.379200
  0.797000, -0.345200
  0.799000, -0.311300
  0.801000, -0.277600
  0.803000, -0.244100
  0.805000, -0.211000
  0.807000, -0.178500
  0.809000, -0.146500
  0.811000, -0.114700
  0.813000, -0.083500
  0.815000, -0.052900
  0.817000, -0.022800
  0.819000,  0.006800
  0.821000,  0.035800
  0.823000,  0.064300
  0.825000,  0.092000
  0.827000,  0.119000
  0.829000,  0.145400
  0.831000,  0.171000
  0.833000,  0.195600
  0.835000,  0.219500
  0.837000,  0.242600
  0.839000,  0.264800
  0.841000,  0.286100
  0.843000,  0.306600
  0.845000,  0.326200
  0.847000,  0.344700
  0.849000,  0.362400
  0.851000,  0.379200
  0.853000,  0.394800
  0.855000,  0.409500
  0.857000,  0.423100
  0.859000,  0.435800
  0.861000,  0.447500
  0.863000,  0.458100
  0.865000,  0.467700
  0.867000,  0.476300
  0.869000,  0.483900
  0.871000,  0.490500
  0.873000,  0.496100
  0.875000,  0.500700
  0.877000,  0.504200
  0.879000,  0.507000
  0.881000,  0.508800
  0.883000,  0.509600
  0.885000,  0.509500
  0.887000,  0.508300
  0.889000,  0.506400
  0.891000,  0.503500
  0.893000,  0.499700
  0.895000,  0.495200
  0.897000,  0.489700
  0.899000,  0.483400
  0.901000,  0.476500
  0.903000,  0.468900
  0.905000,  0.460500
  0.907000,  0.451500
  0.909000,  0.441800
  0.911000,  0.431500
  0.913000,  0.420600
  0.915000,  0.409100
  0.917000,  0.397100
  0.919000,  0.384600
  0.921000,  0.371700
  0.923000,  0.358300
  0.925000,  0.344600
  0.927000,  0.330600
  0.929000,  0.316300
  0.931000,  0.301600
  0.933000,  0.286700
  0.935000,  0.271700
  0.937000,  0.256500
  0.939000,  0.241000
  0.941000,  0.225400
  0.943000,  0.209700
  0.945000,  0.194000
  0.947000,  0.178300
  0.949000,  0.162500
  0.951000,  0.146700
  0.953000,  0.130800
  0.955000,  0.115200
  0.957000,  0.099700
  0.959000,  0.084400
  0.961000,  0.069300
  0.963000,  0.054300
  0.965000,  0.039700
  0.967000,  0.025300
  0.969000,  0.011000
  0.971000, -0.003000
  0.973000, -0.016700
  0.975000, -0.030000
  0.977000, -0.043100
  0.979000, -0.055800
  0.981000, -0.068000
  0.983000, -0.079900
  0.985000, -0.091400
  0.987000, -0.102400
  0.989000, -0.113100
  0.991000, -0.123400
  0.993000, -0.133200
  0.995000, -0.142500
  0.997000, -0.151400
  0.999000, -0.159800
  1.001000, -0.167700
  1.003000, -0.175300
  1.005000, -0.182400
  1.007000, -0.189000
  1.009000, -0.195200
  1.011000, -0.200800
  1.013000, -0.206100
  1.015000, -0.210900
  1.017000, -0.215300
  1.019000, -0.219100
  1.021000, -0.222400
  1.023000, -0.225300
  1.025000, -0.227900
  1.027000, -0.230000
  1.029000, -0.231600
  1.031000, -0.232800
  1.033000, -0.233700
  1.035000, -0.234100
  1.037000, -0.234100
  1.039000, -0.233900
  1.041000, -0.233200
  1.043000, -0.232200
  1.045000, -0.230600
  1.047000, -0.228600
  1.049000, -0.226200
  1.051000, -0.223600
  1.053000, -0.220700
  1.055000, -0.217400
  1.057000, -0.213700
  1.059000, -0.209700
  1.061000, -0.205600
  1.063000, -0.201200
  1.065000, -0.196500
  1.067000, -0.191400
  1.069000, -0.185900
  1.071000, -0.180200
  1.073000, -0.174100
  1.075000, -0.167800
  1.077000, -0.161400
  1.079000, -0.154800
  1.081000, -0.148000
  1.083000, -0.140900
  1.085000, -0.133700
  1.087000, -0.126200
  1.089000, -0.118700
  1.091000, -0.111100
  1.093000, -0.103200
  1.095000, -0.095200
  1.097000, -0.087100
  1.099000, -0.079000
  1.101000, -0.070800
  1.103000, -0.062500
  1.105000, -0.054300
  1.107000, -0.046000
  1.109000, -0.037600
  1.111000, -0.029200
  1.113000, -0.020800
  1.115000, -0.012500
  1.117000, -0.004300
  1.119000,  0.003900
  1.121000,  0.012000
  1.123000,  0.019900
  1.125000,  0.027700
  1.127000,  0.035200
  1.129000,  0.042700
  1.131000,  0.050000
  1.133000,  0.057100
  1.135000,  0.064100
  1.137000,  0.070700
  1.139000,  0.077100
  1.141000,  0.083300
  1.143000,  0.089300
  1.145000,  0.095100
  1.147000,  0.100400
  1.149000,  0.105400
  1.151000,  0.110200
  1.153000,  0.114600
  1.155000,  0.118700
  1.157000,  0.122500
  1.159000,  0.126000
  1.161000,  0.129200
  1.163000,  0.132100
  1.165000,  0.134600
  1.167000,  0.136700
  1.169000,  0.138500
  1.171000,  0.140000
  1.173000,  0.141100
  1.175000,  0.141700
  1.177000,  0.142100
  1.179000,  0.142300
  1.181000,  0.142200
  1.183000,  0.141700
  1.185000,  0.140900
  1.187000,  0.140000
  1.189000,  0.138800
  1.191000,  0.137300
  1.193000,  0.135600
  1.195000,  0.133600
  1.197000,  0.131500
  1.199000,  0.129100
  1.201000,  0.126500
  1.203000,  0.123700
  1.205000,  0.120600
  1.207000,  0.117400
  1.209000,  0.114200
  1.211000,  0.110900
  1.213000,  0.107400
  1.215000,  0.103800
  1.217000,  0.100100
  1.219000,  0.096500
  1.221000,  0.092600
  1.223000,  0.088800
  1.225000,  0.084900
  1.227000,  0.080900
  1.229000,  0.076900
  1.231000,  0.072900
  1.233000,  0.068800
  1.235000,  0.064700
  1.237000,  0.060700
  1.239000,  0.056700
  1.241000,  0.052800
  1.243000,  0.048900
  1.245000,  0.044900
  1.247000,  0.040900
  1.249000,  0.037000
  1.251000,  0.033100
  1.253000,  0.029200
  1.255000,  0.025500
  1.257000,  0.021900
  1.259000,  0.018400
  1.261000,  0.014900
  1.263000,  0.011600
  1.265000,  0.008200
  1.267000,  0.004800
  1.269000,  0.001400
  1.271000, -0.001900
  1.273000, -0.005200
  1.275000, -0.008300
  1.277000, -0.011300
  1.279000, -0.014300
  1.281000, -0.017300
  1.283000, -0.020200
  1.285000, -0.023000
  1.287000, -0.025700
  1.289000, -0.028300
  1.291000, -0.030800
  1.293000, -0.033300
  1.295000, -0.035800
  1.297000, -0.038100
  1.299000, -0.040400
  1.301000, -0.042500
  1.303000, -0.044500
  1.305000, -0.046500
  1.307000, -0.048400
  1.309000, -0.050200
  1.311000, -0.052000
  1.313000, -0.053600
  1.315000, -0.055000
  1.317000, -0.056200
  1.319000, -0.057300
  1.321000, -0.058500
  1.323000, -0.059500
  1.325000, -0.060200
  1.327000, -0.060800
  1.329000, -0.061300
  1.331000, -0.061700
  1.333000, -0.061900
  1.335000, -0.061800
  1.337000, -0.061600
  1.339000, -0.061300
  1.341000, -0.060700
  1.343000, -0.060000
  1.345000, -0.059100
  1.347000, -0.057900
  1.349000, -0.056600
  1.351000, -0.055200
  1.353000, -0.053600
  1.355000, -0.051800
  1.357000, -0.049900
  1.359000, -0.047600
  1.361000, -0.045100
  1.363000, -0.042700
  1.365000, -0.040200
  1.367000, -0.037400
  1.369000, -0.034400
  1.371000, -0.031100
  1.373000, -0.027800
  1.375000, -0.024500
  1.377000, -0.021100
  1.379000, -0.017700
  1.381000, -0.014500
  1.383000, -0.011100
  1.385000, -0.007500
  1.387000, -0.003900
  1.389000, -0.000600
  1.391000,  0.002500
  1.393000,  0.005700
  1.395000,  0.008600
  1.397000,  0.011000
  1.399000,  0.012900
