# z (nm)   (kJ/mol)
  0.253000, -0.896600
  0.255000, -1.819400
  0.257000, -2.792000
  0.259000, -3.758500
  0.261000, -4.716600
  0.263000, -5.716600
  0.265000, -6.714800
  0.267000, -7.701300
  0.269000, -8.712000
  0.271000, -9.731000
  0.273000,-10.751600
  0.275000,-11.777200
  0.277000,-12.800500
  0.279000,-13.818100
  0.281000,-14.820200
  0.283000,-15.816600
  0.285000,-16.806900
  0.287000,-17.786300
  0.289000,-18.743600
  0.291000,-19.683400
  0.293000,-20.605900
  0.295000,-21.502700
  0.297000,-22.375200
  0.299000,-23.220000
  0.301000,-24.040100
  0.303000,-24.829000
  0.305000,-25.582600
  0.307000,-26.305900
  0.309000,-26.998600
  0.311000,-27.653300
  0.313000,-28.266700
  0.315000,-28.839700
  0.317000,-29.372100
  0.319000,-29.866000
  0.321000,-30.319800
  0.323000,-30.729400
  0.325000,-31.095100
  0.327000,-31.417500
  0.329000,-31.696000
  0.331000,-31.929500
  0.333000,-32.116900
  0.335000,-32.259800
  0.337000,-32.359300
  0.339000,-32.414200
  0.341000,-32.424000
  0.343000,-32.390600
  0.345000,-32.315200
  0.347000,-32.197700
  0.349000,-32.040500
  0.351000,-31.844100
  0.353000,-31.609300
  0.355000,-31.338400
  0.357000,-31.031800
  0.359000,-30.691800
  0.361000,-30.320400
  0.363000,-29.920000
  0.365000,-29.496900
  0.367000,-29.047200
  0.369000,-28.572600
  0.371000,-28.080400
  0.373000,-27.569600
  0.375000,-27.046000
  0.377000,-26.511900
  0.379000,-25.967600
  0.381000,-25.416500
  0.383000,-24.860700
  0.385000,-24.301900
  0.387000,-23.741300
  0.389000,-23.184100
  0.391000,-22.631600
  0.393000,-22.084400
  0.395000,-21.546500
  0.397000,-21.018800
  0.399000,-20.502800
  0.401000,-20.000600
  0.403000,-19.513400
  0.405000,-19.043200
  0.407000,-18.591600
  0.409000,-18.159100
  0.411000,-17.745800
  0.413000,-17.352700
  0.415000,-16.979900
  0.417000,-16.627800
  0.419000,-16.296900
  0.421000,-15.987800
  0.423000,-15.700700
  0.425000,-15.434600
  0.427000,-15.190000
  0.429000,-14.965500
  0.431000,-14.759800
  0.433000,-14.573200
  0.435000,-14.404800
  0.437000,-14.254400
  0.439000,-14.121200
  0.441000,-14.003700
  0.443000,-13.902000
  0.445000,-13.815700
  0.447000,-13.742100
  0.449000,-13.680200
  0.451000,-13.629100
  0.453000,-13.587700
  0.455000,-13.553600
  0.457000,-13.525600
  0.459000,-13.505600
  0.461000,-13.490700
  0.463000,-13.479900
  0.465000,-13.473600
  0.467000,-13.470100
  0.469000,-13.467400
  0.471000,-13.464500
  0.473000,-13.462200
  0.475000,-13.458900
  0.477000,-13.453900
  0.479000,-13.446600
  0.481000,-13.437200
  0.483000,-13.424400
  0.485000,-13.407100
  0.487000,-13.385500
  0.489000,-13.359300
  0.491000,-13.327900
  0.493000,-13.291300
  0.495000,-13.249100
  0.497000,-13.200700
  0.499000,-13.146300
  0.501000,-13.086200
  0.503000,-13.020300
  0.505000,-12.948600
  0.507000,-12.871100
  0.509000,-12.787800
  0.511000,-12.698600
  0.513000,-12.604200
  0.515000,-12.504900
  0.517000,-12.400000
  0.519000,-12.290200
  0.521000,-12.175800
  0.523000,-12.057700
  0.525000,-11.935700
  0.527000,-11.810000
  0.529000,-11.681100
  0.531000,-11.549200
  0.533000,-11.414500
  0.535000,-11.277800
  0.537000,-11.139300
  0.539000,-10.998800
  0.541000,-10.856900
  0.543000,-10.713500
  0.545000,-10.569200
  0.547000,-10.423900
  0.549000,-10.278800
  0.551000,-10.134000
  0.553000, -9.988700
  0.555000, -9.843400
  0.557000, -9.698900
  0.559000, -9.554600
  0.561000, -9.410700
  0.563000, -9.267900
  0.565000, -9.125600
  0.567000, -8.984500
  0.569000, -8.843900
  0.571000, -8.704000
  0.573000, -8.565300
  0.575000, -8.427300
  0.577000, -8.289900
  0.579000, -8.152800
  0.581000, -8.016100
  0.583000, -7.880200
  0.585000, -7.744800
  0.587000, -7.610400
  0.589000, -7.476700
  0.591000, -7.342700
  0.593000, -7.208900
  0.595000, -7.075700
  0.597000, -6.942500
  0.599000, -6.809300
  0.601000, -6.676700
  0.603000, -6.544300
  0.605000, -6.411300
  0.607000, -6.277800
  0.609000, -6.144100
  0.611000, -6.010400
  0.613000, -5.876800
  0.615000, -5.743000
  0.617000, -5.608000
  0.619000, -5.473300
  0.621000, -5.338600
  0.623000, -5.202800
  0.625000, -5.067000
  0.627000, -4.931500
  0.629000, -4.797300
  0.631000, -4.662800
  0.633000, -4.527200
  0.635000, -4.391800
  0.637000, -4.257400
  0.639000, -4.124500
  0.641000, -3.991900
  0.643000, -3.861500
  0.645000, -3.731900
  0.647000, -3.602000
  0.649000, -3.472800
  0.651000, -3.344600
  0.653000, -3.217700
  0.655000, -3.092500
  0.657000, -2.969500
  0.659000, -2.848400
  0.661000, -2.730100
  0.663000, -2.614300
  0.665000, -2.500000
  0.667000, -2.387900
  0.669000, -2.279600
  0.671000, -2.173800
  0.673000, -2.071300
  0.675000, -1.972300
  0.677000, -1.875800
  0.679000, -1.783600
  0.681000, -1.694500
  0.683000, -1.608300
  0.685000, -1.526600
  0.687000, -1.448700
  0.689000, -1.374200
  0.691000, -1.304200
  0.693000, -1.238500
  0.695000, -1.177000
  0.697000, -1.118000
  0.699000, -1.062300
  0.701000, -1.011800
  0.703000, -0.965800
  0.705000, -0.923600
  0.707000, -0.885200
  0.709000, -0.850900
  0.711000, -0.820900
  0.713000, -0.794100
  0.715000, -0.771400
  0.717000, -0.753100
  0.719000, -0.738300
  0.721000, -0.727100
  0.723000, -0.719500
  0.725000, -0.715000
  0.727000, -0.713700
  0.729000, -0.715200
  0.731000, -0.719900
  0.733000, -0.727600
  0.735000, -0.737700
  0.737000, -0.750400
  0.739000, -0.765400
  0.741000, -0.783000
  0.743000, -0.802300
  0.745000, -0.822800
  0.747000, -0.844800
  0.749000, -0.868000
  0.751000, -0.893100
  0.753000, -0.919400
  0.755000, -0.946000
  0.757000, -0.973800
  0.759000, -1.002900
  0.761000, -1.031900
  0.763000, -1.060800
  0.765000, -1.090400
  0.767000, -1.120500
  0.769000, -1.150500
  0.771000, -1.179600
  0.773000, -1.208300
  0.775000, -1.236900
  0.777000, -1.265000
  0.779000, -1.292300
  0.781000, -1.319000
  0.783000, -1.344600
  0.785000, -1.368600
  0.787000, -1.392200
  0.789000, -1.414900
  0.791000, -1.436600
  0.793000, -1.457300
  0.795000, -1.476800
  0.797000, -1.495000
  0.799000, -1.511900
  0.801000, -1.527500
  0.803000, -1.541700
  0.805000, -1.554700
  0.807000, -1.566300
  0.809000, -1.576500
  0.811000, -1.585500
  0.813000, -1.593100
  0.815000, -1.599400
  0.817000, -1.604300
  0.819000, -1.608000
  0.821000, -1.610600
  0.823000, -1.612100
  0.825000, -1.612400
  0.827000, -1.611500
  0.829000, -1.609500
  0.831000, -1.606500
  0.833000, -1.602300
  0.835000, -1.596800
  0.837000, -1.590300
  0.839000, -1.583200
  0.841000, -1.575100
  0.843000, -1.566100
  0.845000, -1.555800
  0.847000, -1.544800
  0.849000, -1.533200
  0.851000, -1.521000
  0.853000, -1.508000
  0.855000, -1.494100
  0.857000, -1.479500
  0.859000, -1.464400
  0.861000, -1.448600
  0.863000, -1.431900
  0.865000, -1.414900
  0.867000, -1.397400
  0.869000, -1.379200
  0.871000, -1.360300
  0.873000, -1.340800
  0.875000, -1.320900
  0.877000, -1.301000
  0.879000, -1.280600
  0.881000, -1.259600
  0.883000, -1.238000
  0.885000, -1.216000
  0.887000, -1.193800
  0.889000, -1.171200
  0.891000, -1.147900
  0.893000, -1.124100
  0.895000, -1.100200
  0.897000, -1.075900
  0.899000, -1.051100
  0.901000, -1.026100
  0.903000, -1.001000
  0.905000, -0.975500
  0.907000, -0.949800
  0.909000, -0.923800
  0.911000, -0.897300
  0.913000, -0.870800
  0.915000, -0.844500
  0.917000, -0.817900
  0.919000, -0.791100
  0.921000, -0.764500
  0.923000, -0.738200
  0.925000, -0.711600
  0.927000, -0.684900
  0.929000, -0.658000
  0.931000, -0.631100
  0.933000, -0.604300
  0.935000, -0.577900
  0.937000, -0.551800
  0.939000, -0.525500
  0.941000, -0.499600
  0.943000, -0.474100
  0.945000, -0.448800
  0.947000, -0.423300
  0.949000, -0.398100
  0.951000, -0.373500
  0.953000, -0.349100
  0.955000, -0.325300
  0.957000, -0.302700
  0.959000, -0.280300
  0.961000, -0.257900
  0.963000, -0.236100
  0.965000, -0.214800
  0.967000, -0.194100
  0.969000, -0.174000
  0.971000, -0.154400
  0.973000, -0.135500
  0.975000, -0.117300
  0.977000, -0.099800
  0.979000, -0.082900
  0.981000, -0.066800
  0.983000, -0.051300
  0.985000, -0.036500
  0.987000, -0.022400
  0.989000, -0.009100
  0.991000,  0.003600
  0.993000,  0.015600
  0.995000,  0.026700
  0.997000,  0.037200
  0.999000,  0.047000
  1.001000,  0.056100
  1.003000,  0.064400
  1.005000,  0.072000
  1.007000,  0.079000
  1.009000,  0.085400
  1.011000,  0.091100
  1.013000,  0.096000
  1.015000,  0.100300
  1.017000,  0.104000
  1.019000,  0.107000
  1.021000,  0.109200
  1.023000,  0.110900
  1.025000,  0.111900
  1.027000,  0.112300
  1.029000,  0.112100
  1.031000,  0.111300
  1.033000,  0.110200
  1.035000,  0.108500
  1.037000,  0.106300
  1.039000,  0.103600
  1.041000,  0.100400
  1.043000,  0.096800
  1.045000,  0.092700
  1.047000,  0.088000
  1.049000,  0.083100
  1.051000,  0.078200
  1.053000,  0.072800
  1.055000,  0.066700
  1.057000,  0.060500
  1.059000,  0.054000
  1.061000,  0.047300
  1.063000,  0.040500
  1.065000,  0.033500
  1.067000,  0.026200
  1.069000,  0.018800
  1.071000,  0.011100
  1.073000,  0.003300
  1.075000, -0.004500
  1.077000, -0.012200
  1.079000, -0.020000
  1.081000, -0.027600
  1.083000, -0.035200
  1.085000, -0.042900
  1.087000, -0.050700
  1.089000, -0.058600
  1.091000, -0.066400
  1.093000, -0.074000
  1.095000, -0.081500
  1.097000, -0.088700
  1.099000, -0.095800
  1.101000, -0.102800
  1.103000, -0.109700
  1.105000, -0.116500
  1.107000, -0.123000
  1.109000, -0.129400
  1.111000, -0.135400
  1.113000, -0.141200
  1.115000, -0.146700
  1.117000, -0.152000
  1.119000, -0.157300
  1.121000, -0.162400
  1.123000, -0.167200
  1.125000, -0.171800
  1.127000, -0.176200
  1.129000, -0.180300
  1.131000, -0.184300
  1.133000, -0.188000
  1.135000, -0.191500
  1.137000, -0.194900
  1.139000, -0.198000
  1.141000, -0.200800
  1.143000, -0.203300
  1.145000, -0.205800
  1.147000, -0.208000
  1.149000, -0.209900
  1.151000, -0.211500
  1.153000, -0.213000
  1.155000, -0.214200
  1.157000, -0.215300
  1.159000, -0.216200
  1.161000, -0.216800
  1.163000, -0.217300
  1.165000, -0.217600
  1.167000, -0.217600
  1.169000, -0.217400
  1.171000, -0.217100
  1.173000, -0.216600
  1.175000, -0.215700
  1.177000, -0.214700
  1.179000, -0.213600
  1.181000, -0.212200
  1.183000, -0.210500
  1.185000, -0.208700
  1.187000, -0.206700
  1.189000, -0.204500
  1.191000, -0.202400
  1.193000, -0.200000
  1.195000, -0.197300
  1.197000, -0.194400
  1.199000, -0.191400
  1.201000, -0.188200
  1.203000, -0.185000
  1.205000, -0.181600
  1.207000, -0.178100
  1.209000, -0.174300
  1.211000, -0.170400
  1.213000, -0.166400
  1.215000, -0.162100
  1.217000, -0.157900
  1.219000, -0.153600
  1.221000, -0.149100
  1.223000, -0.144600
  1.225000, -0.139700
  1.227000, -0.134800
  1.229000, -0.130000
  1.231000, -0.125200
  1.233000, -0.120500
  1.235000, -0.115800
  1.237000, -0.111000
  1.239000, -0.106100
  1.241000, -0.101000
  1.243000, -0.096000
  1.245000, -0.091000
  1.247000, -0.086000
  1.249000, -0.081100
  1.251000, -0.076100
  1.253000, -0.071200
  1.255000, -0.066300
  1.257000, -0.061400
  1.259000, -0.056600
  1.261000, -0.051800
  1.263000, -0.047100
  1.265000, -0.042500
  1.267000, -0.037900
  1.269000, -0.033500
  1.271000, -0.029300
  1.273000, -0.025000
  1.275000, -0.020800
  1.277000, -0.016700
  1.279000, -0.012700
  1.281000, -0.008800
  1.283000, -0.005100
  1.285000, -0.001600
  1.287000,  0.002000
  1.289000,  0.005600
  1.291000,  0.009300
  1.293000,  0.012600
  1.295000,  0.015900
  1.297000,  0.019000
  1.299000,  0.022000
  1.301000,  0.024900
  1.303000,  0.027800
  1.305000,  0.030600
  1.307000,  0.033400
  1.309000,  0.036100
  1.311000,  0.038600
  1.313000,  0.040900
  1.315000,  0.043400
  1.317000,  0.045900
  1.319000,  0.048300
  1.321000,  0.050900
  1.323000,  0.053400
  1.325000,  0.055800
  1.327000,  0.058100
  1.329000,  0.060400
  1.331000,  0.062800
  1.333000,  0.065000
  1.335000,  0.067200
  1.337000,  0.069500
  1.339000,  0.072000
  1.341000,  0.074700
  1.343000,  0.077300
  1.345000,  0.079600
  1.347000,  0.081900
  1.349000,  0.084500
  1.351000,  0.087000
  1.353000,  0.089400
  1.355000,  0.091800
  1.357000,  0.094100
  1.359000,  0.096500
  1.361000,  0.098800
  1.363000,  0.101100
  1.365000,  0.103400
  1.367000,  0.105600
  1.369000,  0.107800
  1.371000,  0.110200
  1.373000,  0.112500
  1.375000,  0.114600
  1.377000,  0.116800
  1.379000,  0.118700
  1.381000,  0.120600
  1.383000,  0.122300
  1.385000,  0.123900
  1.387000,  0.125100
  1.389000,  0.126200
  1.391000,  0.127100
  1.393000,  0.127600
  1.395000,  0.127700
  1.397000,  0.127400
  1.399000,  0.126500
