# z (nm)   (kJ/mol)
  0.251000,  0.315300
  0.257000, -2.491100
  0.259000, -3.395300
  0.261000, -4.316800
  0.263000, -5.259900
  0.265000, -6.231000
  0.267000, -7.163700
  0.269000, -8.097500
  0.271000, -9.055500
  0.273000,-10.007600
  0.275000,-10.972300
  0.277000,-11.940200
  0.279000,-12.894400
  0.281000,-13.838200
  0.283000,-14.785100
  0.285000,-15.719900
  0.287000,-16.632200
  0.289000,-17.534600
  0.291000,-18.424700
  0.293000,-19.295800
  0.295000,-20.147600
  0.297000,-20.975600
  0.299000,-21.778800
  0.301000,-22.556500
  0.303000,-23.309600
  0.305000,-24.037500
  0.307000,-24.733700
  0.309000,-25.396000
  0.311000,-26.023100
  0.313000,-26.615300
  0.315000,-27.172900
  0.317000,-27.694300
  0.319000,-28.180000
  0.321000,-28.631300
  0.323000,-29.043800
  0.325000,-29.416100
  0.327000,-29.749300
  0.329000,-30.043900
  0.331000,-30.298400
  0.333000,-30.512000
  0.335000,-30.686000
  0.337000,-30.820700
  0.339000,-30.916100
  0.341000,-30.972100
  0.343000,-30.988400
  0.345000,-30.966500
  0.347000,-30.908500
  0.349000,-30.813500
  0.351000,-30.682100
  0.353000,-30.517800
  0.355000,-30.322500
  0.357000,-30.094700
  0.359000,-29.837300
  0.361000,-29.552600
  0.363000,-29.240700
  0.365000,-28.905900
  0.367000,-28.550300
  0.369000,-28.173000
  0.371000,-27.777300
  0.373000,-27.362900
  0.375000,-26.931900
  0.377000,-26.489200
  0.379000,-26.037200
  0.381000,-25.578100
  0.383000,-25.112400
  0.385000,-24.643000
  0.387000,-24.171900
  0.389000,-23.699800
  0.391000,-23.228900
  0.393000,-22.761500
  0.395000,-22.298100
  0.397000,-21.839900
  0.399000,-21.389000
  0.401000,-20.946600
  0.403000,-20.513900
  0.405000,-20.091700
  0.407000,-19.680800
  0.409000,-19.282200
  0.411000,-18.896300
  0.413000,-18.523800
  0.415000,-18.165200
  0.417000,-17.820800
  0.419000,-17.490500
  0.421000,-17.173900
  0.423000,-16.872000
  0.425000,-16.585100
  0.427000,-16.311100
  0.429000,-16.051700
  0.431000,-15.807300
  0.433000,-15.574200
  0.435000,-15.352700
  0.437000,-15.143600
  0.439000,-14.946500
  0.441000,-14.762000
  0.443000,-14.588100
  0.445000,-14.422600
  0.447000,-14.265100
  0.449000,-14.116300
  0.451000,-13.975500
  0.453000,-13.842700
  0.455000,-13.716400
  0.457000,-13.593500
  0.459000,-13.475300
  0.461000,-13.360900
  0.463000,-13.249300
  0.465000,-13.140700
  0.467000,-13.034400
  0.469000,-12.929500
  0.471000,-12.824900
  0.473000,-12.720300
  0.475000,-12.615400
  0.477000,-12.509800
  0.479000,-12.403300
  0.481000,-12.295700
  0.483000,-12.186200
  0.485000,-12.074700
  0.487000,-11.961100
  0.489000,-11.845000
  0.491000,-11.726300
  0.493000,-11.604700
  0.495000,-11.480300
  0.497000,-11.352900
  0.499000,-11.223100
  0.501000,-11.090500
  0.503000,-10.954900
  0.505000,-10.816900
  0.507000,-10.676700
  0.509000,-10.533800
  0.511000,-10.388700
  0.513000,-10.241800
  0.515000,-10.092900
  0.517000, -9.941900
  0.519000, -9.790000
  0.521000, -9.637700
  0.523000, -9.484300
  0.525000, -9.330700
  0.527000, -9.177300
  0.529000, -9.023900
  0.531000, -8.870500
  0.533000, -8.717600
  0.535000, -8.566100
  0.537000, -8.415800
  0.539000, -8.266500
  0.541000, -8.119200
  0.543000, -7.973400
  0.545000, -7.829000
  0.547000, -7.686700
  0.549000, -7.547000
  0.551000, -7.409600
  0.553000, -7.274900
  0.555000, -7.143200
  0.557000, -7.014100
  0.559000, -6.887200
  0.561000, -6.763100
  0.563000, -6.641700
  0.565000, -6.522900
  0.567000, -6.406700
  0.569000, -6.293200
  0.571000, -6.182200
  0.573000, -6.074300
  0.575000, -5.969000
  0.577000, -5.865800
  0.579000, -5.765300
  0.581000, -5.666800
  0.583000, -5.570200
  0.585000, -5.475600
  0.587000, -5.382600
  0.589000, -5.291200
  0.591000, -5.201300
  0.593000, -5.112700
  0.595000, -5.024900
  0.597000, -4.938200
  0.599000, -4.852600
  0.601000, -4.767600
  0.603000, -4.683200
  0.605000, -4.599300
  0.607000, -4.515600
  0.609000, -4.431800
  0.611000, -4.348200
  0.613000, -4.265000
  0.615000, -4.182000
  0.617000, -4.099100
  0.619000, -4.016000
  0.621000, -3.932600
  0.623000, -3.848900
  0.625000, -3.765200
  0.627000, -3.681400
  0.629000, -3.597500
  0.631000, -3.513500
  0.633000, -3.429200
  0.635000, -3.345000
  0.637000, -3.260400
  0.639000, -3.175700
  0.641000, -3.091300
  0.643000, -3.007100
  0.645000, -2.923100
  0.647000, -2.839700
  0.649000, -2.757400
  0.651000, -2.676100
  0.653000, -2.595200
  0.655000, -2.514500
  0.657000, -2.435200
  0.659000, -2.357800
  0.661000, -2.281400
  0.663000, -2.206100
  0.665000, -2.132500
  0.667000, -2.061300
  0.669000, -1.991600
  0.671000, -1.923800
  0.673000, -1.857800
  0.675000, -1.793500
  0.677000, -1.732200
  0.679000, -1.673100
  0.681000, -1.616500
  0.683000, -1.562800
  0.685000, -1.511200
  0.687000, -1.462300
  0.689000, -1.416900
  0.691000, -1.374700
  0.693000, -1.335000
  0.695000, -1.298100
  0.697000, -1.264200
  0.699000, -1.233100
  0.701000, -1.205000
  0.703000, -1.180200
  0.705000, -1.158000
  0.707000, -1.138700
  0.709000, -1.122200
  0.711000, -1.108300
  0.713000, -1.097200
  0.715000, -1.088600
  0.717000, -1.082400
  0.719000, -1.078700
  0.721000, -1.077200
  0.723000, -1.077900
  0.725000, -1.080800
  0.727000, -1.085700
  0.729000, -1.091700
  0.731000, -1.099000
  0.733000, -1.108200
  0.735000, -1.118800
  0.737000, -1.130500
  0.739000, -1.143300
  0.741000, -1.156800
  0.743000, -1.171100
  0.745000, -1.186200
  0.747000, -1.201800
  0.749000, -1.217600
  0.751000, -1.233800
  0.753000, -1.250000
  0.755000, -1.266000
  0.757000, -1.282100
  0.759000, -1.297500
  0.761000, -1.312100
  0.763000, -1.327000
  0.765000, -1.341400
  0.767000, -1.354900
  0.769000, -1.367500
  0.771000, -1.379300
  0.773000, -1.390200
  0.775000, -1.400100
  0.777000, -1.408900
  0.779000, -1.416700
  0.781000, -1.423400
  0.783000, -1.429000
  0.785000, -1.433400
  0.787000, -1.436500
  0.789000, -1.438300
  0.791000, -1.438700
  0.793000, -1.438000
  0.795000, -1.436000
  0.797000, -1.432900
  0.799000, -1.428300
  0.801000, -1.422300
  0.803000, -1.415200
  0.805000, -1.407100
  0.807000, -1.397400
  0.809000, -1.386900
  0.811000, -1.375200
  0.813000, -1.362100
  0.815000, -1.348200
  0.817000, -1.333400
  0.819000, -1.317500
  0.821000, -1.300800
  0.823000, -1.283100
  0.825000, -1.264800
  0.827000, -1.245500
  0.829000, -1.225500
  0.831000, -1.204800
  0.833000, -1.183500
  0.835000, -1.161600
  0.837000, -1.139600
  0.839000, -1.117600
  0.841000, -1.094800
  0.843000, -1.071500
  0.845000, -1.047900
  0.847000, -1.023900
  0.849000, -0.999800
  0.851000, -0.975500
  0.853000, -0.951100
  0.855000, -0.926800
  0.857000, -0.902500
  0.859000, -0.878600
  0.861000, -0.855000
  0.863000, -0.831300
  0.865000, -0.807800
  0.867000, -0.784300
  0.869000, -0.761000
  0.871000, -0.738100
  0.873000, -0.715700
  0.875000, -0.693600
  0.877000, -0.671900
  0.879000, -0.650600
  0.881000, -0.629700
  0.883000, -0.609200
  0.885000, -0.589100
  0.887000, -0.569400
  0.889000, -0.550000
  0.891000, -0.531100
  0.893000, -0.512600
  0.895000, -0.494600
  0.897000, -0.477300
  0.899000, -0.460200
  0.901000, -0.443600
  0.903000, -0.427500
  0.905000, -0.411800
  0.907000, -0.396400
  0.909000, -0.381500
  0.911000, -0.367100
  0.913000, -0.353300
  0.915000, -0.339900
  0.917000, -0.326900
  0.919000, -0.314400
  0.921000, -0.302500
  0.923000, -0.291100
  0.925000, -0.280000
  0.927000, -0.269200
  0.929000, -0.258900
  0.931000, -0.249100
  0.933000, -0.239700
  0.935000, -0.230800
  0.937000, -0.222200
  0.939000, -0.214200
  0.941000, -0.206800
  0.943000, -0.199700
  0.945000, -0.193000
  0.947000, -0.186700
  0.949000, -0.181000
  0.951000, -0.175600
  0.953000, -0.170600
  0.955000, -0.166000
  0.957000, -0.161800
  0.959000, -0.158000
  0.961000, -0.154600
  0.963000, -0.151700
  0.965000, -0.149300
  0.967000, -0.147100
  0.969000, -0.145400
  0.971000, -0.144100
  0.973000, -0.143200
  0.975000, -0.142600
  0.977000, -0.142200
  0.979000, -0.142200
  0.981000, -0.142600
  0.983000, -0.143400
  0.985000, -0.144500
  0.987000, -0.146000
  0.989000, -0.147600
  0.991000, -0.149500
  0.993000, -0.151700
  0.995000, -0.154200
  0.997000, -0.156800
  0.999000, -0.159700
  1.001000, -0.162900
  1.003000, -0.166400
  1.005000, -0.170100
  1.007000, -0.173800
  1.009000, -0.177600
  1.011000, -0.181600
  1.013000, -0.185700
  1.015000, -0.189900
  1.017000, -0.194300
  1.019000, -0.198700
  1.021000, -0.203200
  1.023000, -0.207800
  1.025000, -0.212500
  1.027000, -0.217300
  1.029000, -0.221900
  1.031000, -0.226500
  1.033000, -0.231200
  1.035000, -0.235900
  1.037000, -0.240600
  1.039000, -0.245500
  1.041000, -0.250200
  1.043000, -0.254800
  1.045000, -0.259300
  1.047000, -0.263700
  1.049000, -0.268100
  1.051000, -0.272500
  1.053000, -0.276800
  1.055000, -0.281100
  1.057000, -0.285300
  1.059000, -0.289300
  1.061000, -0.293100
  1.063000, -0.296800
  1.065000, -0.300600
  1.067000, -0.304200
  1.069000, -0.307700
  1.071000, -0.310900
  1.073000, -0.314000
  1.075000, -0.317000
  1.077000, -0.319800
  1.079000, -0.322400
  1.081000, -0.325000
  1.083000, -0.327400
  1.085000, -0.329600
  1.087000, -0.331700
  1.089000, -0.333700
  1.091000, -0.335600
  1.093000, -0.337300
  1.095000, -0.338800
  1.097000, -0.340200
  1.099000, -0.341300
  1.101000, -0.342200
  1.103000, -0.342900
  1.105000, -0.343500
  1.107000, -0.343800
  1.109000, -0.344000
  1.111000, -0.344000
  1.113000, -0.343900
  1.115000, -0.343600
  1.117000, -0.343000
  1.119000, -0.342300
  1.121000, -0.341400
  1.123000, -0.340300
  1.125000, -0.339100
  1.127000, -0.337500
  1.129000, -0.335600
  1.131000, -0.333600
  1.133000, -0.331400
  1.135000, -0.329100
  1.137000, -0.326500
  1.139000, -0.323600
  1.141000, -0.320600
  1.143000, -0.317400
  1.145000, -0.314000
  1.147000, -0.310400
  1.149000, -0.306600
  1.151000, -0.302700
  1.153000, -0.298600
  1.155000, -0.294300
  1.157000, -0.289800
  1.159000, -0.285100
  1.161000, -0.280300
  1.163000, -0.275400
  1.165000, -0.270400
  1.167000, -0.265400
  1.169000, -0.260100
  1.171000, -0.254700
  1.173000, -0.249200
  1.175000, -0.243700
  1.177000, -0.238100
  1.179000, -0.232400
  1.181000, -0.226600
  1.183000, -0.220800
  1.185000, -0.215000
  1.187000, -0.209100
  1.189000, -0.203100
  1.191000, -0.197300
  1.193000, -0.191400
  1.195000, -0.185500
  1.197000, -0.179800
  1.199000, -0.174200
  1.201000, -0.168500
  1.203000, -0.162800
  1.205000, -0.157100
  1.207000, -0.151600
  1.209000, -0.146200
  1.211000, -0.140800
  1.213000, -0.135500
  1.215000, -0.130300
  1.217000, -0.125200
  1.219000, -0.120200
  1.221000, -0.115200
  1.223000, -0.110300
  1.225000, -0.105400
  1.227000, -0.100800
  1.229000, -0.096200
  1.231000, -0.091700
  1.233000, -0.087400
  1.235000, -0.083300
  1.237000, -0.079200
  1.239000, -0.075100
  1.241000, -0.071200
  1.243000, -0.067400
  1.245000, -0.063700
  1.247000, -0.060200
  1.249000, -0.056600
  1.251000, -0.053200
  1.253000, -0.049800
  1.255000, -0.046500
  1.257000, -0.043400
  1.259000, -0.040400
  1.261000, -0.037500
  1.263000, -0.034600
  1.265000, -0.031700
  1.267000, -0.028900
  1.269000, -0.026200
  1.271000, -0.023700
  1.273000, -0.021200
  1.275000, -0.018800
  1.277000, -0.016400
  1.279000, -0.014100
  1.281000, -0.011800
  1.283000, -0.009500
  1.285000, -0.007300
  1.287000, -0.005200
  1.289000, -0.003000
  1.291000, -0.000800
  1.293000,  0.001200
  1.295000,  0.003300
  1.297000,  0.005500
  1.299000,  0.007500
  1.301000,  0.009500
  1.303000,  0.011400
  1.305000,  0.013400
  1.307000,  0.015400
  1.309000,  0.017400
  1.311000,  0.019400
  1.313000,  0.021400
  1.315000,  0.023400
  1.317000,  0.025400
  1.319000,  0.027400
  1.321000,  0.029600
  1.323000,  0.031700
  1.325000,  0.033900
  1.327000,  0.036200
  1.329000,  0.038500
  1.331000,  0.040700
  1.333000,  0.043100
  1.335000,  0.045400
  1.337000,  0.047900
  1.339000,  0.050500
  1.341000,  0.053100
  1.343000,  0.055600
  1.345000,  0.057900
  1.347000,  0.060300
  1.349000,  0.063100
  1.351000,  0.066100
  1.353000,  0.068900
  1.355000,  0.071800
  1.357000,  0.074900
  1.359000,  0.077800
  1.361000,  0.080700
  1.363000,  0.083900
  1.365000,  0.087100
  1.367000,  0.090200
  1.369000,  0.093000
  1.371000,  0.095900
  1.373000,  0.098700
  1.375000,  0.101400
  1.377000,  0.104400
  1.379000,  0.107300
  1.381000,  0.109800
  1.383000,  0.112300
  1.385000,  0.114600
  1.387000,  0.116700
  1.389000,  0.118500
  1.391000,  0.120000
  1.393000,  0.121400
  1.395000,  0.122500
  1.397000,  0.123000
  1.399000,  0.123100
