# z (nm)   (kJ/mol)
  0.044000,287.581990
  0.046000,284.989020
  0.048000,282.438400
  0.050000,279.923050
  0.052000,277.437550
  0.054000,274.824140
  0.056000,272.261010
  0.058000,269.717310
  0.060000,267.181390
  0.062000,264.633870
  0.064000,262.037320
  0.066000,259.384820
  0.068000,256.671560
  0.070000,253.877730
  0.072000,251.002340
  0.074000,248.026080
  0.076000,244.935250
  0.078000,241.737430
  0.080000,238.416370
  0.082000,234.973600
  0.084000,231.404990
  0.086000,227.710020
  0.088000,223.897400
  0.090000,219.977760
  0.092000,215.967090
  0.094000,211.879580
  0.096000,207.739850
  0.098000,203.575010
  0.100000,199.418710
  0.102000,195.292210
  0.104000,191.217180
  0.106000,187.202280
  0.108000,183.252920
  0.110000,179.370050
  0.112000,175.536470
  0.114000,171.747420
  0.116000,168.000880
  0.118000,164.283210
  0.120000,160.606200
  0.122000,156.977030
  0.124000,153.397820
  0.126000,149.880130
  0.128000,146.429670
  0.130000,143.051450
  0.132000,139.739790
  0.134000,136.486980
  0.136000,133.288110
  0.138000,130.139200
  0.140000,127.031290
  0.142000,123.969310
  0.144000,120.956720
  0.146000,117.989150
  0.148000,115.069280
  0.150000,112.192380
  0.152000,109.352260
  0.154000,106.548660
  0.156000,103.772510
  0.158000,101.028520
  0.160000, 98.310870
  0.162000, 95.625500
  0.164000, 92.966730
  0.166000, 90.341310
  0.168000, 87.747120
  0.170000, 85.186330
  0.172000, 82.654390
  0.174000, 80.153420
  0.176000, 77.694370
  0.178000, 75.272940
  0.180000, 72.894030
  0.182000, 70.562990
  0.184000, 68.277390
  0.186000, 66.032140
  0.188000, 63.813190
  0.190000, 61.619750
  0.192000, 59.432310
  0.194000, 57.259320
  0.196000, 55.098740
  0.198000, 52.961260
  0.200000, 50.853840
  0.202000, 48.801160
  0.204000, 46.813370
  0.206000, 44.895800
  0.208000, 43.063830
  0.210000, 41.307290
  0.212000, 39.626660
  0.214000, 38.005360
  0.216000, 36.440000
  0.218000, 34.903350
  0.220000, 33.396390
  0.222000, 31.910990
  0.224000, 30.431850
  0.226000, 28.961670
  0.228000, 27.497250
  0.230000, 26.040170
  0.232000, 24.595540
  0.234000, 23.167460
  0.236000, 21.768540
  0.238000, 20.415940
  0.240000, 19.118320
  0.242000, 17.880620
  0.244000, 16.711750
  0.246000, 15.613470
  0.248000, 14.586200
  0.250000, 13.623710
  0.252000, 12.710830
  0.254000, 11.835310
  0.256000, 10.991910
  0.258000, 10.172870
  0.260000,  9.350660
  0.262000,  8.539750
  0.264000,  7.740060
  0.266000,  6.946800
  0.268000,  6.167600
  0.270000,  5.411790
  0.272000,  4.691550
  0.274000,  4.005400
  0.276000,  3.349410
  0.278000,  2.744720
  0.280000,  2.177510
  0.282000,  1.654050
  0.284000,  1.166730
  0.286000,  0.719140
  0.288000,  0.295400
  0.290000, -0.094800
  0.292000, -0.467960
  0.294000, -0.819960
  0.296000, -1.149490
  0.298000, -1.464690
  0.300000, -1.770050
  0.302000, -2.060250
  0.304000, -2.341690
  0.306000, -2.606460
  0.308000, -2.858920
  0.310000, -3.102890
  0.312000, -3.335890
  0.314000, -3.555090
  0.316000, -3.762630
  0.318000, -3.950680
  0.320000, -4.114740
  0.322000, -4.269470
  0.324000, -4.402950
  0.326000, -4.519350
  0.328000, -4.618180
  0.330000, -4.701780
  0.332000, -4.769780
  0.334000, -4.817760
  0.336000, -4.858890
  0.338000, -4.879990
  0.340000, -4.890460
  0.342000, -4.890310
  0.344000, -4.882540
  0.346000, -4.865490
  0.348000, -4.841820
  0.350000, -4.809900
  0.352000, -4.769930
  0.354000, -4.720810
  0.356000, -4.661910
  0.358000, -4.600140
  0.360000, -4.529400
  0.362000, -4.453960
  0.364000, -4.369620
  0.366000, -4.276180
  0.368000, -4.174990
  0.370000, -4.061470
  0.372000, -3.942250
  0.374000, -3.817190
  0.376000, -3.688110
  0.378000, -3.553760
  0.380000, -3.418120
  0.382000, -3.280370
  0.384000, -3.134820
  0.386000, -2.994340
  0.388000, -2.849030
  0.390000, -2.705030
  0.392000, -2.557290
  0.394000, -2.409070
  0.396000, -2.258600
  0.398000, -2.107270
  0.400000, -1.951110
  0.402000, -1.789450
  0.404000, -1.631930
  0.406000, -1.470890
  0.408000, -1.315010
  0.410000, -1.155380
  0.412000, -0.999670
  0.414000, -0.842450
  0.416000, -0.692780
  0.418000, -0.545970
  0.420000, -0.405170
  0.422000, -0.266420
  0.424000, -0.129010
  0.426000,  0.008140
  0.428000,  0.141520
  0.430000,  0.273780
  0.432000,  0.409040
  0.434000,  0.538350
  0.436000,  0.664220
  0.438000,  0.793140
  0.440000,  0.914080
  0.442000,  1.036730
  0.444000,  1.155830
  0.446000,  1.271080
  0.448000,  1.383920
  0.450000,  1.495890
  0.452000,  1.604550
  0.454000,  1.711470
  0.456000,  1.812730
  0.458000,  1.919200
  0.460000,  2.013080
  0.462000,  2.105490
  0.464000,  2.194280
  0.466000,  2.274750
  0.468000,  2.354680
  0.470000,  2.432810
  0.472000,  2.507090
  0.474000,  2.579710
  0.476000,  2.646170
  0.478000,  2.713120
  0.480000,  2.773790
  0.482000,  2.835400
  0.484000,  2.888610
  0.486000,  2.940520
  0.488000,  2.989800
  0.490000,  3.040980
  0.492000,  3.086760
  0.494000,  3.131170
  0.496000,  3.172740
  0.498000,  3.216000
  0.500000,  3.254440
  0.502000,  3.287450
  0.504000,  3.312560
  0.506000,  3.339790
  0.508000,  3.364740
  0.510000,  3.378590
  0.512000,  3.393430
  0.514000,  3.401400
  0.516000,  3.400480
  0.518000,  3.401050
  0.520000,  3.390900
  0.522000,  3.381270
  0.524000,  3.374040
  0.526000,  3.359300
  0.528000,  3.345000
  0.530000,  3.321350
  0.532000,  3.295660
  0.534000,  3.273950
  0.536000,  3.243300
  0.538000,  3.206980
  0.540000,  3.168940
  0.542000,  3.130420
  0.544000,  3.082510
  0.546000,  3.032280
  0.548000,  2.984470
  0.550000,  2.939380
  0.552000,  2.890290
  0.554000,  2.839090
  0.556000,  2.784570
  0.558000,  2.723520
  0.560000,  2.665790
  0.562000,  2.603620
  0.564000,  2.539710
  0.566000,  2.477770
  0.568000,  2.414330
  0.570000,  2.344990
  0.572000,  2.272060
  0.574000,  2.202670
  0.576000,  2.130480
  0.578000,  2.059060
  0.580000,  1.984600
  0.582000,  1.908730
  0.584000,  1.829520
  0.586000,  1.753430
  0.588000,  1.675530
  0.590000,  1.600210
  0.592000,  1.520310
  0.594000,  1.441930
  0.596000,  1.359430
  0.598000,  1.279900
  0.600000,  1.197050
  0.602000,  1.112990
  0.604000,  1.033610
  0.606000,  0.949610
  0.608000,  0.869730
  0.610000,  0.794360
  0.612000,  0.718140
  0.614000,  0.642630
  0.616000,  0.573010
  0.618000,  0.502300
  0.620000,  0.435510
  0.622000,  0.367950
  0.624000,  0.306200
  0.626000,  0.245010
  0.628000,  0.178390
  0.630000,  0.116530
  0.632000,  0.052810
  0.634000, -0.010220
  0.636000, -0.070620
  0.638000, -0.130390
  0.640000, -0.192140
  0.642000, -0.246970
  0.644000, -0.303480
  0.646000, -0.349980
  0.648000, -0.393930
  0.650000, -0.435360
  0.652000, -0.470570
  0.654000, -0.507040
  0.656000, -0.534690
  0.658000, -0.562190
  0.660000, -0.587960
  0.662000, -0.610920
  0.664000, -0.630160
  0.666000, -0.647570
  0.668000, -0.660560
  0.670000, -0.671700
  0.672000, -0.679350
  0.674000, -0.680250
  0.676000, -0.677660
  0.678000, -0.673270
  0.680000, -0.659630
  0.682000, -0.646470
  0.684000, -0.631140
  0.686000, -0.611910
  0.688000, -0.591510
  0.690000, -0.567500
  0.692000, -0.549340
  0.694000, -0.532070
  0.696000, -0.514690
  0.698000, -0.502750
  0.700000, -0.484160
  0.702000, -0.466590
  0.704000, -0.453790
  0.706000, -0.435880
  0.708000, -0.413920
  0.710000, -0.389550
  0.712000, -0.364610
  0.714000, -0.331540
  0.716000, -0.298910
  0.718000, -0.264520
  0.720000, -0.229560
  0.722000, -0.196120
  0.724000, -0.156220
  0.726000, -0.117850
  0.728000, -0.086180
  0.730000, -0.052090
  0.732000, -0.015410
  0.734000,  0.015150
  0.736000,  0.040470
  0.738000,  0.064620
  0.740000,  0.088240
  0.742000,  0.113140
  0.744000,  0.137770
  0.746000,  0.152840
  0.748000,  0.170370
  0.750000,  0.188980
  0.752000,  0.208270
  0.754000,  0.227140
  0.756000,  0.245030
  0.758000,  0.260900
  0.760000,  0.288080
  0.762000,  0.312570
  0.764000,  0.340400
  0.766000,  0.370330
  0.768000,  0.397810
  0.770000,  0.430000
  0.772000,  0.462580
  0.774000,  0.494550
  0.776000,  0.526280
  0.778000,  0.558470
  0.780000,  0.584650
  0.782000,  0.613410
  0.784000,  0.641780
  0.786000,  0.666530
  0.788000,  0.687570
  0.790000,  0.709200
  0.792000,  0.725550
  0.794000,  0.741710
  0.796000,  0.754640
  0.798000,  0.766610
  0.800000,  0.777980
  0.802000,  0.785220
  0.804000,  0.788590
  0.806000,  0.791700
  0.808000,  0.797980
  0.810000,  0.794630
  0.812000,  0.791560
  0.814000,  0.794180
  0.816000,  0.793420
  0.818000,  0.801790
  0.820000,  0.806920
  0.822000,  0.819040
  0.824000,  0.832170
  0.826000,  0.849100
  0.828000,  0.863660
  0.830000,  0.870930
  0.832000,  0.881740
  0.834000,  0.893300
  0.836000,  0.905040
  0.838000,  0.910910
  0.840000,  0.908660
  0.842000,  0.901080
  0.844000,  0.892590
  0.846000,  0.883480
  0.848000,  0.868290
  0.850000,  0.850050
  0.852000,  0.829320
  0.854000,  0.813070
  0.856000,  0.786870
  0.858000,  0.762780
  0.860000,  0.736380
  0.862000,  0.710910
  0.864000,  0.685980
  0.866000,  0.666070
  0.868000,  0.643420
  0.870000,  0.623720
  0.872000,  0.609790
  0.874000,  0.597310
  0.876000,  0.583630
  0.878000,  0.572620
  0.880000,  0.561500
  0.882000,  0.552710
  0.884000,  0.543920
  0.886000,  0.531270
  0.888000,  0.517410
  0.890000,  0.502620
  0.892000,  0.487550
  0.894000,  0.473130
  0.896000,  0.443900
  0.898000,  0.421820
  0.900000,  0.399430
  0.902000,  0.373430
  0.904000,  0.345210
  0.906000,  0.317830
  0.908000,  0.283580
  0.910000,  0.254480
  0.912000,  0.221910
  0.914000,  0.194210
  0.916000,  0.169130
  0.918000,  0.145700
  0.920000,  0.122390
  0.922000,  0.100770
  0.924000,  0.082680
  0.926000,  0.066980
  0.928000,  0.053160
  0.930000,  0.036250
  0.932000,  0.020390
  0.934000,  0.004830
  0.936000, -0.012200
  0.938000, -0.019800
  0.940000, -0.036390
  0.942000, -0.050590
  0.944000, -0.064030
  0.946000, -0.077750
  0.948000, -0.087660
  0.950000, -0.096270
  0.952000, -0.104670
  0.954000, -0.116660
  0.956000, -0.119770
  0.958000, -0.126100
  0.960000, -0.130780
  0.962000, -0.130980
  0.964000, -0.128180
  0.966000, -0.120210
  0.968000, -0.113360
  0.970000, -0.103050
  0.972000, -0.087440
  0.974000, -0.075160
  0.976000, -0.061290
  0.978000, -0.050420
  0.980000, -0.041930
  0.982000, -0.037710
  0.984000, -0.036040
  0.986000, -0.040430
  0.988000, -0.048890
  0.990000, -0.064600
  0.992000, -0.078270
  0.994000, -0.097350
  0.996000, -0.121260
  0.998000, -0.147190
  1.000000, -0.166500
