# z (nm)   (kJ/mol)
  0.082000,271.543000
  0.084000,268.159250
  0.086000,265.155650
  0.088000,261.969940
  0.090000,259.054780
  0.092000,256.252320
  0.094000,253.373630
  0.096000,250.431280
  0.098000,247.475350
  0.100000,244.487740
  0.102000,241.429970
  0.104000,238.314410
  0.106000,235.129230
  0.108000,231.855390
  0.110000,228.487740
  0.112000,225.019070
  0.114000,221.445640
  0.116000,217.776280
  0.118000,214.002720
  0.120000,210.157250
  0.122000,206.249920
  0.124000,202.297490
  0.126000,198.322030
  0.128000,194.333730
  0.130000,190.337710
  0.132000,186.340080
  0.134000,182.342630
  0.136000,178.350220
  0.138000,174.371020
  0.140000,170.418400
  0.142000,166.501230
  0.144000,162.640520
  0.146000,158.837510
  0.148000,155.101900
  0.150000,151.435580
  0.152000,147.846120
  0.154000,144.331910
  0.156000,140.894400
  0.158000,137.533370
  0.160000,134.238350
  0.162000,131.008530
  0.164000,127.833490
  0.166000,124.704270
  0.168000,121.615070
  0.170000,118.560890
  0.172000,115.535070
  0.174000,112.552970
  0.176000,109.612400
  0.178000,106.710110
  0.180000,103.853400
  0.182000,101.025860
  0.184000, 98.228630
  0.186000, 95.448710
  0.188000, 92.689810
  0.190000, 89.946740
  0.192000, 87.222420
  0.194000, 84.529990
  0.196000, 81.883300
  0.198000, 79.291160
  0.200000, 76.764600
  0.202000, 74.298870
  0.204000, 71.897640
  0.206000, 69.541820
  0.208000, 67.225870
  0.210000, 64.941530
  0.212000, 62.680530
  0.214000, 60.430900
  0.216000, 58.202770
  0.218000, 56.003780
  0.220000, 53.835460
  0.222000, 51.714530
  0.224000, 49.651440
  0.226000, 47.653070
  0.228000, 45.724470
  0.230000, 43.867530
  0.232000, 42.071930
  0.234000, 40.330510
  0.236000, 38.633490
  0.238000, 36.971630
  0.240000, 35.344140
  0.242000, 33.750400
  0.244000, 32.197390
  0.246000, 30.684830
  0.248000, 29.221990
  0.250000, 27.806350
  0.252000, 26.444440
  0.254000, 25.124250
  0.256000, 23.850400
  0.258000, 22.615030
  0.260000, 21.410010
  0.262000, 20.245430
  0.264000, 19.116260
  0.266000, 18.034520
  0.268000, 16.990680
  0.270000, 15.977970
  0.272000, 15.017360
  0.274000, 14.098850
  0.276000, 13.219340
  0.278000, 12.378870
  0.280000, 11.572840
  0.282000, 10.811790
  0.284000, 10.071730
  0.286000,  9.373220
  0.288000,  8.707690
  0.290000,  8.077690
  0.292000,  7.478070
  0.294000,  6.912150
  0.296000,  6.377470
  0.298000,  5.880350
  0.300000,  5.419590
  0.302000,  4.993270
  0.304000,  4.611660
  0.306000,  4.263860
  0.308000,  3.950350
  0.310000,  3.668360
  0.312000,  3.417070
  0.314000,  3.186430
  0.316000,  2.974700
  0.318000,  2.782030
  0.320000,  2.609310
  0.322000,  2.462800
  0.324000,  2.344700
  0.326000,  2.250620
  0.328000,  2.179500
  0.330000,  2.124920
  0.332000,  2.093670
  0.334000,  2.082410
  0.336000,  2.080690
  0.338000,  2.087650
  0.340000,  2.099230
  0.342000,  2.104280
  0.344000,  2.098330
  0.346000,  2.085100
  0.348000,  2.064500
  0.350000,  2.038310
  0.352000,  2.005900
  0.354000,  1.968740
  0.356000,  1.929670
  0.358000,  1.882820
  0.360000,  1.827330
  0.362000,  1.757890
  0.364000,  1.674450
  0.366000,  1.566320
  0.368000,  1.444930
  0.370000,  1.294140
  0.372000,  1.132420
  0.374000,  0.944920
  0.376000,  0.738900
  0.378000,  0.522150
  0.380000,  0.298180
  0.382000,  0.064980
  0.384000, -0.169870
  0.386000, -0.406760
  0.388000, -0.634140
  0.390000, -0.880080
  0.392000, -1.119460
  0.394000, -1.363140
  0.396000, -1.609730
  0.398000, -1.862250
  0.400000, -2.107220
  0.402000, -2.342940
  0.404000, -2.551840
  0.406000, -2.739210
  0.408000, -2.900240
  0.410000, -3.033100
  0.412000, -3.139250
  0.414000, -3.224090
  0.416000, -3.288040
  0.418000, -3.346510
  0.420000, -3.402220
  0.422000, -3.464320
  0.424000, -3.535030
  0.426000, -3.616050
  0.428000, -3.700000
  0.430000, -3.777290
  0.432000, -3.849130
  0.434000, -3.903060
  0.436000, -3.931340
  0.438000, -3.936470
  0.440000, -3.902830
  0.442000, -3.839260
  0.444000, -3.761830
  0.446000, -3.662820
  0.448000, -3.552490
  0.450000, -3.444720
  0.452000, -3.335830
  0.454000, -3.234270
  0.456000, -3.137280
  0.458000, -3.057070
  0.460000, -2.987320
  0.462000, -2.922300
  0.464000, -2.849360
  0.466000, -2.767390
  0.468000, -2.670750
  0.470000, -2.564260
  0.472000, -2.443550
  0.474000, -2.307070
  0.476000, -2.157980
  0.478000, -1.999240
  0.480000, -1.839060
  0.482000, -1.671530
  0.484000, -1.502800
  0.486000, -1.335830
  0.488000, -1.184340
  0.490000, -1.034990
  0.492000, -0.899230
  0.494000, -0.773970
  0.496000, -0.649560
  0.498000, -0.533160
  0.500000, -0.419010
  0.502000, -0.300480
  0.504000, -0.188350
  0.506000, -0.083480
  0.508000,  0.008430
  0.510000,  0.093250
  0.512000,  0.169490
  0.514000,  0.231620
  0.516000,  0.277850
  0.518000,  0.312290
  0.520000,  0.336580
  0.522000,  0.344420
  0.524000,  0.346150
  0.526000,  0.342260
  0.528000,  0.332460
  0.530000,  0.325040
  0.532000,  0.309670
  0.534000,  0.297510
  0.536000,  0.279900
  0.538000,  0.261200
  0.540000,  0.236720
  0.542000,  0.207410
  0.544000,  0.180590
  0.546000,  0.147270
  0.548000,  0.101080
  0.550000,  0.053220
  0.552000,  0.001120
  0.554000, -0.059100
  0.556000, -0.117220
  0.558000, -0.181180
  0.560000, -0.247690
  0.562000, -0.314390
  0.564000, -0.373420
  0.566000, -0.426130
  0.568000, -0.470880
  0.570000, -0.502350
  0.572000, -0.531240
  0.574000, -0.547570
  0.576000, -0.561740
  0.578000, -0.569300
  0.580000, -0.575860
  0.582000, -0.583150
  0.584000, -0.593010
  0.586000, -0.608220
  0.588000, -0.623930
  0.590000, -0.642500
  0.592000, -0.668070
  0.594000, -0.691230
  0.596000, -0.720460
  0.598000, -0.753650
  0.600000, -0.786780
  0.602000, -0.821560
  0.604000, -0.854340
  0.606000, -0.883220
  0.608000, -0.906770
  0.610000, -0.921700
  0.612000, -0.928950
  0.614000, -0.929700
  0.616000, -0.917840
  0.618000, -0.901610
  0.620000, -0.881120
  0.622000, -0.857720
  0.624000, -0.840570
  0.626000, -0.825110
  0.628000, -0.813610
  0.630000, -0.799970
  0.632000, -0.785480
  0.634000, -0.775350
  0.636000, -0.763390
  0.638000, -0.748760
  0.640000, -0.736910
  0.642000, -0.720950
  0.644000, -0.699210
  0.646000, -0.672250
  0.648000, -0.649090
  0.650000, -0.630850
  0.652000, -0.608840
  0.654000, -0.580790
  0.656000, -0.560340
  0.658000, -0.539320
  0.660000, -0.515180
  0.662000, -0.498190
  0.664000, -0.476910
  0.666000, -0.463560
  0.668000, -0.444200
  0.670000, -0.430890
  0.672000, -0.417290
  0.674000, -0.408340
  0.676000, -0.397380
  0.678000, -0.396570
  0.680000, -0.398780
  0.682000, -0.407920
  0.684000, -0.415230
  0.686000, -0.425900
  0.688000, -0.436200
  0.690000, -0.447170
  0.692000, -0.451040
  0.694000, -0.455800
  0.696000, -0.466610
  0.698000, -0.470160
  0.700000, -0.481610
  0.702000, -0.488670
  0.704000, -0.498070
  0.706000, -0.503610
  0.708000, -0.512850
  0.710000, -0.518130
  0.712000, -0.518460
  0.714000, -0.532750
  0.716000, -0.531230
  0.718000, -0.532140
  0.720000, -0.527390
  0.722000, -0.520610
  0.724000, -0.509450
  0.726000, -0.502450
  0.728000, -0.497270
  0.730000, -0.493170
  0.732000, -0.491010
  0.734000, -0.489070
  0.736000, -0.500210
  0.738000, -0.512520
  0.740000, -0.529700
  0.742000, -0.547190
  0.744000, -0.564790
  0.746000, -0.584330
  0.748000, -0.603420
  0.750000, -0.614360
  0.752000, -0.620830
  0.754000, -0.609620
  0.756000, -0.595330
  0.758000, -0.568100
  0.760000, -0.535590
  0.762000, -0.497830
  0.764000, -0.457720
  0.766000, -0.412920
  0.768000, -0.370650
  0.770000, -0.331610
  0.772000, -0.302170
  0.774000, -0.284120
  0.776000, -0.279960
  0.778000, -0.282890
  0.780000, -0.300160
  0.782000, -0.320550
  0.784000, -0.348670
  0.786000, -0.375740
  0.788000, -0.396500
  0.790000, -0.414670
  0.792000, -0.424130
  0.794000, -0.429420
  0.796000, -0.424280
  0.798000, -0.414990
  0.800000, -0.397100
  0.802000, -0.376910
  0.804000, -0.354090
  0.806000, -0.328210
  0.808000, -0.300210
  0.810000, -0.275380
  0.812000, -0.257630
  0.814000, -0.240120
  0.816000, -0.225140
  0.818000, -0.212630
  0.820000, -0.205250
  0.822000, -0.202040
  0.824000, -0.203790
  0.826000, -0.203800
  0.828000, -0.203820
  0.830000, -0.204020
  0.832000, -0.204500
  0.834000, -0.210560
  0.836000, -0.216960
  0.838000, -0.223250
  0.840000, -0.227250
  0.842000, -0.224600
  0.844000, -0.222460
  0.846000, -0.222130
  0.848000, -0.220550
  0.850000, -0.214630
  0.852000, -0.202110
  0.854000, -0.180860
  0.856000, -0.152120
  0.858000, -0.125010
  0.860000, -0.098400
  0.862000, -0.077100
  0.864000, -0.051100
  0.866000, -0.039100
  0.868000, -0.032620
  0.870000, -0.032370
  0.872000, -0.032620
  0.874000, -0.044120
  0.876000, -0.049610
  0.878000, -0.054120
  0.880000, -0.070290
  0.882000, -0.078940
  0.884000, -0.084490
  0.886000, -0.089810
  0.888000, -0.089920
  0.890000, -0.086730
  0.892000, -0.081820
  0.894000, -0.072300
  0.896000, -0.055880
  0.898000, -0.039390
  0.900000, -0.021820
  0.902000, -0.001740
  0.904000,  0.024740
  0.906000,  0.041470
  0.908000,  0.057220
  0.910000,  0.067250
  0.912000,  0.076700
  0.914000,  0.077850
  0.916000,  0.067450
  0.918000,  0.050330
  0.920000,  0.034820
  0.922000,  0.016750
  0.924000,  0.000140
  0.926000, -0.009170
  0.928000, -0.015740
  0.930000, -0.016420
  0.932000, -0.011730
  0.934000, -0.005450
  0.936000,  0.001410
  0.938000,  0.016560
  0.940000,  0.030250
  0.942000,  0.042150
  0.944000,  0.048130
  0.946000,  0.050340
  0.948000,  0.041850
  0.950000,  0.031630
  0.952000,  0.010890
  0.954000, -0.003120
  0.956000, -0.022070
  0.958000, -0.044090
  0.960000, -0.051870
  0.962000, -0.061450
  0.964000, -0.064690
  0.966000, -0.065640
  0.968000, -0.054990
  0.970000, -0.043780
  0.972000, -0.027090
  0.974000, -0.003190
  0.976000,  0.019090
  0.978000,  0.029150
  0.980000,  0.041830
  0.982000,  0.043650
  0.984000,  0.040600
  0.986000,  0.024300
  0.988000, -0.002860
  0.990000, -0.029570
  0.992000, -0.056170
  0.994000, -0.079270
  0.996000, -0.094060
  0.998000, -0.107600
  1.000000, -0.114790
