# z (nm)   (kJ/mol)
  0.052000,284.674830
  0.054000,282.242900
  0.056000,279.854450
  0.058000,279.301630
  0.060000,276.864770
  0.062000,274.428470
  0.064000,272.038720
  0.066000,269.593050
  0.068000,267.208430
  0.070000,264.796760
  0.072000,262.340440
  0.074000,259.846640
  0.076000,257.322500
  0.078000,254.746860
  0.080000,252.111410
  0.082000,249.411050
  0.084000,246.617660
  0.086000,243.723030
  0.088000,240.709080
  0.090000,237.578680
  0.092000,234.321250
  0.094000,230.930070
  0.096000,227.413010
  0.098000,223.776840
  0.100000,220.020460
  0.102000,216.155740
  0.104000,212.185690
  0.106000,208.127530
  0.108000,203.997210
  0.110000,199.810810
  0.112000,195.585560
  0.114000,191.352390
  0.116000,187.127790
  0.118000,182.943890
  0.120000,178.815910
  0.122000,174.774660
  0.124000,170.831880
  0.126000,167.005180
  0.128000,163.305790
  0.130000,159.729630
  0.132000,156.274670
  0.134000,152.923310
  0.136000,149.645450
  0.138000,146.413950
  0.140000,143.195640
  0.142000,139.954220
  0.144000,136.671300
  0.146000,133.338870
  0.148000,129.966840
  0.150000,126.578560
  0.152000,123.213780
  0.154000,119.917760
  0.156000,116.714570
  0.158000,113.623660
  0.160000,110.650420
  0.162000,107.789620
  0.164000,105.007990
  0.166000,102.283150
  0.168000, 99.585780
  0.170000, 96.902310
  0.172000, 94.213780
  0.174000, 91.519540
  0.176000, 88.824790
  0.178000, 86.145690
  0.180000, 83.480940
  0.182000, 80.858500
  0.184000, 78.279490
  0.186000, 75.746940
  0.188000, 73.256550
  0.190000, 70.801300
  0.192000, 68.376010
  0.194000, 65.978620
  0.196000, 63.610690
  0.198000, 61.282630
  0.200000, 58.992800
  0.202000, 56.758350
  0.204000, 54.580260
  0.206000, 52.461660
  0.208000, 50.386810
  0.210000, 48.364300
  0.212000, 46.383810
  0.214000, 44.452720
  0.216000, 42.573050
  0.218000, 40.738070
  0.220000, 38.951150
  0.222000, 37.208680
  0.224000, 35.501990
  0.226000, 33.828580
  0.228000, 32.177440
  0.230000, 30.548060
  0.232000, 28.940760
  0.234000, 27.373060
  0.236000, 25.838010
  0.238000, 24.356420
  0.240000, 22.928040
  0.242000, 21.555770
  0.244000, 20.230700
  0.246000, 18.962870
  0.248000, 17.720440
  0.250000, 16.504250
  0.252000, 15.311100
  0.254000, 14.131390
  0.256000, 12.996510
  0.258000, 11.903350
  0.260000, 10.871970
  0.262000,  9.896960
  0.264000,  8.979190
  0.266000,  8.107920
  0.268000,  7.286120
  0.270000,  6.491230
  0.272000,  5.715960
  0.274000,  4.959810
  0.276000,  4.222940
  0.278000,  3.505750
  0.280000,  2.807670
  0.282000,  2.131180
  0.284000,  1.486440
  0.286000,  0.872490
  0.288000,  0.302840
  0.290000, -0.231730
  0.292000, -0.734800
  0.294000, -1.196580
  0.296000, -1.636130
  0.298000, -2.050920
  0.300000, -2.443010
  0.302000, -2.806580
  0.304000, -3.148590
  0.306000, -3.459910
  0.308000, -3.750690
  0.310000, -4.017010
  0.312000, -4.254240
  0.314000, -4.468550
  0.316000, -4.652400
  0.318000, -4.827070
  0.320000, -4.985870
  0.322000, -5.125020
  0.324000, -5.250470
  0.326000, -5.374040
  0.328000, -5.495010
  0.330000, -5.613730
  0.332000, -5.722750
  0.334000, -5.823670
  0.336000, -5.909920
  0.338000, -5.978700
  0.340000, -6.026230
  0.342000, -6.054880
  0.344000, -6.068980
  0.346000, -6.067850
  0.348000, -6.050730
  0.350000, -6.019510
  0.352000, -5.980420
  0.354000, -5.939020
  0.356000, -5.897260
  0.358000, -5.847510
  0.360000, -5.793780
  0.362000, -5.737900
  0.364000, -5.678590
  0.366000, -5.610800
  0.368000, -5.533880
  0.370000, -5.453730
  0.372000, -5.362250
  0.374000, -5.271120
  0.376000, -5.177160
  0.378000, -5.081610
  0.380000, -4.985530
  0.382000, -4.896650
  0.384000, -4.815230
  0.386000, -4.735810
  0.388000, -4.657470
  0.390000, -4.581030
  0.392000, -4.500830
  0.394000, -4.422000
  0.396000, -4.341700
  0.398000, -4.250740
  0.400000, -4.165820
  0.402000, -4.076210
  0.404000, -3.992770
  0.406000, -3.909670
  0.408000, -3.826340
  0.410000, -3.745850
  0.412000, -3.658280
  0.414000, -3.583950
  0.416000, -3.513580
  0.418000, -3.447870
  0.420000, -3.385550
  0.422000, -3.324410
  0.424000, -3.268880
  0.426000, -3.212870
  0.428000, -3.159240
  0.430000, -3.108810
  0.432000, -3.060020
  0.434000, -3.001260
  0.436000, -2.938970
  0.438000, -2.872310
  0.440000, -2.801790
  0.442000, -2.724040
  0.444000, -2.644820
  0.446000, -2.557430
  0.448000, -2.458010
  0.450000, -2.352250
  0.452000, -2.246050
  0.454000, -2.127820
  0.456000, -2.003110
  0.458000, -1.875400
  0.460000, -1.734150
  0.462000, -1.593480
  0.464000, -1.448960
  0.466000, -1.297010
  0.468000, -1.147580
  0.470000, -0.999140
  0.472000, -0.851140
  0.474000, -0.704900
  0.476000, -0.558860
  0.478000, -0.410580
  0.480000, -0.264280
  0.482000, -0.122490
  0.484000,  0.020280
  0.486000,  0.156510
  0.488000,  0.287620
  0.490000,  0.418640
  0.492000,  0.545770
  0.494000,  0.669640
  0.496000,  0.793210
  0.498000,  0.919140
  0.500000,  1.037010
  0.502000,  1.154220
  0.504000,  1.262080
  0.506000,  1.369890
  0.508000,  1.474900
  0.510000,  1.575940
  0.512000,  1.678630
  0.514000,  1.775210
  0.516000,  1.866230
  0.518000,  1.958860
  0.520000,  2.048170
  0.522000,  2.129930
  0.524000,  2.201100
  0.526000,  2.267890
  0.528000,  2.328000
  0.530000,  2.381790
  0.532000,  2.425720
  0.534000,  2.459020
  0.536000,  2.488410
  0.538000,  2.516470
  0.540000,  2.539280
  0.542000,  2.554230
  0.544000,  2.567400
  0.546000,  2.572940
  0.548000,  2.577860
  0.550000,  2.587950
  0.552000,  2.584200
  0.554000,  2.578240
  0.556000,  2.567120
  0.558000,  2.552200
  0.560000,  2.526380
  0.562000,  2.496440
  0.564000,  2.459750
  0.566000,  2.422990
  0.568000,  2.390910
  0.570000,  2.358340
  0.572000,  2.329710
  0.574000,  2.304080
  0.576000,  2.282490
  0.578000,  2.255120
  0.580000,  2.227170
  0.582000,  2.189140
  0.584000,  2.141420
  0.586000,  2.086490
  0.588000,  2.025100
  0.590000,  1.958060
  0.592000,  1.886850
  0.594000,  1.812070
  0.596000,  1.736020
  0.598000,  1.660390
  0.600000,  1.592230
  0.602000,  1.528110
  0.604000,  1.467660
  0.606000,  1.407530
  0.608000,  1.345490
  0.610000,  1.285470
  0.612000,  1.222630
  0.614000,  1.162340
  0.616000,  1.092830
  0.618000,  1.024290
  0.620000,  0.954530
  0.622000,  0.891660
  0.624000,  0.828920
  0.626000,  0.767030
  0.628000,  0.709520
  0.630000,  0.655670
  0.632000,  0.606970
  0.634000,  0.563710
  0.636000,  0.519580
  0.638000,  0.480970
  0.640000,  0.444960
  0.642000,  0.408860
  0.644000,  0.368280
  0.646000,  0.332280
  0.648000,  0.297360
  0.650000,  0.263180
  0.652000,  0.230970
  0.654000,  0.196600
  0.656000,  0.161000
  0.658000,  0.126610
  0.660000,  0.100080
  0.662000,  0.070300
  0.664000,  0.044750
  0.666000,  0.018310
  0.668000, -0.008750
  0.670000, -0.031260
  0.672000, -0.053810
  0.674000, -0.074060
  0.676000, -0.098920
  0.678000, -0.115360
  0.680000, -0.132650
  0.682000, -0.151330
  0.684000, -0.160080
  0.686000, -0.166670
  0.688000, -0.167290
  0.690000, -0.169940
  0.692000, -0.168050
  0.694000, -0.158200
  0.696000, -0.154470
  0.698000, -0.144730
  0.700000, -0.135350
  0.702000, -0.127200
  0.704000, -0.120110
  0.706000, -0.113790
  0.708000, -0.111140
  0.710000, -0.108000
  0.712000, -0.105830
  0.714000, -0.107420
  0.716000, -0.110370
  0.718000, -0.111370
  0.720000, -0.116510
  0.722000, -0.110870
  0.724000, -0.106380
  0.726000, -0.098760
  0.728000, -0.081830
  0.730000, -0.060830
  0.732000, -0.040370
  0.734000, -0.018100
  0.736000,  0.007620
  0.738000,  0.029350
  0.740000,  0.049830
  0.742000,  0.071200
  0.744000,  0.089160
  0.746000,  0.100170
  0.748000,  0.114790
  0.750000,  0.129400
  0.752000,  0.139000
  0.754000,  0.151310
  0.756000,  0.167950
  0.758000,  0.180130
  0.760000,  0.195370
  0.762000,  0.211450
  0.764000,  0.228490
  0.766000,  0.247180
  0.768000,  0.266960
  0.770000,  0.285900
  0.772000,  0.308930
  0.774000,  0.327080
  0.776000,  0.349350
  0.778000,  0.372840
  0.780000,  0.398100
  0.782000,  0.428160
  0.784000,  0.463430
  0.786000,  0.497220
  0.788000,  0.534810
  0.790000,  0.568320
  0.792000,  0.595290
  0.794000,  0.624100
  0.796000,  0.648540
  0.798000,  0.671560
  0.800000,  0.693590
  0.802000,  0.708560
  0.804000,  0.724360
  0.806000,  0.732660
  0.808000,  0.741810
  0.810000,  0.750930
  0.812000,  0.755970
  0.814000,  0.761590
  0.816000,  0.768710
  0.818000,  0.772380
  0.820000,  0.777930
  0.822000,  0.782710
  0.824000,  0.788450
  0.826000,  0.787500
  0.828000,  0.790530
  0.830000,  0.793880
  0.832000,  0.797520
  0.834000,  0.795550
  0.836000,  0.796250
  0.838000,  0.796040
  0.840000,  0.792160
  0.842000,  0.782920
  0.844000,  0.782050
  0.846000,  0.773360
  0.848000,  0.762740
  0.850000,  0.750300
  0.852000,  0.746860
  0.854000,  0.733460
  0.856000,  0.719600
  0.858000,  0.705260
  0.860000,  0.697910
  0.862000,  0.684060
  0.864000,  0.676760
  0.866000,  0.668370
  0.868000,  0.668760
  0.870000,  0.668590
  0.872000,  0.663030
  0.874000,  0.664750
  0.876000,  0.665470
  0.878000,  0.664380
  0.880000,  0.652710
  0.882000,  0.634920
  0.884000,  0.615230
  0.886000,  0.591730
  0.888000,  0.560980
  0.890000,  0.519670
  0.892000,  0.479350
  0.894000,  0.438110
  0.896000,  0.390570
  0.898000,  0.340570
  0.900000,  0.297560
  0.902000,  0.256280
  0.904000,  0.214750
  0.906000,  0.180740
  0.908000,  0.154030
  0.910000,  0.131070
  0.912000,  0.115630
  0.914000,  0.110210
  0.916000,  0.103800
  0.918000,  0.101890
  0.920000,  0.107660
  0.922000,  0.110950
  0.924000,  0.113570
  0.926000,  0.112270
  0.928000,  0.108750
  0.930000,  0.102570
  0.932000,  0.098930
  0.934000,  0.082830
  0.936000,  0.069390
  0.938000,  0.058060
  0.940000,  0.046150
  0.942000,  0.036240
  0.944000,  0.025190
  0.946000,  0.014050
  0.948000,  0.000510
  0.950000, -0.012700
  0.952000, -0.020770
  0.954000, -0.024940
  0.956000, -0.028060
  0.958000, -0.033210
  0.960000, -0.033630
  0.962000, -0.035440
  0.964000, -0.037880
  0.966000, -0.039030
  0.968000, -0.041870
  0.970000, -0.047540
  0.972000, -0.053480
  0.974000, -0.058010
  0.976000, -0.069450
  0.978000, -0.085480
  0.980000, -0.099750
  0.982000, -0.115890
  0.984000, -0.131780
  0.986000, -0.144050
  0.988000, -0.160280
  0.990000, -0.171640
  0.992000, -0.183750
  0.994000, -0.193270
  0.996000, -0.202630
  0.998000, -0.215140
  1.000000, -0.215860
