# z (nm)   (kJ/mol)
  0.116000,264.245330
  0.118000,262.037340
  0.120000,259.883690
  0.122000,257.780660
  0.124000,255.729360
  0.126000,253.717500
  0.128000,251.743680
  0.130000,249.708660
  0.132000,247.689560
  0.134000,245.687380
  0.136000,243.608550
  0.138000,241.499100
  0.140000,239.311470
  0.142000,237.018630
  0.144000,234.598450
  0.146000,232.016990
  0.148000,229.268990
  0.150000,226.321180
  0.152000,223.162850
  0.154000,219.788940
  0.156000,216.193340
  0.158000,212.383400
  0.160000,208.364410
  0.162000,204.142610
  0.164000,199.752120
  0.166000,195.227410
  0.168000,190.626960
  0.170000,186.021280
  0.172000,181.493490
  0.174000,177.087130
  0.176000,172.793350
  0.178000,168.584850
  0.180000,164.403160
  0.182000,160.220960
  0.184000,156.037410
  0.186000,151.881240
  0.188000,147.806220
  0.190000,143.860740
  0.192000,140.080300
  0.194000,136.467080
  0.196000,132.995440
  0.198000,129.597800
  0.200000,126.207800
  0.202000,122.776600
  0.204000,119.279350
  0.206000,115.727140
  0.208000,112.160320
  0.210000,108.635630
  0.212000,105.215300
  0.214000,101.939790
  0.216000, 98.825310
  0.218000, 95.847360
  0.220000, 92.960000
  0.222000, 90.106490
  0.224000, 87.248190
  0.226000, 84.344170
  0.228000, 81.393530
  0.230000, 78.401910
  0.232000, 75.406040
  0.234000, 72.444870
  0.236000, 69.566750
  0.238000, 66.810350
  0.240000, 64.201930
  0.242000, 61.742990
  0.244000, 59.418620
  0.246000, 57.183290
  0.248000, 54.981260
  0.250000, 52.757260
  0.252000, 50.476070
  0.254000, 48.137700
  0.256000, 45.749680
  0.258000, 43.383090
  0.260000, 41.111750
  0.262000, 39.004450
  0.264000, 37.106910
  0.266000, 35.381970
  0.268000, 33.739280
  0.270000, 32.085080
  0.272000, 30.363920
  0.274000, 28.574020
  0.276000, 26.773340
  0.278000, 25.017430
  0.280000, 23.371150
  0.282000, 21.838730
  0.284000, 20.429090
  0.286000, 19.105160
  0.288000, 17.840940
  0.290000, 16.584560
  0.292000, 15.336220
  0.294000, 14.097080
  0.296000, 12.878060
  0.298000, 11.703370
  0.300000, 10.597890
  0.302000,  9.565170
  0.304000,  8.599150
  0.306000,  7.694540
  0.308000,  6.827800
  0.310000,  5.990370
  0.312000,  5.169410
  0.314000,  4.357760
  0.316000,  3.562590
  0.318000,  2.790000
  0.320000,  2.051530
  0.322000,  1.346720
  0.324000,  0.677690
  0.326000,  0.039070
  0.328000, -0.581250
  0.330000, -1.203700
  0.332000, -1.825790
  0.334000, -2.444530
  0.336000, -3.054290
  0.338000, -3.660990
  0.340000, -4.251570
  0.342000, -4.836250
  0.344000, -5.424400
  0.346000, -6.025020
  0.348000, -6.624720
  0.350000, -7.195800
  0.352000, -7.732170
  0.354000, -8.210370
  0.356000, -8.648140
  0.358000, -9.071480
  0.360000, -9.490560
  0.362000, -9.912520
  0.364000,-10.334700
  0.366000,-10.744730
  0.368000,-11.134730
  0.370000,-11.501870
  0.372000,-11.830440
  0.374000,-12.129460
  0.376000,-12.407060
  0.378000,-12.671490
  0.380000,-12.942710
  0.382000,-13.213590
  0.384000,-13.482540
  0.386000,-13.729250
  0.388000,-13.940140
  0.390000,-14.110930
  0.392000,-14.251310
  0.394000,-14.381670
  0.396000,-14.517580
  0.398000,-14.659830
  0.400000,-14.806640
  0.402000,-14.943760
  0.404000,-15.073100
  0.406000,-15.167810
  0.408000,-15.244840
  0.410000,-15.294700
  0.412000,-15.341460
  0.414000,-15.391030
  0.416000,-15.439180
  0.418000,-15.484300
  0.420000,-15.530080
  0.422000,-15.570060
  0.424000,-15.595830
  0.426000,-15.609480
  0.428000,-15.609220
  0.430000,-15.583780
  0.432000,-15.539940
  0.434000,-15.482940
  0.436000,-15.424130
  0.438000,-15.367550
  0.440000,-15.323190
  0.442000,-15.285490
  0.444000,-15.270880
  0.446000,-15.255640
  0.448000,-15.230510
  0.450000,-15.198500
  0.452000,-15.157850
  0.454000,-15.100750
  0.456000,-15.026840
  0.458000,-14.929130
  0.460000,-14.810160
  0.462000,-14.674680
  0.464000,-14.521870
  0.466000,-14.384640
  0.468000,-14.266080
  0.470000,-14.181160
  0.472000,-14.115020
  0.474000,-14.042970
  0.476000,-13.953970
  0.478000,-13.836110
  0.480000,-13.675380
  0.482000,-13.470530
  0.484000,-13.235770
  0.486000,-12.991610
  0.488000,-12.761450
  0.490000,-12.555790
  0.492000,-12.380960
  0.494000,-12.214110
  0.496000,-12.052820
  0.498000,-11.879780
  0.500000,-11.686760
  0.502000,-11.479890
  0.504000,-11.267100
  0.506000,-11.056650
  0.508000,-10.851710
  0.510000,-10.655490
  0.512000,-10.466030
  0.514000,-10.267110
  0.516000,-10.054630
  0.518000, -9.827850
  0.520000, -9.595970
  0.522000, -9.353960
  0.524000, -9.127190
  0.526000, -8.903160
  0.528000, -8.691670
  0.530000, -8.483250
  0.532000, -8.282910
  0.534000, -8.087970
  0.536000, -7.900310
  0.538000, -7.715170
  0.540000, -7.537670
  0.542000, -7.372920
  0.544000, -7.207500
  0.546000, -7.041830
  0.548000, -6.874370
  0.550000, -6.703800
  0.552000, -6.538150
  0.554000, -6.371760
  0.556000, -6.212810
  0.558000, -6.056050
  0.560000, -5.902110
  0.562000, -5.748180
  0.564000, -5.604610
  0.566000, -5.468670
  0.568000, -5.346210
  0.570000, -5.234080
  0.572000, -5.129930
  0.574000, -5.028830
  0.576000, -4.926210
  0.578000, -4.800750
  0.580000, -4.674130
  0.582000, -4.531690
  0.584000, -4.384040
  0.586000, -4.255770
  0.588000, -4.150800
  0.590000, -4.068410
  0.592000, -4.007130
  0.594000, -3.947080
  0.596000, -3.873770
  0.598000, -3.779150
  0.600000, -3.642090
  0.602000, -3.473440
  0.604000, -3.272780
  0.606000, -3.052800
  0.608000, -2.834640
  0.610000, -2.621330
  0.612000, -2.426730
  0.614000, -2.259020
  0.616000, -2.118810
  0.618000, -2.012700
  0.620000, -1.930130
  0.622000, -1.853860
  0.624000, -1.776950
  0.626000, -1.689240
  0.628000, -1.591280
  0.630000, -1.487810
  0.632000, -1.373320
  0.634000, -1.266540
  0.636000, -1.165040
  0.638000, -1.076980
  0.640000, -0.998870
  0.642000, -0.943770
  0.644000, -0.897860
  0.646000, -0.846030
  0.648000, -0.798080
  0.650000, -0.732180
  0.652000, -0.661380
  0.654000, -0.602510
  0.656000, -0.562150
  0.658000, -0.544610
  0.660000, -0.562180
  0.662000, -0.594950
  0.664000, -0.631950
  0.666000, -0.656720
  0.668000, -0.656160
  0.670000, -0.637250
  0.672000, -0.603970
  0.674000, -0.566530
  0.676000, -0.537170
  0.678000, -0.511370
  0.680000, -0.482620
  0.682000, -0.445510
  0.684000, -0.412910
  0.686000, -0.382360
  0.688000, -0.368360
  0.690000, -0.387530
  0.692000, -0.438450
  0.694000, -0.514070
  0.696000, -0.602470
  0.698000, -0.677210
  0.700000, -0.727590
  0.702000, -0.736920
  0.704000, -0.698710
  0.706000, -0.645910
  0.708000, -0.581670
  0.710000, -0.531480
  0.712000, -0.507370
  0.714000, -0.521490
  0.716000, -0.565760
  0.718000, -0.632230
  0.720000, -0.702410
  0.722000, -0.771470
  0.724000, -0.825450
  0.726000, -0.864150
  0.728000, -0.888700
  0.730000, -0.904270
  0.732000, -0.920460
  0.734000, -0.923110
  0.736000, -0.915030
  0.738000, -0.903350
  0.740000, -0.884820
  0.742000, -0.873010
  0.744000, -0.884450
  0.746000, -0.908050
  0.748000, -0.952830
  0.750000, -1.012970
  0.752000, -1.092060
  0.754000, -1.168410
  0.756000, -1.239100
  0.758000, -1.276680
  0.760000, -1.277340
  0.762000, -1.247320
  0.764000, -1.196380
  0.766000, -1.148320
  0.768000, -1.123920
  0.770000, -1.123370
  0.772000, -1.141920
  0.774000, -1.180060
  0.776000, -1.223500
  0.778000, -1.268370
  0.780000, -1.309650
  0.782000, -1.343140
  0.784000, -1.382290
  0.786000, -1.416350
  0.788000, -1.451500
  0.790000, -1.473550
  0.792000, -1.473620
  0.794000, -1.444320
  0.796000, -1.399570
  0.798000, -1.332660
  0.800000, -1.270380
  0.802000, -1.216200
  0.804000, -1.178110
  0.806000, -1.161950
  0.808000, -1.171990
  0.810000, -1.186310
  0.812000, -1.215390
  0.814000, -1.232640
  0.816000, -1.226780
  0.818000, -1.208470
  0.820000, -1.154920
  0.822000, -1.083180
  0.824000, -1.006220
  0.826000, -0.936020
  0.828000, -0.880570
  0.830000, -0.846970
  0.832000, -0.819680
  0.834000, -0.799970
  0.836000, -0.777790
  0.838000, -0.760160
  0.840000, -0.738390
  0.842000, -0.722410
  0.844000, -0.703400
  0.846000, -0.683730
  0.848000, -0.665000
  0.850000, -0.658440
  0.852000, -0.651670
  0.854000, -0.639720
  0.856000, -0.621270
  0.858000, -0.592340
  0.860000, -0.550250
  0.862000, -0.489170
  0.864000, -0.415580
  0.866000, -0.320650
  0.868000, -0.213720
  0.870000, -0.097770
  0.872000, -0.011420
  0.874000,  0.042010
  0.876000,  0.064640
  0.878000,  0.053330
  0.880000,  0.016530
  0.882000, -0.035390
  0.884000, -0.074160
  0.886000, -0.079990
  0.888000, -0.070510
  0.890000, -0.029030
  0.892000,  0.025830
  0.894000,  0.082100
  0.896000,  0.129670
  0.898000,  0.154510
  0.900000,  0.172320
  0.902000,  0.168550
  0.904000,  0.155010
  0.906000,  0.141060
  0.908000,  0.122420
  0.910000,  0.107350
  0.912000,  0.093880
  0.914000,  0.074680
  0.916000,  0.056480
  0.918000,  0.032210
  0.920000,  0.005340
  0.922000, -0.018940
  0.924000, -0.043420
  0.926000, -0.047440
  0.928000, -0.042990
  0.930000, -0.018130
  0.932000,  0.023990
  0.934000,  0.070500
  0.936000,  0.117670
  0.938000,  0.144070
  0.940000,  0.150930
  0.942000,  0.135780
  0.944000,  0.092550
  0.946000,  0.047200
  0.948000,  0.000570
  0.950000, -0.040900
  0.952000, -0.071260
  0.954000, -0.083200
  0.956000, -0.082360
  0.958000, -0.073460
  0.960000, -0.066720
  0.962000, -0.049500
  0.964000, -0.044100
  0.966000, -0.034560
  0.968000, -0.033400
  0.970000, -0.036310
  0.972000, -0.044760
  0.974000, -0.062970
  0.976000, -0.078350
  0.978000, -0.082020
  0.980000, -0.089180
  0.982000, -0.088540
  0.984000, -0.080880
  0.986000, -0.071960
  0.988000, -0.060760
  0.990000, -0.052020
  0.992000, -0.046560
  0.994000, -0.042290
  0.996000, -0.040440
  0.998000, -0.046310
  1.000000, -0.066520
