# z (nm)   (kJ/mol)
  0.070000,274.442410
  0.072000,272.084790
  0.074000,268.575740
  0.076000,265.276340
  0.078000,261.689370
  0.080000,258.762770
  0.082000,255.801070
  0.084000,252.831320
  0.086000,249.823290
  0.088000,246.761290
  0.090000,243.662410
  0.092000,240.474630
  0.094000,237.199590
  0.096000,233.824430
  0.098000,230.340940
  0.100000,226.749800
  0.102000,223.046750
  0.104000,219.232980
  0.106000,215.317790
  0.108000,211.302470
  0.110000,207.200310
  0.112000,203.008100
  0.114000,198.738570
  0.116000,194.401310
  0.118000,190.001130
  0.120000,185.563970
  0.122000,181.113670
  0.124000,176.683670
  0.126000,172.303940
  0.128000,168.011660
  0.130000,163.816930
  0.132000,159.735040
  0.134000,155.755760
  0.136000,151.891980
  0.138000,148.135160
  0.140000,144.491740
  0.142000,140.967260
  0.144000,137.540800
  0.146000,134.180880
  0.148000,130.857380
  0.150000,127.547730
  0.152000,124.252920
  0.154000,120.979730
  0.156000,117.744770
  0.158000,114.561830
  0.160000,111.424510
  0.162000,108.321590
  0.164000,105.240370
  0.166000,102.176050
  0.168000, 99.151900
  0.170000, 96.191160
  0.172000, 93.325960
  0.174000, 90.539690
  0.176000, 87.798260
  0.178000, 85.037410
  0.180000, 82.210140
  0.182000, 79.301680
  0.184000, 76.338840
  0.186000, 73.392270
  0.188000, 70.525480
  0.190000, 67.796090
  0.192000, 65.222710
  0.194000, 62.783810
  0.196000, 60.442160
  0.198000, 58.146400
  0.200000, 55.857320
  0.202000, 53.553930
  0.204000, 51.236870
  0.206000, 48.919330
  0.208000, 46.615260
  0.210000, 44.336400
  0.212000, 42.107590
  0.214000, 39.928140
  0.216000, 37.799960
  0.218000, 35.732550
  0.220000, 33.734470
  0.222000, 31.802040
  0.224000, 29.929900
  0.226000, 28.122400
  0.228000, 26.366900
  0.230000, 24.656220
  0.232000, 22.985770
  0.234000, 21.341980
  0.236000, 19.726340
  0.238000, 18.129660
  0.240000, 16.556550
  0.242000, 15.018520
  0.244000, 13.513050
  0.246000, 12.051140
  0.248000, 10.641240
  0.250000,  9.282330
  0.252000,  7.977110
  0.254000,  6.731620
  0.256000,  5.524050
  0.258000,  4.379340
  0.260000,  3.280710
  0.262000,  2.220640
  0.264000,  1.203180
  0.266000,  0.217600
  0.268000, -0.727420
  0.270000, -1.639650
  0.272000, -2.513120
  0.274000, -3.344220
  0.276000, -4.138660
  0.278000, -4.891300
  0.280000, -5.603070
  0.282000, -6.284070
  0.284000, -6.933660
  0.286000, -7.543780
  0.288000, -8.122610
  0.290000, -8.668320
  0.292000, -9.184110
  0.294000, -9.672590
  0.296000,-10.135800
  0.298000,-10.571060
  0.300000,-10.986490
  0.302000,-11.372330
  0.304000,-11.743120
  0.306000,-12.096220
  0.308000,-12.431370
  0.310000,-12.746040
  0.312000,-13.033640
  0.314000,-13.303770
  0.316000,-13.548270
  0.318000,-13.769580
  0.320000,-13.960620
  0.322000,-14.130160
  0.324000,-14.268310
  0.326000,-14.388970
  0.328000,-14.493160
  0.330000,-14.580440
  0.332000,-14.656440
  0.334000,-14.718700
  0.336000,-14.754670
  0.338000,-14.779030
  0.340000,-14.788930
  0.342000,-14.769380
  0.344000,-14.730470
  0.346000,-14.683990
  0.348000,-14.621340
  0.350000,-14.549370
  0.352000,-14.468740
  0.354000,-14.377040
  0.356000,-14.280080
  0.358000,-14.164600
  0.360000,-14.044430
  0.362000,-13.907740
  0.364000,-13.763800
  0.366000,-13.605270
  0.368000,-13.438190
  0.370000,-13.268730
  0.372000,-13.090780
  0.374000,-12.917900
  0.376000,-12.745050
  0.378000,-12.580660
  0.380000,-12.415190
  0.382000,-12.256910
  0.384000,-12.097760
  0.386000,-11.943220
  0.388000,-11.790530
  0.390000,-11.623410
  0.392000,-11.451600
  0.394000,-11.274170
  0.396000,-11.086390
  0.398000,-10.891720
  0.400000,-10.688870
  0.402000,-10.485070
  0.404000,-10.284590
  0.406000,-10.088760
  0.408000, -9.903700
  0.410000, -9.727270
  0.412000, -9.560270
  0.414000, -9.403890
  0.416000, -9.248110
  0.418000, -9.104470
  0.420000, -8.958250
  0.422000, -8.817150
  0.424000, -8.673090
  0.426000, -8.526330
  0.428000, -8.373060
  0.430000, -8.216130
  0.432000, -8.057920
  0.434000, -7.901540
  0.436000, -7.742900
  0.438000, -7.584900
  0.440000, -7.429150
  0.442000, -7.296990
  0.444000, -7.170250
  0.446000, -7.052260
  0.448000, -6.949540
  0.450000, -6.856150
  0.452000, -6.775580
  0.454000, -6.692660
  0.456000, -6.618540
  0.458000, -6.540680
  0.460000, -6.469120
  0.462000, -6.397590
  0.464000, -6.316370
  0.466000, -6.246370
  0.468000, -6.178960
  0.470000, -6.117980
  0.472000, -6.069000
  0.474000, -6.023620
  0.476000, -5.982800
  0.478000, -5.953530
  0.480000, -5.924380
  0.482000, -5.893980
  0.484000, -5.865100
  0.486000, -5.843300
  0.488000, -5.817380
  0.490000, -5.781080
  0.492000, -5.742020
  0.494000, -5.694030
  0.496000, -5.637170
  0.498000, -5.574610
  0.500000, -5.506490
  0.502000, -5.429440
  0.504000, -5.359050
  0.506000, -5.284240
  0.508000, -5.205800
  0.510000, -5.124350
  0.512000, -5.041890
  0.514000, -4.955050
  0.516000, -4.863720
  0.518000, -4.770290
  0.520000, -4.672130
  0.522000, -4.570510
  0.524000, -4.459990
  0.526000, -4.350740
  0.528000, -4.232240
  0.530000, -4.120350
  0.532000, -3.994870
  0.534000, -3.862020
  0.536000, -3.723990
  0.538000, -3.574070
  0.540000, -3.417280
  0.542000, -3.251940
  0.544000, -3.084370
  0.546000, -2.909620
  0.548000, -2.731570
  0.550000, -2.563660
  0.552000, -2.385910
  0.554000, -2.225830
  0.556000, -2.067160
  0.558000, -1.919250
  0.560000, -1.771300
  0.562000, -1.626830
  0.564000, -1.479160
  0.566000, -1.335930
  0.568000, -1.190220
  0.570000, -1.042610
  0.572000, -0.897680
  0.574000, -0.754150
  0.576000, -0.611940
  0.578000, -0.467730
  0.580000, -0.335530
  0.582000, -0.208650
  0.584000, -0.093200
  0.586000,  0.024080
  0.588000,  0.119020
  0.590000,  0.200350
  0.592000,  0.272710
  0.594000,  0.338380
  0.596000,  0.391000
  0.598000,  0.437040
  0.600000,  0.468630
  0.602000,  0.500710
  0.604000,  0.524540
  0.606000,  0.548760
  0.608000,  0.570500
  0.610000,  0.592030
  0.612000,  0.612600
  0.614000,  0.628490
  0.616000,  0.639740
  0.618000,  0.643430
  0.620000,  0.645330
  0.622000,  0.634350
  0.624000,  0.615370
  0.626000,  0.582570
  0.628000,  0.539010
  0.630000,  0.491780
  0.632000,  0.437100
  0.634000,  0.377880
  0.636000,  0.317720
  0.638000,  0.260500
  0.640000,  0.198410
  0.642000,  0.143750
  0.644000,  0.091090
  0.646000,  0.042520
  0.648000,  0.005020
  0.650000, -0.035560
  0.652000, -0.072490
  0.654000, -0.105720
  0.656000, -0.136540
  0.658000, -0.162290
  0.660000, -0.178490
  0.662000, -0.192980
  0.664000, -0.197320
  0.666000, -0.199050
  0.668000, -0.198390
  0.670000, -0.200960
  0.672000, -0.203410
  0.674000, -0.206380
  0.676000, -0.210680
  0.678000, -0.215690
  0.680000, -0.228190
  0.682000, -0.239960
  0.684000, -0.265240
  0.686000, -0.291630
  0.688000, -0.318650
  0.690000, -0.347880
  0.692000, -0.374460
  0.694000, -0.401580
  0.696000, -0.423560
  0.698000, -0.449900
  0.700000, -0.465030
  0.702000, -0.467500
  0.704000, -0.465730
  0.706000, -0.451130
  0.708000, -0.435120
  0.710000, -0.412070
  0.712000, -0.385510
  0.714000, -0.362080
  0.716000, -0.342320
  0.718000, -0.326770
  0.720000, -0.321980
  0.722000, -0.314520
  0.724000, -0.321640
  0.726000, -0.333380
  0.728000, -0.349100
  0.730000, -0.362290
  0.732000, -0.385960
  0.734000, -0.408540
  0.736000, -0.422100
  0.738000, -0.435070
  0.740000, -0.442290
  0.742000, -0.448130
  0.744000, -0.450010
  0.746000, -0.447050
  0.748000, -0.446950
  0.750000, -0.444490
  0.752000, -0.439430
  0.754000, -0.445140
  0.756000, -0.454040
  0.758000, -0.466110
  0.760000, -0.476560
  0.762000, -0.480990
  0.764000, -0.482860
  0.766000, -0.481220
  0.768000, -0.476430
  0.770000, -0.460360
  0.772000, -0.434940
  0.774000, -0.406300
  0.776000, -0.376010
  0.778000, -0.350880
  0.780000, -0.334030
  0.782000, -0.309410
  0.784000, -0.296750
  0.786000, -0.299670
  0.788000, -0.308100
  0.790000, -0.322250
  0.792000, -0.353520
  0.794000, -0.382860
  0.796000, -0.409410
  0.798000, -0.432320
  0.800000, -0.447540
  0.802000, -0.452570
  0.804000, -0.448370
  0.806000, -0.428980
  0.808000, -0.398100
  0.810000, -0.358800
  0.812000, -0.317790
  0.814000, -0.278490
  0.816000, -0.242950
  0.818000, -0.219000
  0.820000, -0.202650
  0.822000, -0.198500
  0.824000, -0.201930
  0.826000, -0.215160
  0.828000, -0.236720
  0.830000, -0.261980
  0.832000, -0.276730
  0.834000, -0.289830
  0.836000, -0.287030
  0.838000, -0.272060
  0.840000, -0.242240
  0.842000, -0.203220
  0.844000, -0.149960
  0.846000, -0.086810
  0.848000, -0.026820
  0.850000,  0.027320
  0.852000,  0.078810
  0.854000,  0.117130
  0.856000,  0.143660
  0.858000,  0.160750
  0.860000,  0.167430
  0.862000,  0.167380
  0.864000,  0.167250
  0.866000,  0.162580
  0.868000,  0.160340
  0.870000,  0.163150
  0.872000,  0.155970
  0.874000,  0.159230
  0.876000,  0.162480
  0.878000,  0.168440
  0.880000,  0.171090
  0.882000,  0.180580
  0.884000,  0.179540
  0.886000,  0.178060
  0.888000,  0.173610
  0.890000,  0.166000
  0.892000,  0.156080
  0.894000,  0.140190
  0.896000,  0.125170
  0.898000,  0.112550
  0.900000,  0.096580
  0.902000,  0.081500
  0.904000,  0.075530
  0.906000,  0.070580
  0.908000,  0.069460
  0.910000,  0.068640
  0.912000,  0.068840
  0.914000,  0.074590
  0.916000,  0.082010
  0.918000,  0.084450
  0.920000,  0.076280
  0.922000,  0.075970
  0.924000,  0.068810
  0.926000,  0.062650
  0.928000,  0.049120
  0.930000,  0.039020
  0.932000,  0.031630
  0.934000,  0.022280
  0.936000,  0.011610
  0.938000,  0.007430
  0.940000,  0.003400
  0.942000,  0.002530
  0.944000,  0.004740
  0.946000,  0.009870
  0.948000,  0.010740
  0.950000,  0.016680
  0.952000,  0.024630
  0.954000,  0.033520
  0.956000,  0.048470
  0.958000,  0.055230
  0.960000,  0.060800
  0.962000,  0.067610
  0.964000,  0.074420
  0.966000,  0.080980
  0.968000,  0.074300
  0.970000,  0.079400
  0.972000,  0.069060
  0.974000,  0.057310
  0.976000,  0.040020
  0.978000,  0.015630
  0.980000, -0.014830
  0.982000, -0.055030
  0.984000, -0.094150
  0.986000, -0.135490
  0.988000, -0.174260
  0.990000, -0.207220
  0.992000, -0.233840
  0.994000, -0.252850
  0.996000, -0.261840
  0.998000, -0.262590
  1.000000, -0.257620
