# z (nm)   (kJ/mol)
  0.078000,269.393160
  0.080000,266.652720
  0.082000,263.608890
  0.084000,260.530870
  0.086000,257.240600
  0.088000,254.232660
  0.090000,251.260900
  0.092000,248.224300
  0.094000,245.143650
  0.096000,242.002250
  0.098000,238.784640
  0.100000,235.496250
  0.102000,232.116880
  0.104000,228.647680
  0.106000,225.083020
  0.108000,221.427350
  0.110000,217.674780
  0.112000,213.842570
  0.114000,209.933430
  0.116000,205.947050
  0.118000,201.898390
  0.120000,197.782800
  0.122000,193.623600
  0.124000,189.427150
  0.126000,185.196900
  0.128000,180.968050
  0.130000,176.752310
  0.132000,172.570650
  0.134000,168.452380
  0.136000,164.407150
  0.138000,160.446810
  0.140000,156.574790
  0.142000,152.779780
  0.144000,149.052470
  0.146000,145.374240
  0.148000,141.727170
  0.150000,138.123880
  0.152000,134.569910
  0.154000,131.080200
  0.156000,127.663940
  0.158000,124.320630
  0.160000,121.038970
  0.162000,117.794860
  0.164000,114.589000
  0.166000,111.420120
  0.168000,108.300310
  0.170000,105.230220
  0.172000,102.202910
  0.174000, 99.210380
  0.176000, 96.234270
  0.178000, 93.253510
  0.180000, 90.261690
  0.182000, 87.258680
  0.184000, 84.262200
  0.186000, 81.297460
  0.188000, 78.379460
  0.190000, 75.538740
  0.192000, 72.780620
  0.194000, 70.112490
  0.196000, 67.529500
  0.198000, 65.010890
  0.200000, 62.550310
  0.202000, 60.132240
  0.204000, 57.742140
  0.206000, 55.386670
  0.208000, 53.068890
  0.210000, 50.797370
  0.212000, 48.572910
  0.214000, 46.392540
  0.216000, 44.231920
  0.218000, 42.083620
  0.220000, 39.929200
  0.222000, 37.786970
  0.224000, 35.685890
  0.226000, 33.673130
  0.228000, 31.792640
  0.230000, 30.039770
  0.232000, 28.382430
  0.234000, 26.759490
  0.236000, 25.136130
  0.238000, 23.484230
  0.240000, 21.825510
  0.242000, 20.180490
  0.244000, 18.587170
  0.246000, 17.050520
  0.248000, 15.572030
  0.250000, 14.144720
  0.252000, 12.768520
  0.254000, 11.437230
  0.256000, 10.157260
  0.258000,  8.932170
  0.260000,  7.755140
  0.262000,  6.638870
  0.264000,  5.569570
  0.266000,  4.540760
  0.268000,  3.544360
  0.270000,  2.566100
  0.272000,  1.620390
  0.274000,  0.710560
  0.276000, -0.158970
  0.278000, -0.980480
  0.280000, -1.756310
  0.282000, -2.486280
  0.284000, -3.180160
  0.286000, -3.843530
  0.288000, -4.485130
  0.290000, -5.111170
  0.292000, -5.715540
  0.294000, -6.295540
  0.296000, -6.843510
  0.298000, -7.351460
  0.300000, -7.821990
  0.302000, -8.247430
  0.304000, -8.630680
  0.306000, -8.972360
  0.308000, -9.275130
  0.310000, -9.552920
  0.312000, -9.815340
  0.314000,-10.060890
  0.316000,-10.284730
  0.318000,-10.496800
  0.320000,-10.712350
  0.322000,-10.916310
  0.324000,-11.121460
  0.326000,-11.317850
  0.328000,-11.507910
  0.330000,-11.679510
  0.332000,-11.830960
  0.334000,-11.958020
  0.336000,-12.046550
  0.338000,-12.104990
  0.340000,-12.138700
  0.342000,-12.145050
  0.344000,-12.133850
  0.346000,-12.109110
  0.348000,-12.079800
  0.350000,-12.047990
  0.352000,-12.019020
  0.354000,-11.986830
  0.356000,-11.956540
  0.358000,-11.913620
  0.360000,-11.866940
  0.362000,-11.810640
  0.364000,-11.730200
  0.366000,-11.641810
  0.368000,-11.540440
  0.370000,-11.423060
  0.372000,-11.295270
  0.374000,-11.157580
  0.376000,-11.002000
  0.378000,-10.852680
  0.380000,-10.687240
  0.382000,-10.532850
  0.384000,-10.368540
  0.386000,-10.203040
  0.388000,-10.035610
  0.390000, -9.870130
  0.392000, -9.695280
  0.394000, -9.530670
  0.396000, -9.368650
  0.398000, -9.214290
  0.400000, -9.052760
  0.402000, -8.890000
  0.404000, -8.720020
  0.406000, -8.544480
  0.408000, -8.369550
  0.410000, -8.189970
  0.412000, -8.009980
  0.414000, -7.832540
  0.416000, -7.664050
  0.418000, -7.500060
  0.420000, -7.354090
  0.422000, -7.221610
  0.424000, -7.098490
  0.426000, -6.983250
  0.428000, -6.877530
  0.430000, -6.775890
  0.432000, -6.678540
  0.434000, -6.575410
  0.436000, -6.474090
  0.438000, -6.371390
  0.440000, -6.269040
  0.442000, -6.168420
  0.444000, -6.075650
  0.446000, -5.988340
  0.448000, -5.905050
  0.450000, -5.827810
  0.452000, -5.754870
  0.454000, -5.686510
  0.456000, -5.621130
  0.458000, -5.559170
  0.460000, -5.488100
  0.462000, -5.412990
  0.464000, -5.339960
  0.466000, -5.254530
  0.468000, -5.163690
  0.470000, -5.067950
  0.472000, -4.966200
  0.474000, -4.860800
  0.476000, -4.751280
  0.478000, -4.640180
  0.480000, -4.533400
  0.482000, -4.431530
  0.484000, -4.336960
  0.486000, -4.244910
  0.488000, -4.155070
  0.490000, -4.070270
  0.492000, -3.975610
  0.494000, -3.885580
  0.496000, -3.780090
  0.498000, -3.675950
  0.500000, -3.566930
  0.502000, -3.461890
  0.504000, -3.354600
  0.506000, -3.259010
  0.508000, -3.184280
  0.510000, -3.115070
  0.512000, -3.059020
  0.514000, -3.015280
  0.516000, -2.973460
  0.518000, -2.929010
  0.520000, -2.873600
  0.522000, -2.794810
  0.524000, -2.701170
  0.526000, -2.584270
  0.528000, -2.446280
  0.530000, -2.293170
  0.532000, -2.133150
  0.534000, -1.976190
  0.536000, -1.814690
  0.538000, -1.674130
  0.540000, -1.545740
  0.542000, -1.428980
  0.544000, -1.332030
  0.546000, -1.240840
  0.548000, -1.155150
  0.550000, -1.076120
  0.552000, -0.993120
  0.554000, -0.911460
  0.556000, -0.820940
  0.558000, -0.726430
  0.560000, -0.632510
  0.562000, -0.534990
  0.564000, -0.430420
  0.566000, -0.319740
  0.568000, -0.206830
  0.570000, -0.093020
  0.572000,  0.013990
  0.574000,  0.131640
  0.576000,  0.246840
  0.578000,  0.357560
  0.580000,  0.460170
  0.582000,  0.557550
  0.584000,  0.637930
  0.586000,  0.708590
  0.588000,  0.752720
  0.590000,  0.782760
  0.592000,  0.788070
  0.594000,  0.777790
  0.596000,  0.751300
  0.598000,  0.721740
  0.600000,  0.698430
  0.602000,  0.680340
  0.604000,  0.674200
  0.606000,  0.673710
  0.608000,  0.683800
  0.610000,  0.701990
  0.612000,  0.717840
  0.614000,  0.729140
  0.616000,  0.731820
  0.618000,  0.735270
  0.620000,  0.721990
  0.622000,  0.695560
  0.624000,  0.661380
  0.626000,  0.619820
  0.628000,  0.563410
  0.630000,  0.492930
  0.632000,  0.409180
  0.634000,  0.322320
  0.636000,  0.238050
  0.638000,  0.153700
  0.640000,  0.065670
  0.642000, -0.010290
  0.644000, -0.074980
  0.646000, -0.131840
  0.648000, -0.172150
  0.650000, -0.203970
  0.652000, -0.224790
  0.654000, -0.234020
  0.656000, -0.241650
  0.658000, -0.259780
  0.660000, -0.286850
  0.662000, -0.324580
  0.664000, -0.371640
  0.666000, -0.429700
  0.668000, -0.491210
  0.670000, -0.554170
  0.672000, -0.617770
  0.674000, -0.671970
  0.676000, -0.719460
  0.678000, -0.761890
  0.680000, -0.793910
  0.682000, -0.817080
  0.684000, -0.833710
  0.686000, -0.841350
  0.688000, -0.848210
  0.690000, -0.859230
  0.692000, -0.868590
  0.694000, -0.873230
  0.696000, -0.882240
  0.698000, -0.898640
  0.700000, -0.908990
  0.702000, -0.919720
  0.704000, -0.933870
  0.706000, -0.937160
  0.708000, -0.952390
  0.710000, -0.964050
  0.712000, -0.976560
  0.714000, -1.001130
  0.716000, -1.022210
  0.718000, -1.054200
  0.720000, -1.090780
  0.722000, -1.117470
  0.724000, -1.145360
  0.726000, -1.167570
  0.728000, -1.181580
  0.730000, -1.183690
  0.732000, -1.174800
  0.734000, -1.152710
  0.736000, -1.121360
  0.738000, -1.089420
  0.740000, -1.055800
  0.742000, -1.026900
  0.744000, -1.002930
  0.746000, -0.982820
  0.748000, -0.963670
  0.750000, -0.959720
  0.752000, -0.964710
  0.754000, -0.963960
  0.756000, -0.961240
  0.758000, -0.955590
  0.760000, -0.942090
  0.762000, -0.924630
  0.764000, -0.903440
  0.766000, -0.873730
  0.768000, -0.850690
  0.770000, -0.828340
  0.772000, -0.805170
  0.774000, -0.790300
  0.776000, -0.771410
  0.778000, -0.768340
  0.780000, -0.770270
  0.782000, -0.775260
  0.784000, -0.780980
  0.786000, -0.794850
  0.788000, -0.803620
  0.790000, -0.810200
  0.792000, -0.810170
  0.794000, -0.798320
  0.796000, -0.786780
  0.798000, -0.760240
  0.800000, -0.734610
  0.802000, -0.701770
  0.804000, -0.669430
  0.806000, -0.637760
  0.808000, -0.609750
  0.810000, -0.586630
  0.812000, -0.567820
  0.814000, -0.553330
  0.816000, -0.555240
  0.818000, -0.562500
  0.820000, -0.575390
  0.822000, -0.592350
  0.824000, -0.600150
  0.826000, -0.613960
  0.828000, -0.618610
  0.830000, -0.614300
  0.832000, -0.598460
  0.834000, -0.573120
  0.836000, -0.533390
  0.838000, -0.489870
  0.840000, -0.445020
  0.842000, -0.398320
  0.844000, -0.354580
  0.846000, -0.321830
  0.848000, -0.302770
  0.850000, -0.290060
  0.852000, -0.292990
  0.854000, -0.305100
  0.856000, -0.327400
  0.858000, -0.351740
  0.860000, -0.372880
  0.862000, -0.395110
  0.864000, -0.409080
  0.866000, -0.410830
  0.868000, -0.403780
  0.870000, -0.391210
  0.872000, -0.365910
  0.874000, -0.337830
  0.876000, -0.306400
  0.878000, -0.272590
  0.880000, -0.242330
  0.882000, -0.214810
  0.884000, -0.193880
  0.886000, -0.176900
  0.888000, -0.169560
  0.890000, -0.167720
  0.892000, -0.171520
  0.894000, -0.178900
  0.896000, -0.186930
  0.898000, -0.192110
  0.900000, -0.200890
  0.902000, -0.196310
  0.904000, -0.190520
  0.906000, -0.175960
  0.908000, -0.158880
  0.910000, -0.142100
  0.912000, -0.131680
  0.914000, -0.118900
  0.916000, -0.115690
  0.918000, -0.117710
  0.920000, -0.122700
  0.922000, -0.126880
  0.924000, -0.127400
  0.926000, -0.126670
  0.928000, -0.116190
  0.930000, -0.100230
  0.932000, -0.065970
  0.934000, -0.020850
  0.936000,  0.020950
  0.938000,  0.065200
  0.940000,  0.104410
  0.942000,  0.131180
  0.944000,  0.143760
  0.946000,  0.145140
  0.948000,  0.125080
  0.950000,  0.087600
  0.952000,  0.051730
  0.954000,  0.010340
  0.956000, -0.024750
  0.958000, -0.055670
  0.960000, -0.065250
  0.962000, -0.065210
  0.964000, -0.049780
  0.966000, -0.019740
  0.968000,  0.016730
  0.970000,  0.057300
  0.972000,  0.093630
  0.974000,  0.128310
  0.976000,  0.156500
  0.978000,  0.168070
  0.980000,  0.173980
  0.982000,  0.171520
  0.984000,  0.153010
  0.986000,  0.138620
  0.988000,  0.112700
  0.990000,  0.091320
  0.992000,  0.066070
  0.994000,  0.038300
  0.996000,  0.011140
  0.998000, -0.009370
  1.000000, -0.018170
