# z (nm)   (kJ/mol)
  0.070000,268.786100
  0.072000,265.390410
  0.074000,263.447670
  0.076000,260.680660
  0.078000,257.823570
  0.080000,254.682400
  0.082000,251.668370
  0.084000,248.801320
  0.086000,245.881170
  0.088000,242.915910
  0.090000,239.898130
  0.092000,236.802970
  0.094000,233.632380
  0.096000,230.374940
  0.098000,227.020010
  0.100000,223.555980
  0.102000,219.984420
  0.104000,216.304760
  0.106000,212.518860
  0.108000,208.632570
  0.110000,204.651040
  0.112000,200.581670
  0.114000,196.429920
  0.116000,192.205520
  0.118000,187.918520
  0.120000,183.582520
  0.122000,179.229610
  0.124000,174.894700
  0.126000,170.606160
  0.128000,166.391100
  0.130000,162.254970
  0.132000,158.199250
  0.134000,154.229780
  0.136000,150.337470
  0.138000,146.543130
  0.140000,142.844880
  0.142000,139.245470
  0.144000,135.739040
  0.146000,132.307050
  0.148000,128.940720
  0.150000,125.622950
  0.152000,122.331900
  0.154000,119.046300
  0.156000,115.752160
  0.158000,112.429800
  0.160000,109.085450
  0.162000,105.743980
  0.164000,102.441580
  0.166000, 99.216990
  0.168000, 96.099050
  0.170000, 93.086260
  0.172000, 90.166500
  0.174000, 87.302490
  0.176000, 84.463760
  0.178000, 81.622000
  0.180000, 78.774440
  0.182000, 75.914790
  0.184000, 73.071370
  0.186000, 70.260890
  0.188000, 67.498380
  0.190000, 64.789940
  0.192000, 62.134280
  0.194000, 59.528980
  0.196000, 56.961280
  0.198000, 54.431310
  0.200000, 51.945250
  0.202000, 49.519570
  0.204000, 47.179680
  0.206000, 44.935800
  0.208000, 42.783290
  0.210000, 40.715880
  0.212000, 38.704320
  0.214000, 36.722500
  0.216000, 34.738900
  0.218000, 32.737620
  0.220000, 30.712090
  0.222000, 28.676520
  0.224000, 26.658980
  0.226000, 24.683330
  0.228000, 22.783790
  0.230000, 20.970030
  0.232000, 19.249710
  0.234000, 17.622770
  0.236000, 16.064200
  0.238000, 14.562040
  0.240000, 13.107220
  0.242000, 11.677440
  0.244000, 10.272790
  0.246000,  8.897330
  0.248000,  7.551710
  0.250000,  6.234830
  0.252000,  4.962260
  0.254000,  3.730700
  0.256000,  2.529200
  0.258000,  1.373530
  0.260000,  0.265010
  0.262000, -0.790410
  0.264000, -1.791340
  0.266000, -2.739050
  0.268000, -3.630550
  0.270000, -4.476850
  0.272000, -5.290270
  0.274000, -6.077240
  0.276000, -6.838410
  0.278000, -7.577900
  0.280000, -8.291740
  0.282000, -8.979570
  0.284000, -9.637180
  0.286000,-10.240460
  0.288000,-10.789870
  0.290000,-11.299500
  0.292000,-11.760020
  0.294000,-12.188170
  0.296000,-12.574780
  0.298000,-12.937020
  0.300000,-13.268830
  0.302000,-13.577250
  0.304000,-13.854850
  0.306000,-14.097980
  0.308000,-14.315920
  0.310000,-14.505910
  0.312000,-14.677540
  0.314000,-14.822980
  0.316000,-14.947480
  0.318000,-15.065710
  0.320000,-15.172910
  0.322000,-15.274230
  0.324000,-15.359380
  0.326000,-15.433400
  0.328000,-15.485050
  0.330000,-15.523240
  0.332000,-15.532170
  0.334000,-15.512700
  0.336000,-15.469660
  0.338000,-15.405370
  0.340000,-15.317870
  0.342000,-15.214740
  0.344000,-15.104960
  0.346000,-14.986910
  0.348000,-14.863910
  0.350000,-14.742850
  0.352000,-14.619840
  0.354000,-14.491590
  0.356000,-14.356170
  0.358000,-14.206010
  0.360000,-14.028260
  0.362000,-13.836940
  0.364000,-13.623630
  0.366000,-13.386160
  0.368000,-13.141460
  0.370000,-12.881910
  0.372000,-12.621940
  0.374000,-12.358860
  0.376000,-12.111240
  0.378000,-11.871360
  0.380000,-11.646880
  0.382000,-11.438110
  0.384000,-11.240100
  0.386000,-11.046280
  0.388000,-10.852970
  0.390000,-10.667540
  0.392000,-10.473880
  0.394000,-10.267540
  0.396000,-10.053750
  0.398000, -9.831350
  0.400000, -9.609090
  0.402000, -9.393550
  0.404000, -9.190030
  0.406000, -8.996700
  0.408000, -8.820740
  0.410000, -8.674790
  0.412000, -8.543540
  0.414000, -8.432180
  0.416000, -8.346920
  0.418000, -8.266920
  0.420000, -8.199360
  0.422000, -8.126220
  0.424000, -8.046130
  0.426000, -7.956250
  0.428000, -7.854080
  0.430000, -7.743080
  0.432000, -7.628620
  0.434000, -7.510910
  0.436000, -7.393570
  0.438000, -7.280380
  0.440000, -7.174800
  0.442000, -7.066400
  0.444000, -6.964520
  0.446000, -6.866610
  0.448000, -6.772190
  0.450000, -6.684640
  0.452000, -6.598620
  0.454000, -6.518580
  0.456000, -6.444680
  0.458000, -6.373460
  0.460000, -6.311240
  0.462000, -6.260710
  0.464000, -6.200420
  0.466000, -6.137720
  0.468000, -6.069820
  0.470000, -5.992490
  0.472000, -5.904070
  0.474000, -5.812770
  0.476000, -5.712750
  0.478000, -5.618830
  0.480000, -5.522770
  0.482000, -5.427550
  0.484000, -5.343470
  0.486000, -5.259620
  0.488000, -5.178560
  0.490000, -5.091900
  0.492000, -5.003750
  0.494000, -4.917360
  0.496000, -4.829320
  0.498000, -4.732580
  0.500000, -4.630840
  0.502000, -4.546570
  0.504000, -4.459990
  0.506000, -4.380620
  0.508000, -4.307410
  0.510000, -4.238320
  0.512000, -4.175050
  0.514000, -4.114540
  0.516000, -4.064120
  0.518000, -4.010820
  0.520000, -3.960450
  0.522000, -3.902460
  0.524000, -3.847690
  0.526000, -3.790960
  0.528000, -3.731320
  0.530000, -3.665790
  0.532000, -3.601190
  0.534000, -3.536490
  0.536000, -3.471200
  0.538000, -3.405420
  0.540000, -3.342650
  0.542000, -3.279580
  0.544000, -3.224270
  0.546000, -3.153740
  0.548000, -3.077980
  0.550000, -2.990960
  0.552000, -2.897660
  0.554000, -2.805430
  0.556000, -2.697060
  0.558000, -2.587650
  0.560000, -2.472340
  0.562000, -2.349650
  0.564000, -2.227740
  0.566000, -2.110530
  0.568000, -1.994820
  0.570000, -1.880540
  0.572000, -1.766020
  0.574000, -1.651040
  0.576000, -1.531720
  0.578000, -1.416230
  0.580000, -1.299160
  0.582000, -1.180240
  0.584000, -1.063140
  0.586000, -0.946510
  0.588000, -0.832520
  0.590000, -0.733380
  0.592000, -0.651670
  0.594000, -0.590940
  0.596000, -0.541520
  0.598000, -0.506700
  0.600000, -0.483810
  0.602000, -0.461690
  0.604000, -0.439490
  0.606000, -0.414870
  0.608000, -0.387870
  0.610000, -0.358890
  0.612000, -0.330010
  0.614000, -0.311730
  0.616000, -0.302370
  0.618000, -0.294170
  0.620000, -0.313100
  0.622000, -0.334730
  0.624000, -0.375750
  0.626000, -0.415980
  0.628000, -0.463370
  0.630000, -0.504310
  0.632000, -0.537130
  0.634000, -0.564530
  0.636000, -0.582210
  0.638000, -0.603080
  0.640000, -0.623730
  0.642000, -0.643380
  0.644000, -0.667420
  0.646000, -0.690650
  0.648000, -0.717240
  0.650000, -0.747280
  0.652000, -0.774420
  0.654000, -0.812280
  0.656000, -0.846360
  0.658000, -0.878640
  0.660000, -0.912750
  0.662000, -0.950500
  0.664000, -0.982700
  0.666000, -1.011490
  0.668000, -1.043090
  0.670000, -1.074070
  0.672000, -1.102140
  0.674000, -1.127050
  0.676000, -1.147250
  0.678000, -1.167020
  0.680000, -1.188530
  0.682000, -1.204460
  0.684000, -1.222030
  0.686000, -1.243030
  0.688000, -1.265820
  0.690000, -1.288330
  0.692000, -1.316000
  0.694000, -1.341360
  0.696000, -1.360730
  0.698000, -1.373390
  0.700000, -1.378710
  0.702000, -1.376120
  0.704000, -1.363140
  0.706000, -1.338360
  0.708000, -1.306600
  0.710000, -1.271630
  0.712000, -1.236650
  0.714000, -1.213260
  0.716000, -1.198590
  0.718000, -1.199250
  0.720000, -1.209010
  0.722000, -1.232720
  0.724000, -1.259320
  0.726000, -1.283620
  0.728000, -1.301020
  0.730000, -1.306950
  0.732000, -1.306450
  0.734000, -1.295930
  0.736000, -1.276220
  0.738000, -1.250120
  0.740000, -1.210630
  0.742000, -1.167250
  0.744000, -1.118280
  0.746000, -1.066570
  0.748000, -1.019190
  0.750000, -0.973420
  0.752000, -0.936830
  0.754000, -0.905950
  0.756000, -0.883780
  0.758000, -0.877040
  0.760000, -0.878530
  0.762000, -0.884580
  0.764000, -0.896610
  0.766000, -0.910650
  0.768000, -0.936780
  0.770000, -0.955390
  0.772000, -0.975880
  0.774000, -0.990200
  0.776000, -0.993720
  0.778000, -0.994430
  0.780000, -0.986850
  0.782000, -0.967770
  0.784000, -0.931590
  0.786000, -0.900520
  0.788000, -0.865660
  0.790000, -0.820730
  0.792000, -0.771130
  0.794000, -0.724680
  0.796000, -0.684620
  0.798000, -0.642940
  0.800000, -0.601720
  0.802000, -0.561830
  0.804000, -0.529000
  0.806000, -0.499040
  0.808000, -0.474470
  0.810000, -0.467130
  0.812000, -0.468780
  0.814000, -0.477130
  0.816000, -0.482270
  0.818000, -0.478630
  0.820000, -0.468500
  0.822000, -0.439670
  0.824000, -0.403770
  0.826000, -0.353070
  0.828000, -0.305070
  0.830000, -0.262750
  0.832000, -0.232960
  0.834000, -0.216650
  0.836000, -0.219870
  0.838000, -0.234450
  0.840000, -0.251330
  0.842000, -0.261740
  0.844000, -0.263940
  0.846000, -0.255630
  0.848000, -0.241330
  0.850000, -0.216270
  0.852000, -0.188140
  0.854000, -0.164580
  0.856000, -0.146400
  0.858000, -0.137880
  0.860000, -0.135880
  0.862000, -0.142430
  0.864000, -0.154200
  0.866000, -0.160180
  0.868000, -0.167490
  0.870000, -0.161580
  0.872000, -0.156310
  0.874000, -0.139360
  0.876000, -0.113350
  0.878000, -0.093200
  0.880000, -0.071500
  0.882000, -0.046590
  0.884000, -0.026960
  0.886000, -0.006980
  0.888000,  0.017650
  0.890000,  0.030470
  0.892000,  0.042860
  0.894000,  0.049470
  0.896000,  0.049380
  0.898000,  0.048880
  0.900000,  0.047970
  0.902000,  0.039610
  0.904000,  0.027850
  0.906000,  0.012560
  0.908000,  0.002290
  0.910000, -0.008060
  0.912000, -0.020420
  0.914000, -0.032920
  0.916000, -0.042690
  0.918000, -0.045010
  0.920000, -0.047020
  0.922000, -0.037930
  0.924000, -0.031840
  0.926000, -0.018940
  0.928000, -0.010870
  0.930000,  0.006380
  0.932000,  0.019190
  0.934000,  0.029640
  0.936000,  0.035960
  0.938000,  0.040270
  0.940000,  0.048310
  0.942000,  0.053720
  0.944000,  0.060180
  0.946000,  0.051720
  0.948000,  0.037880
  0.950000,  0.024110
  0.952000,  0.008110
  0.954000, -0.010490
  0.956000, -0.031300
  0.958000, -0.035320
  0.960000, -0.038110
  0.962000, -0.018520
  0.964000, -0.007210
  0.966000,  0.016700
  0.968000,  0.033130
  0.970000,  0.050710
  0.972000,  0.062660
  0.974000,  0.067010
  0.976000,  0.060600
  0.978000,  0.047140
  0.980000,  0.025830
  0.982000,  0.007070
  0.984000, -0.007670
  0.986000, -0.022220
  0.988000, -0.030890
  0.990000, -0.033080
  0.992000, -0.037810
  0.994000, -0.044650
  0.996000, -0.057170
  0.998000, -0.080570
  1.000000, -0.117900
