# z (nm)   (kJ/mol)
  0.068000,270.917570
  0.070000,267.564650
  0.072000,264.482730
  0.074000,261.869750
  0.076000,259.116470
  0.078000,256.419480
  0.080000,253.772690
  0.082000,251.014030
  0.084000,248.239110
  0.086000,245.448260
  0.088000,242.609850
  0.090000,239.692740
  0.092000,236.724120
  0.094000,233.678150
  0.096000,230.547320
  0.098000,227.325990
  0.100000,224.017690
  0.102000,220.615990
  0.104000,217.118950
  0.106000,213.527550
  0.108000,209.833260
  0.110000,206.041490
  0.112000,202.154280
  0.114000,198.170760
  0.116000,194.092840
  0.118000,189.924110
  0.120000,185.682880
  0.122000,181.372270
  0.124000,177.006180
  0.126000,172.596930
  0.128000,168.175290
  0.130000,163.788280
  0.132000,159.502110
  0.134000,155.360050
  0.136000,151.382810
  0.138000,147.556880
  0.140000,143.861010
  0.142000,140.268360
  0.144000,136.749820
  0.146000,133.273490
  0.148000,129.817830
  0.150000,126.377240
  0.152000,122.952580
  0.154000,119.583930
  0.156000,116.290740
  0.158000,113.086020
  0.160000,109.955170
  0.162000,106.876030
  0.164000,103.820650
  0.166000,100.758570
  0.168000, 97.690600
  0.170000, 94.612130
  0.172000, 91.536620
  0.174000, 88.483450
  0.176000, 85.470450
  0.178000, 82.518310
  0.180000, 79.628700
  0.182000, 76.807830
  0.184000, 74.034280
  0.186000, 71.281740
  0.188000, 68.529250
  0.190000, 65.758720
  0.192000, 62.985180
  0.194000, 60.223010
  0.196000, 57.511840
  0.198000, 54.913560
  0.200000, 52.432330
  0.202000, 50.078780
  0.204000, 47.820660
  0.206000, 45.614960
  0.208000, 43.423440
  0.210000, 41.222930
  0.212000, 39.002350
  0.214000, 36.772840
  0.216000, 34.556270
  0.218000, 32.376080
  0.220000, 30.255680
  0.222000, 28.223750
  0.224000, 26.292860
  0.226000, 24.441690
  0.228000, 22.657550
  0.230000, 20.922910
  0.232000, 19.223090
  0.234000, 17.539940
  0.236000, 15.888480
  0.238000, 14.271050
  0.240000, 12.698700
  0.242000, 11.185360
  0.244000,  9.727040
  0.246000,  8.321500
  0.248000,  6.960960
  0.250000,  5.656240
  0.252000,  4.399080
  0.254000,  3.190690
  0.256000,  2.028360
  0.258000,  0.916850
  0.260000, -0.149380
  0.262000, -1.170270
  0.264000, -2.156530
  0.266000, -3.120660
  0.268000, -4.063270
  0.270000, -4.971780
  0.272000, -5.844230
  0.274000, -6.668220
  0.276000, -7.433940
  0.278000, -8.132670
  0.280000, -8.765110
  0.282000, -9.346850
  0.284000, -9.895780
  0.286000,-10.411500
  0.288000,-10.924070
  0.290000,-11.435840
  0.292000,-11.946280
  0.294000,-12.448110
  0.296000,-12.923290
  0.298000,-13.366390
  0.300000,-13.750610
  0.302000,-14.079540
  0.304000,-14.345890
  0.306000,-14.554450
  0.308000,-14.723250
  0.310000,-14.853630
  0.312000,-14.976670
  0.314000,-15.093800
  0.316000,-15.208840
  0.318000,-15.331290
  0.320000,-15.454150
  0.322000,-15.577840
  0.324000,-15.699720
  0.326000,-15.813300
  0.328000,-15.911720
  0.330000,-15.994200
  0.332000,-16.053930
  0.334000,-16.092010
  0.336000,-16.094550
  0.338000,-16.076130
  0.340000,-16.046100
  0.342000,-15.992370
  0.344000,-15.921810
  0.346000,-15.828840
  0.348000,-15.723810
  0.350000,-15.598610
  0.352000,-15.463090
  0.354000,-15.322700
  0.356000,-15.174040
  0.358000,-15.020250
  0.360000,-14.851940
  0.362000,-14.682660
  0.364000,-14.502910
  0.366000,-14.324570
  0.368000,-14.144410
  0.370000,-13.956550
  0.372000,-13.763200
  0.374000,-13.557170
  0.376000,-13.340430
  0.378000,-13.117550
  0.380000,-12.884450
  0.382000,-12.644850
  0.384000,-12.407010
  0.386000,-12.168340
  0.388000,-11.939200
  0.390000,-11.710170
  0.392000,-11.497000
  0.394000,-11.291870
  0.396000,-11.110250
  0.398000,-10.937800
  0.400000,-10.775810
  0.402000,-10.621630
  0.404000,-10.475570
  0.406000,-10.317330
  0.408000,-10.154450
  0.410000, -9.978830
  0.412000, -9.792080
  0.414000, -9.598070
  0.416000, -9.405920
  0.418000, -9.214310
  0.420000, -9.041300
  0.422000, -8.883670
  0.424000, -8.740900
  0.426000, -8.614080
  0.428000, -8.495580
  0.430000, -8.385260
  0.432000, -8.273410
  0.434000, -8.159860
  0.436000, -8.042130
  0.438000, -7.926130
  0.440000, -7.807800
  0.442000, -7.690970
  0.444000, -7.582650
  0.446000, -7.473700
  0.448000, -7.372650
  0.450000, -7.271800
  0.452000, -7.182620
  0.454000, -7.095690
  0.456000, -7.009130
  0.458000, -6.916430
  0.460000, -6.815050
  0.462000, -6.700430
  0.464000, -6.586810
  0.466000, -6.468510
  0.468000, -6.348480
  0.470000, -6.227350
  0.472000, -6.119800
  0.474000, -6.019500
  0.476000, -5.931580
  0.478000, -5.858590
  0.480000, -5.793890
  0.482000, -5.735410
  0.484000, -5.685460
  0.486000, -5.631650
  0.488000, -5.587260
  0.490000, -5.537410
  0.492000, -5.484870
  0.494000, -5.423030
  0.496000, -5.365920
  0.498000, -5.302470
  0.500000, -5.235420
  0.502000, -5.157760
  0.504000, -5.091080
  0.506000, -5.017900
  0.508000, -4.953460
  0.510000, -4.893310
  0.512000, -4.841010
  0.514000, -4.794300
  0.516000, -4.756290
  0.518000, -4.735620
  0.520000, -4.713050
  0.522000, -4.691480
  0.524000, -4.666140
  0.526000, -4.629830
  0.528000, -4.581140
  0.530000, -4.519510
  0.532000, -4.442830
  0.534000, -4.353570
  0.536000, -4.254570
  0.538000, -4.152060
  0.540000, -4.042640
  0.542000, -3.930290
  0.544000, -3.821870
  0.546000, -3.701830
  0.548000, -3.586780
  0.550000, -3.469590
  0.552000, -3.345000
  0.554000, -3.218240
  0.556000, -3.080900
  0.558000, -2.934380
  0.560000, -2.786180
  0.562000, -2.635270
  0.564000, -2.475080
  0.566000, -2.318850
  0.568000, -2.164100
  0.570000, -2.004930
  0.572000, -1.844520
  0.574000, -1.684980
  0.576000, -1.535410
  0.578000, -1.383680
  0.580000, -1.244470
  0.582000, -1.110930
  0.584000, -0.992290
  0.586000, -0.877210
  0.588000, -0.771540
  0.590000, -0.675950
  0.592000, -0.583970
  0.594000, -0.498800
  0.596000, -0.422770
  0.598000, -0.352670
  0.600000, -0.288830
  0.602000, -0.237080
  0.604000, -0.190140
  0.606000, -0.145300
  0.608000, -0.110560
  0.610000, -0.080830
  0.612000, -0.056120
  0.614000, -0.035990
  0.616000, -0.016100
  0.618000,  0.000890
  0.620000,  0.018120
  0.622000,  0.027630
  0.624000,  0.025260
  0.626000,  0.017560
  0.628000,  0.003060
  0.630000, -0.023810
  0.632000, -0.049650
  0.634000, -0.077760
  0.636000, -0.112750
  0.638000, -0.141160
  0.640000, -0.170580
  0.642000, -0.188270
  0.644000, -0.205610
  0.646000, -0.220810
  0.648000, -0.231670
  0.650000, -0.249800
  0.652000, -0.267760
  0.654000, -0.287890
  0.656000, -0.312860
  0.658000, -0.339750
  0.660000, -0.361060
  0.662000, -0.380030
  0.664000, -0.396420
  0.666000, -0.407000
  0.668000, -0.416000
  0.670000, -0.415010
  0.672000, -0.429450
  0.674000, -0.441820
  0.676000, -0.454230
  0.678000, -0.474790
  0.680000, -0.494050
  0.682000, -0.514160
  0.684000, -0.529280
  0.686000, -0.543820
  0.688000, -0.542640
  0.690000, -0.540580
  0.692000, -0.531790
  0.694000, -0.519490
  0.696000, -0.512700
  0.698000, -0.507740
  0.700000, -0.512910
  0.702000, -0.530420
  0.704000, -0.559030
  0.706000, -0.591590
  0.708000, -0.635830
  0.710000, -0.681570
  0.712000, -0.719630
  0.714000, -0.754990
  0.716000, -0.773750
  0.718000, -0.787530
  0.720000, -0.796310
  0.722000, -0.795700
  0.724000, -0.786920
  0.726000, -0.771920
  0.728000, -0.758830
  0.730000, -0.742150
  0.732000, -0.733210
  0.734000, -0.724550
  0.736000, -0.722590
  0.738000, -0.724250
  0.740000, -0.735410
  0.742000, -0.750820
  0.744000, -0.774140
  0.746000, -0.800190
  0.748000, -0.826220
  0.750000, -0.848420
  0.752000, -0.871370
  0.754000, -0.891730
  0.756000, -0.889710
  0.758000, -0.884000
  0.760000, -0.872840
  0.762000, -0.852400
  0.764000, -0.829380
  0.766000, -0.798560
  0.768000, -0.763810
  0.770000, -0.734200
  0.772000, -0.707040
  0.774000, -0.680980
  0.776000, -0.666210
  0.778000, -0.660200
  0.780000, -0.659800
  0.782000, -0.667020
  0.784000, -0.682050
  0.786000, -0.703980
  0.788000, -0.725630
  0.790000, -0.741360
  0.792000, -0.755450
  0.794000, -0.763860
  0.796000, -0.762420
  0.798000, -0.753090
  0.800000, -0.734700
  0.802000, -0.715900
  0.804000, -0.696460
  0.806000, -0.671790
  0.808000, -0.649920
  0.810000, -0.631310
  0.812000, -0.615570
  0.814000, -0.599810
  0.816000, -0.581020
  0.818000, -0.562300
  0.820000, -0.546930
  0.822000, -0.524140
  0.824000, -0.503930
  0.826000, -0.484240
  0.828000, -0.462240
  0.830000, -0.441050
  0.832000, -0.426430
  0.834000, -0.411580
  0.836000, -0.396670
  0.838000, -0.382350
  0.840000, -0.372220
  0.842000, -0.354980
  0.844000, -0.347140
  0.846000, -0.332630
  0.848000, -0.324940
  0.850000, -0.313960
  0.852000, -0.313320
  0.854000, -0.305500
  0.856000, -0.304820
  0.858000, -0.307060
  0.860000, -0.306820
  0.862000, -0.310370
  0.864000, -0.309180
  0.866000, -0.304280
  0.868000, -0.288330
  0.870000, -0.261880
  0.872000, -0.231180
  0.874000, -0.188900
  0.876000, -0.143260
  0.878000, -0.086990
  0.880000, -0.031130
  0.882000,  0.020060
  0.884000,  0.058470
  0.886000,  0.084610
  0.888000,  0.098240
  0.890000,  0.096230
  0.892000,  0.087930
  0.894000,  0.064570
  0.896000,  0.043470
  0.898000,  0.021440
  0.900000,  0.004080
  0.902000, -0.000080
  0.904000,  0.006850
  0.906000,  0.019620
  0.908000,  0.043580
  0.910000,  0.075720
  0.912000,  0.108740
  0.914000,  0.142020
  0.916000,  0.182140
  0.918000,  0.205120
  0.920000,  0.222180
  0.922000,  0.226300
  0.924000,  0.222930
  0.926000,  0.213990
  0.928000,  0.194650
  0.930000,  0.169450
  0.932000,  0.146200
  0.934000,  0.122470
  0.936000,  0.105670
  0.938000,  0.087970
  0.940000,  0.069420
  0.942000,  0.060860
  0.944000,  0.057410
  0.946000,  0.062800
  0.948000,  0.075160
  0.950000,  0.089470
  0.952000,  0.102710
  0.954000,  0.120370
  0.956000,  0.130460
  0.958000,  0.136320
  0.960000,  0.140880
  0.962000,  0.143270
  0.964000,  0.133780
  0.966000,  0.119260
  0.968000,  0.093920
  0.970000,  0.064360
  0.972000,  0.030090
  0.974000, -0.009700
  0.976000, -0.047520
  0.978000, -0.092690
  0.980000, -0.141330
  0.982000, -0.188670
  0.984000, -0.233220
  0.986000, -0.279600
  0.988000, -0.335990
  0.990000, -0.389270
  0.992000, -0.436440
  0.994000, -0.475630
  0.996000, -0.497970
  0.998000, -0.503400
  1.000000, -0.494620
