# z (nm)   (kJ/mol)
  0.100000,271.899800
  0.102000,268.340510
  0.104000,265.163780
  0.106000,262.235320
  0.108000,259.220520
  0.110000,256.193830
  0.112000,253.156330
  0.114000,250.121930
  0.116000,247.031810
  0.118000,243.875550
  0.120000,240.633370
  0.122000,237.297310
  0.124000,233.859340
  0.126000,230.295520
  0.128000,226.603870
  0.130000,222.781440
  0.132000,218.832770
  0.134000,214.765800
  0.136000,210.597460
  0.138000,206.348800
  0.140000,202.037210
  0.142000,197.682030
  0.144000,193.285510
  0.146000,188.872510
  0.148000,184.460180
  0.150000,180.074220
  0.152000,175.770980
  0.154000,171.592890
  0.156000,167.557980
  0.158000,163.647570
  0.160000,159.829620
  0.162000,156.051900
  0.164000,152.286940
  0.166000,148.532790
  0.168000,144.803790
  0.170000,141.127580
  0.172000,137.521850
  0.174000,134.003810
  0.176000,130.571480
  0.178000,127.212580
  0.180000,123.910430
  0.182000,120.654960
  0.184000,117.433110
  0.186000,114.241790
  0.188000,111.083170
  0.190000,107.958530
  0.192000,104.867990
  0.194000,101.821180
  0.196000, 98.809720
  0.198000, 95.829030
  0.200000, 92.874960
  0.202000, 89.954310
  0.204000, 87.065620
  0.206000, 84.197070
  0.208000, 81.363440
  0.210000, 78.561410
  0.212000, 75.799740
  0.214000, 73.095750
  0.216000, 70.450910
  0.218000, 67.868510
  0.220000, 65.346860
  0.222000, 62.879270
  0.224000, 60.457480
  0.226000, 58.069700
  0.228000, 55.723400
  0.230000, 53.430620
  0.232000, 51.198110
  0.234000, 49.020730
  0.236000, 46.910500
  0.238000, 44.861360
  0.240000, 42.872220
  0.242000, 40.920350
  0.244000, 38.995500
  0.246000, 37.090040
  0.248000, 35.201430
  0.250000, 33.330120
  0.252000, 31.480520
  0.254000, 29.668910
  0.256000, 27.910530
  0.258000, 26.203580
  0.260000, 24.569100
  0.262000, 23.000270
  0.264000, 21.499140
  0.266000, 20.063240
  0.268000, 18.672360
  0.270000, 17.323440
  0.272000, 16.002920
  0.274000, 14.707940
  0.276000, 13.436700
  0.278000, 12.181060
  0.280000, 10.958650
  0.282000,  9.778440
  0.284000,  8.633320
  0.286000,  7.540450
  0.288000,  6.499610
  0.290000,  5.502060
  0.292000,  4.562800
  0.294000,  3.673410
  0.296000,  2.827130
  0.298000,  2.017170
  0.300000,  1.238800
  0.302000,  0.494020
  0.304000, -0.215130
  0.306000, -0.895950
  0.308000, -1.557250
  0.310000, -2.184810
  0.312000, -2.778470
  0.314000, -3.353200
  0.316000, -3.890620
  0.318000, -4.395290
  0.320000, -4.870920
  0.322000, -5.318260
  0.324000, -5.738300
  0.326000, -6.144350
  0.328000, -6.525680
  0.330000, -6.883830
  0.332000, -7.228380
  0.334000, -7.557010
  0.336000, -7.862910
  0.338000, -8.147490
  0.340000, -8.408520
  0.342000, -8.648180
  0.344000, -8.867150
  0.346000, -9.063480
  0.348000, -9.240280
  0.350000, -9.403080
  0.352000, -9.558410
  0.354000, -9.698590
  0.356000, -9.826850
  0.358000, -9.940220
  0.360000,-10.043550
  0.362000,-10.137390
  0.364000,-10.215170
  0.366000,-10.282610
  0.368000,-10.332990
  0.370000,-10.369150
  0.372000,-10.399380
  0.374000,-10.420060
  0.376000,-10.433740
  0.378000,-10.429350
  0.380000,-10.411620
  0.382000,-10.386280
  0.384000,-10.356480
  0.386000,-10.310360
  0.388000,-10.248160
  0.390000,-10.184260
  0.392000,-10.114830
  0.394000,-10.032440
  0.396000, -9.947950
  0.398000, -9.856630
  0.400000, -9.761360
  0.402000, -9.662800
  0.404000, -9.561270
  0.406000, -9.457840
  0.408000, -9.348520
  0.410000, -9.241290
  0.412000, -9.118760
  0.414000, -8.992930
  0.416000, -8.853070
  0.418000, -8.715490
  0.420000, -8.569520
  0.422000, -8.425780
  0.424000, -8.278750
  0.426000, -8.136890
  0.428000, -8.000730
  0.430000, -7.876790
  0.432000, -7.754910
  0.434000, -7.638550
  0.436000, -7.521770
  0.438000, -7.414460
  0.440000, -7.309930
  0.442000, -7.201170
  0.444000, -7.092730
  0.446000, -6.976090
  0.448000, -6.857480
  0.450000, -6.734080
  0.452000, -6.614640
  0.454000, -6.491690
  0.456000, -6.364690
  0.458000, -6.236230
  0.460000, -6.100020
  0.462000, -5.964480
  0.464000, -5.832980
  0.466000, -5.696640
  0.468000, -5.566990
  0.470000, -5.454690
  0.472000, -5.351730
  0.474000, -5.264020
  0.476000, -5.196200
  0.478000, -5.139070
  0.480000, -5.091000
  0.482000, -5.040190
  0.484000, -4.984410
  0.486000, -4.924810
  0.488000, -4.848120
  0.490000, -4.757040
  0.492000, -4.658810
  0.494000, -4.558530
  0.496000, -4.450830
  0.498000, -4.340170
  0.500000, -4.242430
  0.502000, -4.141790
  0.504000, -4.055160
  0.506000, -3.976510
  0.508000, -3.907620
  0.510000, -3.838510
  0.512000, -3.772970
  0.514000, -3.699340
  0.516000, -3.624300
  0.518000, -3.545720
  0.520000, -3.451890
  0.522000, -3.352510
  0.524000, -3.247400
  0.526000, -3.130530
  0.528000, -3.012060
  0.530000, -2.880380
  0.532000, -2.742840
  0.534000, -2.605960
  0.536000, -2.463120
  0.538000, -2.313460
  0.540000, -2.162200
  0.542000, -2.006840
  0.544000, -1.857290
  0.546000, -1.706430
  0.548000, -1.559210
  0.550000, -1.413950
  0.552000, -1.272630
  0.554000, -1.135710
  0.556000, -1.002680
  0.558000, -0.865140
  0.560000, -0.729360
  0.562000, -0.591000
  0.564000, -0.442690
  0.566000, -0.291260
  0.568000, -0.132200
  0.570000,  0.031110
  0.572000,  0.196740
  0.574000,  0.361580
  0.576000,  0.521980
  0.578000,  0.673220
  0.580000,  0.811780
  0.582000,  0.939620
  0.584000,  1.051920
  0.586000,  1.146470
  0.588000,  1.221170
  0.590000,  1.291230
  0.592000,  1.341010
  0.594000,  1.393080
  0.596000,  1.446720
  0.598000,  1.492240
  0.600000,  1.533870
  0.602000,  1.586590
  0.604000,  1.640240
  0.606000,  1.688700
  0.608000,  1.734730
  0.610000,  1.773200
  0.612000,  1.802910
  0.614000,  1.822460
  0.616000,  1.834680
  0.618000,  1.838260
  0.620000,  1.826230
  0.622000,  1.812240
  0.624000,  1.785920
  0.626000,  1.748900
  0.628000,  1.711420
  0.630000,  1.663300
  0.632000,  1.616630
  0.634000,  1.547890
  0.636000,  1.477750
  0.638000,  1.393480
  0.640000,  1.305760
  0.642000,  1.207160
  0.644000,  1.117380
  0.646000,  1.018420
  0.648000,  0.928020
  0.650000,  0.847650
  0.652000,  0.769090
  0.654000,  0.703370
  0.656000,  0.648490
  0.658000,  0.594950
  0.660000,  0.553600
  0.662000,  0.519560
  0.664000,  0.493160
  0.666000,  0.456470
  0.668000,  0.419340
  0.670000,  0.372810
  0.672000,  0.308620
  0.674000,  0.231490
  0.676000,  0.149780
  0.678000,  0.058830
  0.680000, -0.034820
  0.682000, -0.123180
  0.684000, -0.199050
  0.686000, -0.261510
  0.688000, -0.302990
  0.690000, -0.325660
  0.692000, -0.341520
  0.694000, -0.348040
  0.696000, -0.361120
  0.698000, -0.378840
  0.700000, -0.400710
  0.702000, -0.432530
  0.704000, -0.468620
  0.706000, -0.510290
  0.708000, -0.559490
  0.710000, -0.604540
  0.712000, -0.644270
  0.714000, -0.679680
  0.716000, -0.710300
  0.718000, -0.734020
  0.720000, -0.751920
  0.722000, -0.760090
  0.724000, -0.774420
  0.726000, -0.782270
  0.728000, -0.796680
  0.730000, -0.808000
  0.732000, -0.830960
  0.734000, -0.857500
  0.736000, -0.883300
  0.738000, -0.908520
  0.740000, -0.927310
  0.742000, -0.939450
  0.744000, -0.945780
  0.746000, -0.938180
  0.748000, -0.923550
  0.750000, -0.897480
  0.752000, -0.862220
  0.754000, -0.830050
  0.756000, -0.801490
  0.758000, -0.777320
  0.760000, -0.763750
  0.762000, -0.755780
  0.764000, -0.755200
  0.766000, -0.760650
  0.768000, -0.764390
  0.770000, -0.766640
  0.772000, -0.777570
  0.774000, -0.786890
  0.776000, -0.792730
  0.778000, -0.787870
  0.780000, -0.785520
  0.782000, -0.775070
  0.784000, -0.763190
  0.786000, -0.736960
  0.788000, -0.715040
  0.790000, -0.692370
  0.792000, -0.669090
  0.794000, -0.654680
  0.796000, -0.642860
  0.798000, -0.628320
  0.800000, -0.621870
  0.802000, -0.617110
  0.804000, -0.615120
  0.806000, -0.612080
  0.808000, -0.606610
  0.810000, -0.606230
  0.812000, -0.599540
  0.814000, -0.592510
  0.816000, -0.581080
  0.818000, -0.570870
  0.820000, -0.553200
  0.822000, -0.538550
  0.824000, -0.517870
  0.826000, -0.496140
  0.828000, -0.473450
  0.830000, -0.444880
  0.832000, -0.420710
  0.834000, -0.386140
  0.836000, -0.350890
  0.838000, -0.317610
  0.840000, -0.279510
  0.842000, -0.244820
  0.844000, -0.207480
  0.846000, -0.175200
  0.848000, -0.143480
  0.850000, -0.123760
  0.852000, -0.101880
  0.854000, -0.083880
  0.856000, -0.067290
  0.858000, -0.053380
  0.860000, -0.041720
  0.862000, -0.028910
  0.864000, -0.017360
  0.866000, -0.002340
  0.868000,  0.013370
  0.870000,  0.026490
  0.872000,  0.044700
  0.874000,  0.061560
  0.876000,  0.073150
  0.878000,  0.086000
  0.880000,  0.096860
  0.882000,  0.102160
  0.884000,  0.109370
  0.886000,  0.110760
  0.888000,  0.112560
  0.890000,  0.110980
  0.892000,  0.107640
  0.894000,  0.106090
  0.896000,  0.104060
  0.898000,  0.100480
  0.900000,  0.097060
  0.902000,  0.095630
  0.904000,  0.096150
  0.906000,  0.106250
  0.908000,  0.116030
  0.910000,  0.129340
  0.912000,  0.144820
  0.914000,  0.154400
  0.916000,  0.160160
  0.918000,  0.165760
  0.920000,  0.167730
  0.922000,  0.162930
  0.924000,  0.149100
  0.926000,  0.131100
  0.928000,  0.112260
  0.930000,  0.095440
  0.932000,  0.077980
  0.934000,  0.065390
  0.936000,  0.055250
  0.938000,  0.050150
  0.940000,  0.046680
  0.942000,  0.048980
  0.944000,  0.052900
  0.946000,  0.056720
  0.948000,  0.049740
  0.950000,  0.040780
  0.952000,  0.042850
  0.954000,  0.031570
  0.956000,  0.026260
  0.958000,  0.018010
  0.960000,  0.004510
  0.962000, -0.006100
  0.964000, -0.016060
  0.966000, -0.022190
  0.968000, -0.031360
  0.970000, -0.042900
  0.972000, -0.058220
  0.974000, -0.081690
  0.976000, -0.097290
  0.978000, -0.117020
  0.980000, -0.135450
  0.982000, -0.159210
  0.984000, -0.180800
  0.986000, -0.197650
  0.988000, -0.212340
  0.990000, -0.222930
  0.992000, -0.226320
  0.994000, -0.224390
  0.996000, -0.219490
  0.998000, -0.208480
  1.000000, -0.194970
