# z (nm)   (kJ/mol)
  0.110000,277.538520
  0.112000,273.188010
  0.114000,270.173000
  0.116000,267.153180
  0.118000,264.352540
  0.120000,261.543500
  0.122000,258.725170
  0.124000,255.885600
  0.126000,253.048530
  0.128000,250.159700
  0.130000,247.243710
  0.132000,244.279140
  0.134000,241.248170
  0.136000,238.151190
  0.138000,234.967690
  0.140000,231.692830
  0.142000,228.315330
  0.144000,224.835880
  0.146000,221.245610
  0.148000,217.551400
  0.150000,213.763780
  0.152000,209.899560
  0.154000,205.974190
  0.156000,202.016630
  0.158000,198.042890
  0.160000,194.067070
  0.162000,190.104800
  0.164000,186.143800
  0.166000,182.203070
  0.168000,178.263000
  0.170000,174.322560
  0.172000,170.380270
  0.174000,166.441010
  0.176000,162.510350
  0.178000,158.600930
  0.180000,154.725000
  0.182000,150.903160
  0.184000,147.146480
  0.186000,143.478090
  0.188000,139.902140
  0.190000,136.426230
  0.192000,133.045970
  0.194000,129.760120
  0.196000,126.546300
  0.198000,123.394530
  0.200000,120.284990
  0.202000,117.208110
  0.204000,114.151940
  0.206000,111.110640
  0.208000,108.088650
  0.210000,105.085800
  0.212000,102.123450
  0.214000, 99.204580
  0.216000, 96.340910
  0.218000, 93.540670
  0.220000, 90.802380
  0.222000, 88.132830
  0.224000, 85.519060
  0.226000, 82.950720
  0.228000, 80.410890
  0.230000, 77.887550
  0.232000, 75.371550
  0.234000, 72.861370
  0.236000, 70.354380
  0.238000, 67.857240
  0.240000, 65.384420
  0.242000, 62.954390
  0.244000, 60.583380
  0.246000, 58.288540
  0.248000, 56.079000
  0.250000, 53.955820
  0.252000, 51.907500
  0.254000, 49.912560
  0.256000, 47.953310
  0.258000, 46.017780
  0.260000, 44.097050
  0.262000, 42.167510
  0.264000, 40.250480
  0.266000, 38.357000
  0.268000, 36.475300
  0.270000, 34.620950
  0.272000, 32.793110
  0.274000, 30.997320
  0.276000, 29.239600
  0.278000, 27.533080
  0.280000, 25.885960
  0.282000, 24.307320
  0.284000, 22.811320
  0.286000, 21.397250
  0.288000, 20.066540
  0.290000, 18.792920
  0.292000, 17.548540
  0.294000, 16.332070
  0.296000, 15.109200
  0.298000, 13.879360
  0.300000, 12.639450
  0.302000, 11.399290
  0.304000, 10.170270
  0.306000,  8.979020
  0.308000,  7.829840
  0.310000,  6.741250
  0.312000,  5.726200
  0.314000,  4.776670
  0.316000,  3.898750
  0.318000,  3.083690
  0.320000,  2.325500
  0.322000,  1.606990
  0.324000,  0.920530
  0.326000,  0.255320
  0.328000, -0.393280
  0.330000, -1.034730
  0.332000, -1.654850
  0.334000, -2.265250
  0.336000, -2.858530
  0.338000, -3.428120
  0.340000, -3.980770
  0.342000, -4.506020
  0.344000, -4.991360
  0.346000, -5.442830
  0.348000, -5.851490
  0.350000, -6.227310
  0.352000, -6.568700
  0.354000, -6.871930
  0.356000, -7.148440
  0.358000, -7.402800
  0.360000, -7.633680
  0.362000, -7.862410
  0.364000, -8.080340
  0.366000, -8.293200
  0.368000, -8.508830
  0.370000, -8.719290
  0.372000, -8.918430
  0.374000, -9.104130
  0.376000, -9.279670
  0.378000, -9.431530
  0.380000, -9.567780
  0.382000, -9.681050
  0.384000, -9.774400
  0.386000, -9.843490
  0.388000, -9.897370
  0.390000, -9.935840
  0.392000, -9.957610
  0.394000, -9.970430
  0.396000, -9.972830
  0.398000, -9.971090
  0.400000, -9.961450
  0.402000, -9.936300
  0.404000, -9.910650
  0.406000, -9.870820
  0.408000, -9.820880
  0.410000, -9.759930
  0.412000, -9.678150
  0.414000, -9.588570
  0.416000, -9.496410
  0.418000, -9.402170
  0.420000, -9.304160
  0.422000, -9.198780
  0.424000, -9.097330
  0.426000, -8.995020
  0.428000, -8.896560
  0.430000, -8.804210
  0.432000, -8.699990
  0.434000, -8.600020
  0.436000, -8.490550
  0.438000, -8.382050
  0.440000, -8.258070
  0.442000, -8.131790
  0.444000, -8.003390
  0.446000, -7.865520
  0.448000, -7.722140
  0.450000, -7.578520
  0.452000, -7.430950
  0.454000, -7.283060
  0.456000, -7.139700
  0.458000, -6.999880
  0.460000, -6.864190
  0.462000, -6.726400
  0.464000, -6.596980
  0.466000, -6.462340
  0.468000, -6.328500
  0.470000, -6.194370
  0.472000, -6.055480
  0.474000, -5.913930
  0.476000, -5.770570
  0.478000, -5.611940
  0.480000, -5.457420
  0.482000, -5.296470
  0.484000, -5.133880
  0.486000, -4.961110
  0.488000, -4.786400
  0.490000, -4.600900
  0.492000, -4.416490
  0.494000, -4.226240
  0.496000, -4.035820
  0.498000, -3.846220
  0.500000, -3.664760
  0.502000, -3.484430
  0.504000, -3.303700
  0.506000, -3.123490
  0.508000, -2.941740
  0.510000, -2.766140
  0.512000, -2.587710
  0.514000, -2.407500
  0.516000, -2.227800
  0.518000, -2.044670
  0.520000, -1.858190
  0.522000, -1.676310
  0.524000, -1.496210
  0.526000, -1.316020
  0.528000, -1.141650
  0.530000, -0.968370
  0.532000, -0.801750
  0.534000, -0.634380
  0.536000, -0.481600
  0.538000, -0.326350
  0.540000, -0.164210
  0.542000,  0.000770
  0.544000,  0.170360
  0.546000,  0.338150
  0.548000,  0.507830
  0.550000,  0.669310
  0.552000,  0.826960
  0.554000,  0.969580
  0.556000,  1.100360
  0.558000,  1.221880
  0.560000,  1.326920
  0.562000,  1.416650
  0.564000,  1.497520
  0.566000,  1.570220
  0.568000,  1.640020
  0.570000,  1.714290
  0.572000,  1.795300
  0.574000,  1.882330
  0.576000,  1.981460
  0.578000,  2.086310
  0.580000,  2.190040
  0.582000,  2.293440
  0.584000,  2.381550
  0.586000,  2.459500
  0.588000,  2.521370
  0.590000,  2.564370
  0.592000,  2.587530
  0.594000,  2.586140
  0.596000,  2.568490
  0.598000,  2.543520
  0.600000,  2.513880
  0.602000,  2.485480
  0.604000,  2.462000
  0.606000,  2.447190
  0.608000,  2.425940
  0.610000,  2.417700
  0.612000,  2.412020
  0.614000,  2.404080
  0.616000,  2.390590
  0.618000,  2.369820
  0.620000,  2.349560
  0.622000,  2.331630
  0.624000,  2.299610
  0.626000,  2.265290
  0.628000,  2.222530
  0.630000,  2.178930
  0.632000,  2.132850
  0.634000,  2.085940
  0.636000,  2.029970
  0.638000,  1.972890
  0.640000,  1.905080
  0.642000,  1.836900
  0.644000,  1.768850
  0.646000,  1.703240
  0.648000,  1.633900
  0.650000,  1.561440
  0.652000,  1.490040
  0.654000,  1.420450
  0.656000,  1.342570
  0.658000,  1.268440
  0.660000,  1.192310
  0.662000,  1.112190
  0.664000,  1.034110
  0.666000,  0.948820
  0.668000,  0.862030
  0.670000,  0.775860
  0.672000,  0.691390
  0.674000,  0.607400
  0.676000,  0.525060
  0.678000,  0.448280
  0.680000,  0.368200
  0.682000,  0.291570
  0.684000,  0.222350
  0.686000,  0.151590
  0.688000,  0.072400
  0.690000, -0.005080
  0.692000, -0.079430
  0.694000, -0.152010
  0.696000, -0.221820
  0.698000, -0.285930
  0.700000, -0.346610
  0.702000, -0.406870
  0.704000, -0.449990
  0.706000, -0.493960
  0.708000, -0.523850
  0.710000, -0.545680
  0.712000, -0.564560
  0.714000, -0.581790
  0.716000, -0.597130
  0.718000, -0.617360
  0.720000, -0.628440
  0.722000, -0.653340
  0.724000, -0.678120
  0.726000, -0.711270
  0.728000, -0.751820
  0.730000, -0.796200
  0.732000, -0.841440
  0.734000, -0.888090
  0.736000, -0.940330
  0.738000, -0.985560
  0.740000, -1.027920
  0.742000, -1.055390
  0.744000, -1.078050
  0.746000, -1.088750
  0.748000, -1.083630
  0.750000, -1.076750
  0.752000, -1.056360
  0.754000, -1.031390
  0.756000, -0.991820
  0.758000, -0.959830
  0.760000, -0.930890
  0.762000, -0.903810
  0.764000, -0.883860
  0.766000, -0.861330
  0.768000, -0.846990
  0.770000, -0.838390
  0.772000, -0.830890
  0.774000, -0.828350
  0.776000, -0.823650
  0.778000, -0.816940
  0.780000, -0.813020
  0.782000, -0.802460
  0.784000, -0.790310
  0.786000, -0.771490
  0.788000, -0.749000
  0.790000, -0.725160
  0.792000, -0.697720
  0.794000, -0.667580
  0.796000, -0.635170
  0.798000, -0.601660
  0.800000, -0.569960
  0.802000, -0.537570
  0.804000, -0.502360
  0.806000, -0.472740
  0.808000, -0.449220
  0.810000, -0.425510
  0.812000, -0.403770
  0.814000, -0.380280
  0.816000, -0.361050
  0.818000, -0.326610
  0.820000, -0.295960
  0.822000, -0.267580
  0.824000, -0.232680
  0.826000, -0.194670
  0.828000, -0.154670
  0.830000, -0.108490
  0.832000, -0.062520
  0.834000, -0.024790
  0.836000,  0.008280
  0.838000,  0.044330
  0.840000,  0.077670
  0.842000,  0.104340
  0.844000,  0.129060
  0.846000,  0.152740
  0.848000,  0.178970
  0.850000,  0.205000
  0.852000,  0.237840
  0.854000,  0.259840
  0.856000,  0.281450
  0.858000,  0.305040
  0.860000,  0.326880
  0.862000,  0.346800
  0.864000,  0.370610
  0.866000,  0.388470
  0.868000,  0.403500
  0.870000,  0.418060
  0.872000,  0.439680
  0.874000,  0.458210
  0.876000,  0.468860
  0.878000,  0.484740
  0.880000,  0.499690
  0.882000,  0.511480
  0.884000,  0.522210
  0.886000,  0.523460
  0.888000,  0.524340
  0.890000,  0.519730
  0.892000,  0.505320
  0.894000,  0.486400
  0.896000,  0.462990
  0.898000,  0.439310
  0.900000,  0.416870
  0.902000,  0.392720
  0.904000,  0.365230
  0.906000,  0.344960
  0.908000,  0.332920
  0.910000,  0.327580
  0.912000,  0.326610
  0.914000,  0.324450
  0.916000,  0.315210
  0.918000,  0.303860
  0.920000,  0.295200
  0.922000,  0.268440
  0.924000,  0.242610
  0.926000,  0.210540
  0.928000,  0.178840
  0.930000,  0.155000
  0.932000,  0.135000
  0.934000,  0.119880
  0.936000,  0.112610
  0.938000,  0.107440
  0.940000,  0.117500
  0.942000,  0.124960
  0.944000,  0.126120
  0.946000,  0.117260
  0.948000,  0.103280
  0.950000,  0.078610
  0.952000,  0.053090
  0.954000,  0.020250
  0.956000, -0.018120
  0.958000, -0.051890
  0.960000, -0.082960
  0.962000, -0.106180
  0.964000, -0.124190
  0.966000, -0.142300
  0.968000, -0.156820
  0.970000, -0.164830
  0.972000, -0.172650
  0.974000, -0.176710
  0.976000, -0.190680
  0.978000, -0.205620
  0.980000, -0.216300
  0.982000, -0.231840
  0.984000, -0.257210
  0.986000, -0.280390
  0.988000, -0.304930
  0.990000, -0.335650
  0.992000, -0.371990
  0.994000, -0.417520
  0.996000, -0.473700
  0.998000, -0.529820
  1.000000, -0.587860
