# z (nm)   (kJ/mol)
  0.116000,268.552820
  0.118000,266.266150
  0.120000,264.005860
  0.122000,261.579570
  0.124000,258.905360
  0.126000,256.508190
  0.128000,254.011730
  0.130000,251.534860
  0.132000,248.964390
  0.134000,246.359210
  0.136000,243.663190
  0.138000,240.888610
  0.140000,238.008050
  0.142000,235.016650
  0.144000,231.913580
  0.146000,228.694930
  0.148000,225.349950
  0.150000,221.886250
  0.152000,218.300590
  0.154000,214.593250
  0.156000,210.766180
  0.158000,206.815300
  0.160000,202.745450
  0.162000,198.556410
  0.164000,194.264810
  0.166000,189.884060
  0.168000,185.439990
  0.170000,180.960790
  0.172000,176.493040
  0.174000,172.088800
  0.176000,167.810830
  0.178000,163.709490
  0.180000,159.827260
  0.182000,156.171560
  0.184000,152.712860
  0.186000,149.385480
  0.188000,146.115040
  0.190000,142.842010
  0.192000,139.528370
  0.194000,136.178750
  0.196000,132.809480
  0.198000,129.468940
  0.200000,126.171260
  0.202000,122.917740
  0.204000,119.706640
  0.206000,116.533700
  0.208000,113.395140
  0.210000,110.280630
  0.212000,107.203080
  0.214000,104.164770
  0.216000,101.176540
  0.218000, 98.246610
  0.220000, 95.382450
  0.222000, 92.580330
  0.224000, 89.843990
  0.226000, 87.162130
  0.228000, 84.513600
  0.230000, 81.887980
  0.232000, 79.287390
  0.234000, 76.714150
  0.236000, 74.185290
  0.238000, 71.729050
  0.240000, 69.359630
  0.242000, 67.093700
  0.244000, 64.918510
  0.246000, 62.826510
  0.248000, 60.768770
  0.250000, 58.721080
  0.252000, 56.641590
  0.254000, 54.514680
  0.256000, 52.361060
  0.258000, 50.214110
  0.260000, 48.135740
  0.262000, 46.179330
  0.264000, 44.365940
  0.266000, 42.669320
  0.268000, 41.047190
  0.270000, 39.444160
  0.272000, 37.830920
  0.274000, 36.196550
  0.276000, 34.574850
  0.278000, 32.984100
  0.280000, 31.464270
  0.282000, 30.016950
  0.284000, 28.638840
  0.286000, 27.327850
  0.288000, 26.055020
  0.290000, 24.805350
  0.292000, 23.551660
  0.294000, 22.307010
  0.296000, 21.082520
  0.298000, 19.899260
  0.300000, 18.778060
  0.302000, 17.721920
  0.304000, 16.738710
  0.306000, 15.818480
  0.308000, 14.936250
  0.310000, 14.069590
  0.312000, 13.204220
  0.314000, 12.342830
  0.316000, 11.453830
  0.318000, 10.576960
  0.320000,  9.723400
  0.322000,  8.925030
  0.324000,  8.199410
  0.326000,  7.554820
  0.328000,  6.971470
  0.330000,  6.429790
  0.332000,  5.891630
  0.334000,  5.327040
  0.336000,  4.726110
  0.338000,  4.100190
  0.340000,  3.469880
  0.342000,  2.861950
  0.344000,  2.297630
  0.346000,  1.764610
  0.348000,  1.278680
  0.350000,  0.810180
  0.352000,  0.351590
  0.354000, -0.116630
  0.356000, -0.596190
  0.358000, -1.080490
  0.360000, -1.561770
  0.362000, -2.018620
  0.364000, -2.443240
  0.366000, -2.825370
  0.368000, -3.169020
  0.370000, -3.472100
  0.372000, -3.744120
  0.374000, -3.990690
  0.376000, -4.222290
  0.378000, -4.451500
  0.380000, -4.674900
  0.382000, -4.896180
  0.384000, -5.100810
  0.386000, -5.296150
  0.388000, -5.457490
  0.390000, -5.591360
  0.392000, -5.682790
  0.394000, -5.749120
  0.396000, -5.806550
  0.398000, -5.865310
  0.400000, -5.948600
  0.402000, -6.050620
  0.404000, -6.166840
  0.406000, -6.268480
  0.408000, -6.360400
  0.410000, -6.418730
  0.412000, -6.466140
  0.414000, -6.502380
  0.416000, -6.549500
  0.418000, -6.590860
  0.420000, -6.645640
  0.422000, -6.705130
  0.424000, -6.752190
  0.426000, -6.789540
  0.428000, -6.811070
  0.430000, -6.817980
  0.432000, -6.819630
  0.434000, -6.813000
  0.436000, -6.807140
  0.438000, -6.810880
  0.440000, -6.833280
  0.442000, -6.876200
  0.444000, -6.929790
  0.446000, -6.993580
  0.448000, -7.052920
  0.450000, -7.092880
  0.452000, -7.094730
  0.454000, -7.062150
  0.456000, -6.990730
  0.458000, -6.894310
  0.460000, -6.793810
  0.462000, -6.696550
  0.464000, -6.619990
  0.466000, -6.570180
  0.468000, -6.541700
  0.470000, -6.535940
  0.472000, -6.527060
  0.474000, -6.505690
  0.476000, -6.454180
  0.478000, -6.370780
  0.480000, -6.258530
  0.482000, -6.121870
  0.484000, -5.964950
  0.486000, -5.813000
  0.488000, -5.681540
  0.490000, -5.570160
  0.492000, -5.491830
  0.494000, -5.439290
  0.496000, -5.407090
  0.498000, -5.373320
  0.500000, -5.343430
  0.502000, -5.309330
  0.504000, -5.277060
  0.506000, -5.245310
  0.508000, -5.213100
  0.510000, -5.177780
  0.512000, -5.137390
  0.514000, -5.082390
  0.516000, -5.022070
  0.518000, -4.968520
  0.520000, -4.921290
  0.522000, -4.884630
  0.524000, -4.857720
  0.526000, -4.837390
  0.528000, -4.829030
  0.530000, -4.817820
  0.532000, -4.808010
  0.534000, -4.788630
  0.536000, -4.764910
  0.538000, -4.739740
  0.540000, -4.711070
  0.542000, -4.677000
  0.544000, -4.655290
  0.546000, -4.624870
  0.548000, -4.591890
  0.550000, -4.544800
  0.552000, -4.492590
  0.554000, -4.419300
  0.556000, -4.337900
  0.558000, -4.260330
  0.560000, -4.173450
  0.562000, -4.090450
  0.564000, -4.003800
  0.566000, -3.916710
  0.568000, -3.814150
  0.570000, -3.701460
  0.572000, -3.578590
  0.574000, -3.451120
  0.576000, -3.322200
  0.578000, -3.192450
  0.580000, -3.066920
  0.582000, -2.954540
  0.584000, -2.839080
  0.586000, -2.724710
  0.588000, -2.605900
  0.590000, -2.475070
  0.592000, -2.335540
  0.594000, -2.192760
  0.596000, -2.047360
  0.598000, -1.902010
  0.600000, -1.756360
  0.602000, -1.618320
  0.604000, -1.482440
  0.606000, -1.363100
  0.608000, -1.246180
  0.610000, -1.138200
  0.612000, -1.046640
  0.614000, -0.972610
  0.616000, -0.920370
  0.618000, -0.879160
  0.620000, -0.845130
  0.622000, -0.828510
  0.624000, -0.814360
  0.626000, -0.799240
  0.628000, -0.769110
  0.630000, -0.737710
  0.632000, -0.694620
  0.634000, -0.638150
  0.636000, -0.584210
  0.638000, -0.529160
  0.640000, -0.490460
  0.642000, -0.477280
  0.644000, -0.483660
  0.646000, -0.496590
  0.648000, -0.512280
  0.650000, -0.529740
  0.652000, -0.533710
  0.654000, -0.526300
  0.656000, -0.516980
  0.658000, -0.504660
  0.660000, -0.495470
  0.662000, -0.486710
  0.664000, -0.479690
  0.666000, -0.480500
  0.668000, -0.487940
  0.670000, -0.506610
  0.672000, -0.538190
  0.674000, -0.570200
  0.676000, -0.590520
  0.678000, -0.592580
  0.680000, -0.575670
  0.682000, -0.541960
  0.684000, -0.496000
  0.686000, -0.454610
  0.688000, -0.424340
  0.690000, -0.415300
  0.692000, -0.427770
  0.694000, -0.453570
  0.696000, -0.480330
  0.698000, -0.506210
  0.700000, -0.531590
  0.702000, -0.541240
  0.704000, -0.540430
  0.706000, -0.532890
  0.708000, -0.519640
  0.710000, -0.502710
  0.712000, -0.479920
  0.714000, -0.466700
  0.716000, -0.457200
  0.718000, -0.440900
  0.720000, -0.431510
  0.722000, -0.434830
  0.724000, -0.441810
  0.726000, -0.466800
  0.728000, -0.505020
  0.730000, -0.544800
  0.732000, -0.589080
  0.734000, -0.622430
  0.736000, -0.641980
  0.738000, -0.653470
  0.740000, -0.656770
  0.742000, -0.655160
  0.744000, -0.655130
  0.746000, -0.655380
  0.748000, -0.664170
  0.750000, -0.674610
  0.752000, -0.698660
  0.754000, -0.724000
  0.756000, -0.754540
  0.758000, -0.779200
  0.760000, -0.794920
  0.762000, -0.796410
  0.764000, -0.797290
  0.766000, -0.784930
  0.768000, -0.764770
  0.770000, -0.744500
  0.772000, -0.731850
  0.774000, -0.728360
  0.776000, -0.733060
  0.778000, -0.746510
  0.780000, -0.773730
  0.782000, -0.805370
  0.784000, -0.828590
  0.786000, -0.854660
  0.788000, -0.876840
  0.790000, -0.894300
  0.792000, -0.905030
  0.794000, -0.914930
  0.796000, -0.928340
  0.798000, -0.939230
  0.800000, -0.950190
  0.802000, -0.955910
  0.804000, -0.955530
  0.806000, -0.943960
  0.808000, -0.939960
  0.810000, -0.924870
  0.812000, -0.898850
  0.814000, -0.873200
  0.816000, -0.843690
  0.818000, -0.819300
  0.820000, -0.798780
  0.822000, -0.792340
  0.824000, -0.785060
  0.826000, -0.790240
  0.828000, -0.792620
  0.830000, -0.797270
  0.832000, -0.798200
  0.834000, -0.799500
  0.836000, -0.797540
  0.838000, -0.788070
  0.840000, -0.773690
  0.842000, -0.761330
  0.844000, -0.745380
  0.846000, -0.732970
  0.848000, -0.719150
  0.850000, -0.719830
  0.852000, -0.712290
  0.854000, -0.701840
  0.856000, -0.687400
  0.858000, -0.664210
  0.860000, -0.634100
  0.862000, -0.610370
  0.864000, -0.593910
  0.866000, -0.587250
  0.868000, -0.594490
  0.870000, -0.615470
  0.872000, -0.637740
  0.874000, -0.649850
  0.876000, -0.649270
  0.878000, -0.633350
  0.880000, -0.594880
  0.882000, -0.543620
  0.884000, -0.483440
  0.886000, -0.425490
  0.888000, -0.366920
  0.890000, -0.310080
  0.892000, -0.274190
  0.894000, -0.259940
  0.896000, -0.253630
  0.898000, -0.258500
  0.900000, -0.268850
  0.902000, -0.279610
  0.904000, -0.282140
  0.906000, -0.273430
  0.908000, -0.257840
  0.910000, -0.227970
  0.912000, -0.196280
  0.914000, -0.161150
  0.916000, -0.139950
  0.918000, -0.120030
  0.920000, -0.112960
  0.922000, -0.122940
  0.924000, -0.131630
  0.926000, -0.143720
  0.928000, -0.149650
  0.930000, -0.151930
  0.932000, -0.148890
  0.934000, -0.142540
  0.936000, -0.126050
  0.938000, -0.107090
  0.940000, -0.077340
  0.942000, -0.048510
  0.944000, -0.020430
  0.946000, -0.007520
  0.948000,  0.000360
  0.950000, -0.004280
  0.952000, -0.012170
  0.954000, -0.028720
  0.956000, -0.045210
  0.958000, -0.063210
  0.960000, -0.079120
  0.962000, -0.086890
  0.964000, -0.078280
  0.966000, -0.058330
  0.968000, -0.019050
  0.970000,  0.026350
  0.972000,  0.081190
  0.974000,  0.128270
  0.976000,  0.173730
  0.978000,  0.213450
  0.980000,  0.240590
  0.982000,  0.268020
  0.984000,  0.281680
  0.986000,  0.296420
  0.988000,  0.304270
  0.990000,  0.307540
  0.992000,  0.317560
  0.994000,  0.317190
  0.996000,  0.314590
  0.998000,  0.314260
  1.000000,  0.319370
