# z (nm)   (kJ/mol)
  0.092000,270.417270
  0.094000,266.173580
  0.096000,263.700430
  0.098000,260.913540
  0.100000,258.342520
  0.102000,255.794040
  0.104000,253.186970
  0.106000,250.618410
  0.108000,247.973990
  0.110000,245.307420
  0.112000,242.577770
  0.114000,239.753130
  0.116000,236.843860
  0.118000,233.825160
  0.120000,230.682210
  0.122000,227.406490
  0.124000,223.988880
  0.126000,220.421750
  0.128000,216.707490
  0.130000,212.856360
  0.132000,208.871460
  0.134000,204.768610
  0.136000,200.559400
  0.138000,196.251850
  0.140000,191.861830
  0.142000,187.411200
  0.144000,182.922110
  0.146000,178.422530
  0.148000,173.937130
  0.150000,169.497790
  0.152000,165.127740
  0.154000,160.839980
  0.156000,156.641570
  0.158000,152.534180
  0.160000,148.515100
  0.162000,144.588350
  0.164000,140.761630
  0.166000,137.054740
  0.168000,133.485400
  0.170000,130.071880
  0.172000,126.797030
  0.174000,123.632430
  0.176000,120.529000
  0.178000,117.441240
  0.180000,114.320410
  0.182000,111.128390
  0.184000,107.860850
  0.186000,104.540770
  0.188000,101.201900
  0.190000, 97.902630
  0.192000, 94.684470
  0.194000, 91.564990
  0.196000, 88.535350
  0.198000, 85.595940
  0.200000, 82.739430
  0.202000, 79.957330
  0.204000, 77.231780
  0.206000, 74.543690
  0.208000, 71.868850
  0.210000, 69.198600
  0.212000, 66.533030
  0.214000, 63.877600
  0.216000, 61.256600
  0.218000, 58.701440
  0.220000, 56.249110
  0.222000, 53.914380
  0.224000, 51.686820
  0.226000, 49.552530
  0.228000, 47.473800
  0.230000, 45.416340
  0.232000, 43.358710
  0.234000, 41.297110
  0.236000, 39.243340
  0.238000, 37.230900
  0.240000, 35.277020
  0.242000, 33.408780
  0.244000, 31.636110
  0.246000, 29.954090
  0.248000, 28.323060
  0.250000, 26.738700
  0.252000, 25.162050
  0.254000, 23.591710
  0.256000, 22.041880
  0.258000, 20.531370
  0.260000, 19.070060
  0.262000, 17.684210
  0.264000, 16.347130
  0.266000, 15.053010
  0.268000, 13.786530
  0.270000, 12.549740
  0.272000, 11.339280
  0.274000, 10.163310
  0.276000,  9.031080
  0.278000,  7.938250
  0.280000,  6.887550
  0.282000,  5.883250
  0.284000,  4.919030
  0.286000,  3.983140
  0.288000,  3.078400
  0.290000,  2.194970
  0.292000,  1.325170
  0.294000,  0.479470
  0.296000, -0.349530
  0.298000, -1.153840
  0.300000, -1.933050
  0.302000, -2.668810
  0.304000, -3.381450
  0.306000, -4.060780
  0.308000, -4.720550
  0.310000, -5.371370
  0.312000, -5.992880
  0.314000, -6.573340
  0.316000, -7.126450
  0.318000, -7.647250
  0.320000, -8.147030
  0.322000, -8.604120
  0.324000, -9.027950
  0.326000, -9.430500
  0.328000, -9.787910
  0.330000,-10.125810
  0.332000,-10.445120
  0.334000,-10.751810
  0.336000,-11.059220
  0.338000,-11.362390
  0.340000,-11.661800
  0.342000,-11.928470
  0.344000,-12.150950
  0.346000,-12.325050
  0.348000,-12.453350
  0.350000,-12.542950
  0.352000,-12.617030
  0.354000,-12.694510
  0.356000,-12.791790
  0.358000,-12.933910
  0.360000,-13.106260
  0.362000,-13.281530
  0.364000,-13.452460
  0.366000,-13.586210
  0.368000,-13.667270
  0.370000,-13.687450
  0.372000,-13.649400
  0.374000,-13.573910
  0.376000,-13.495790
  0.378000,-13.432320
  0.380000,-13.403000
  0.382000,-13.425810
  0.384000,-13.494950
  0.386000,-13.593110
  0.388000,-13.695070
  0.390000,-13.763250
  0.392000,-13.776220
  0.394000,-13.726100
  0.396000,-13.617560
  0.398000,-13.487280
  0.400000,-13.357060
  0.402000,-13.263590
  0.404000,-13.218250
  0.406000,-13.230910
  0.408000,-13.279810
  0.410000,-13.334090
  0.412000,-13.359190
  0.414000,-13.338610
  0.416000,-13.274030
  0.418000,-13.170340
  0.420000,-13.032690
  0.422000,-12.887210
  0.424000,-12.745450
  0.426000,-12.606410
  0.428000,-12.467890
  0.430000,-12.325480
  0.432000,-12.190730
  0.434000,-12.049350
  0.436000,-11.896320
  0.438000,-11.754470
  0.440000,-11.613760
  0.442000,-11.477950
  0.444000,-11.346870
  0.446000,-11.213790
  0.448000,-11.072240
  0.450000,-10.910700
  0.452000,-10.737610
  0.454000,-10.546110
  0.456000,-10.342710
  0.458000,-10.137800
  0.460000, -9.931630
  0.462000, -9.734700
  0.464000, -9.549990
  0.466000, -9.387990
  0.468000, -9.240760
  0.470000, -9.109980
  0.472000, -8.994560
  0.474000, -8.877910
  0.476000, -8.779990
  0.478000, -8.682430
  0.480000, -8.587490
  0.482000, -8.496260
  0.484000, -8.397450
  0.486000, -8.283710
  0.488000, -8.168420
  0.490000, -8.045030
  0.492000, -7.906030
  0.494000, -7.755880
  0.496000, -7.616610
  0.498000, -7.493560
  0.500000, -7.389570
  0.502000, -7.322570
  0.504000, -7.283870
  0.506000, -7.272390
  0.508000, -7.268450
  0.510000, -7.249620
  0.512000, -7.223570
  0.514000, -7.166960
  0.516000, -7.092760
  0.518000, -6.999580
  0.520000, -6.897570
  0.522000, -6.796530
  0.524000, -6.704990
  0.526000, -6.622590
  0.528000, -6.548660
  0.530000, -6.481890
  0.532000, -6.415620
  0.534000, -6.356920
  0.536000, -6.299610
  0.538000, -6.243290
  0.540000, -6.202480
  0.542000, -6.172870
  0.544000, -6.153160
  0.546000, -6.131990
  0.548000, -6.084560
  0.550000, -5.998110
  0.552000, -5.865340
  0.554000, -5.701780
  0.556000, -5.518890
  0.558000, -5.352510
  0.560000, -5.196920
  0.562000, -5.065800
  0.564000, -4.954950
  0.566000, -4.855540
  0.568000, -4.745010
  0.570000, -4.615400
  0.572000, -4.468460
  0.574000, -4.303560
  0.576000, -4.113310
  0.578000, -3.917080
  0.580000, -3.711520
  0.582000, -3.505580
  0.584000, -3.297400
  0.586000, -3.092770
  0.588000, -2.886880
  0.590000, -2.692860
  0.592000, -2.505720
  0.594000, -2.315860
  0.596000, -2.128160
  0.598000, -1.944460
  0.600000, -1.757410
  0.602000, -1.581600
  0.604000, -1.412800
  0.606000, -1.251980
  0.608000, -1.104100
  0.610000, -0.966010
  0.612000, -0.840420
  0.614000, -0.715050
  0.616000, -0.596120
  0.618000, -0.484670
  0.620000, -0.379960
  0.622000, -0.282250
  0.624000, -0.198920
  0.626000, -0.138960
  0.628000, -0.096440
  0.630000, -0.075850
  0.632000, -0.063580
  0.634000, -0.057780
  0.636000, -0.047490
  0.638000, -0.039490
  0.640000, -0.028860
  0.642000, -0.017590
  0.644000, -0.001510
  0.646000,  0.010630
  0.648000,  0.012060
  0.650000,  0.012980
  0.652000,  0.011490
  0.654000,  0.003310
  0.656000, -0.017780
  0.658000, -0.042830
  0.660000, -0.067080
  0.662000, -0.097020
  0.664000, -0.136790
  0.666000, -0.178660
  0.668000, -0.229250
  0.670000, -0.277550
  0.672000, -0.331290
  0.674000, -0.385290
  0.676000, -0.439580
  0.678000, -0.498910
  0.680000, -0.556580
  0.682000, -0.622310
  0.684000, -0.678660
  0.686000, -0.735960
  0.688000, -0.793800
  0.690000, -0.850110
  0.692000, -0.907790
  0.694000, -0.961170
  0.696000, -1.004220
  0.698000, -1.046800
  0.700000, -1.071910
  0.702000, -1.090190
  0.704000, -1.100310
  0.706000, -1.098160
  0.708000, -1.085490
  0.710000, -1.080450
  0.712000, -1.090280
  0.714000, -1.119230
  0.716000, -1.173120
  0.718000, -1.253710
  0.720000, -1.354070
  0.722000, -1.452600
  0.724000, -1.543210
  0.726000, -1.597230
  0.728000, -1.608260
  0.730000, -1.582840
  0.732000, -1.531560
  0.734000, -1.465250
  0.736000, -1.401990
  0.738000, -1.348510
  0.740000, -1.327940
  0.742000, -1.331920
  0.744000, -1.357060
  0.746000, -1.394630
  0.748000, -1.431830
  0.750000, -1.467700
  0.752000, -1.487840
  0.754000, -1.495520
  0.756000, -1.484630
  0.758000, -1.454360
  0.760000, -1.417190
  0.762000, -1.367570
  0.764000, -1.322140
  0.766000, -1.280350
  0.768000, -1.248060
  0.770000, -1.223810
  0.772000, -1.214210
  0.774000, -1.209290
  0.776000, -1.210610
  0.778000, -1.213460
  0.780000, -1.222250
  0.782000, -1.228630
  0.784000, -1.230130
  0.786000, -1.222450
  0.788000, -1.208850
  0.790000, -1.183850
  0.792000, -1.167130
  0.794000, -1.150080
  0.796000, -1.131130
  0.798000, -1.121530
  0.800000, -1.117220
  0.802000, -1.120860
  0.804000, -1.128020
  0.806000, -1.132440
  0.808000, -1.128370
  0.810000, -1.111620
  0.812000, -1.085630
  0.814000, -1.048720
  0.816000, -1.002360
  0.818000, -0.960280
  0.820000, -0.925170
  0.822000, -0.899800
  0.824000, -0.881610
  0.826000, -0.881820
  0.828000, -0.885920
  0.830000, -0.890440
  0.832000, -0.892950
  0.834000, -0.881380
  0.836000, -0.863750
  0.838000, -0.834110
  0.840000, -0.790980
  0.842000, -0.746640
  0.844000, -0.705740
  0.846000, -0.671730
  0.848000, -0.652640
  0.850000, -0.641970
  0.852000, -0.640260
  0.854000, -0.651420
  0.856000, -0.663270
  0.858000, -0.680970
  0.860000, -0.685680
  0.862000, -0.676680
  0.864000, -0.656600
  0.866000, -0.623300
  0.868000, -0.588330
  0.870000, -0.538330
  0.872000, -0.495330
  0.874000, -0.450290
  0.876000, -0.411080
  0.878000, -0.379170
  0.880000, -0.364300
  0.882000, -0.362410
  0.884000, -0.368100
  0.886000, -0.383540
  0.888000, -0.395520
  0.890000, -0.394600
  0.892000, -0.376100
  0.894000, -0.335400
  0.896000, -0.273470
  0.898000, -0.205860
  0.900000, -0.138680
  0.902000, -0.072630
  0.904000, -0.017330
  0.906000,  0.022800
  0.908000,  0.046020
  0.910000,  0.060800
  0.912000,  0.066430
  0.914000,  0.068930
  0.916000,  0.057070
  0.918000,  0.054620
  0.920000,  0.041810
  0.922000,  0.035380
  0.924000,  0.032840
  0.926000,  0.030710
  0.928000,  0.028820
  0.930000,  0.026610
  0.932000,  0.031030
  0.934000,  0.032550
  0.936000,  0.041080
  0.938000,  0.048220
  0.940000,  0.050150
  0.942000,  0.064400
  0.944000,  0.072620
  0.946000,  0.082930
  0.948000,  0.088260
  0.950000,  0.085380
  0.952000,  0.073570
  0.954000,  0.056800
  0.956000,  0.042320
  0.958000,  0.031170
  0.960000,  0.017180
  0.962000,  0.016270
  0.964000,  0.015410
  0.966000,  0.023660
  0.968000,  0.037290
  0.970000,  0.051240
  0.972000,  0.060670
  0.974000,  0.059160
  0.976000,  0.047840
  0.978000,  0.023910
  0.980000, -0.009240
  0.982000, -0.046890
  0.984000, -0.090190
  0.986000, -0.125140
  0.988000, -0.160430
  0.990000, -0.180830
  0.992000, -0.196740
  0.994000, -0.207110
  0.996000, -0.208240
  0.998000, -0.207860
  1.000000, -0.203350
