# z (nm)   (kJ/mol)
  0.080000,262.039570
  0.082000,258.711010
  0.084000,255.542090
  0.086000,252.724070
  0.088000,249.992180
  0.090000,247.234050
  0.092000,244.507390
  0.094000,241.742190
  0.096000,238.933280
  0.098000,236.078020
  0.100000,233.145890
  0.102000,230.120070
  0.104000,226.988110
  0.106000,223.729270
  0.108000,220.312010
  0.110000,216.726890
  0.112000,212.945440
  0.114000,208.961440
  0.116000,204.772830
  0.118000,200.393900
  0.120000,195.853700
  0.122000,191.196670
  0.124000,186.487500
  0.126000,181.775080
  0.128000,177.113660
  0.130000,172.529960
  0.132000,168.063920
  0.134000,163.717980
  0.136000,159.494480
  0.138000,155.377440
  0.140000,151.357050
  0.142000,147.404640
  0.144000,143.499670
  0.146000,139.619200
  0.148000,135.747760
  0.150000,131.889450
  0.152000,128.057080
  0.154000,124.281180
  0.156000,120.594820
  0.158000,117.024010
  0.160000,113.578400
  0.162000,110.237710
  0.164000,106.959960
  0.166000,103.704060
  0.168000,100.417420
  0.170000, 97.073310
  0.172000, 93.674850
  0.174000, 90.257770
  0.176000, 86.878720
  0.178000, 83.596530
  0.180000, 80.461770
  0.182000, 77.463350
  0.184000, 74.561510
  0.186000, 71.684340
  0.188000, 68.772270
  0.190000, 65.818660
  0.192000, 62.838600
  0.194000, 59.880630
  0.196000, 56.987790
  0.198000, 54.194130
  0.200000, 51.518960
  0.202000, 48.937300
  0.204000, 46.450780
  0.206000, 44.025930
  0.208000, 41.646920
  0.210000, 39.289090
  0.212000, 36.947330
  0.214000, 34.616790
  0.216000, 32.296990
  0.218000, 29.989520
  0.220000, 27.724870
  0.222000, 25.524850
  0.224000, 23.422340
  0.226000, 21.405720
  0.228000, 19.488370
  0.230000, 17.632920
  0.232000, 15.826000
  0.234000, 14.048510
  0.236000, 12.289880
  0.238000, 10.546550
  0.240000,  8.831670
  0.242000,  7.171000
  0.244000,  5.567540
  0.246000,  4.031130
  0.248000,  2.564300
  0.250000,  1.170130
  0.252000, -0.153830
  0.254000, -1.429890
  0.256000, -2.657860
  0.258000, -3.831790
  0.260000, -4.959320
  0.262000, -6.054520
  0.264000, -7.119710
  0.266000, -8.151870
  0.268000, -9.155170
  0.270000,-10.119850
  0.272000,-11.057510
  0.274000,-11.940250
  0.276000,-12.755860
  0.278000,-13.504560
  0.280000,-14.182970
  0.282000,-14.805520
  0.284000,-15.373000
  0.286000,-15.899080
  0.288000,-16.391970
  0.290000,-16.867950
  0.292000,-17.343310
  0.294000,-17.817500
  0.296000,-18.282070
  0.298000,-18.737830
  0.300000,-19.141110
  0.302000,-19.489300
  0.304000,-19.765070
  0.306000,-19.963450
  0.308000,-20.109590
  0.310000,-20.230950
  0.312000,-20.359360
  0.314000,-20.514010
  0.316000,-20.691220
  0.318000,-20.875370
  0.320000,-21.062390
  0.322000,-21.216250
  0.324000,-21.333000
  0.326000,-21.402270
  0.328000,-21.414480
  0.330000,-21.383200
  0.332000,-21.311900
  0.334000,-21.216890
  0.336000,-21.118280
  0.338000,-21.015230
  0.340000,-20.921450
  0.342000,-20.828120
  0.344000,-20.716230
  0.346000,-20.583630
  0.348000,-20.411380
  0.350000,-20.201450
  0.352000,-19.941730
  0.354000,-19.645510
  0.356000,-19.312260
  0.358000,-18.956500
  0.360000,-18.598630
  0.362000,-18.250220
  0.364000,-17.928120
  0.366000,-17.614590
  0.368000,-17.309980
  0.370000,-16.992560
  0.372000,-16.657000
  0.374000,-16.286990
  0.376000,-15.889790
  0.378000,-15.472840
  0.380000,-15.077300
  0.382000,-14.701100
  0.384000,-14.361620
  0.386000,-14.073350
  0.388000,-13.830460
  0.390000,-13.602890
  0.392000,-13.379800
  0.394000,-13.141980
  0.396000,-12.898240
  0.398000,-12.658050
  0.400000,-12.416580
  0.402000,-12.208320
  0.404000,-12.043680
  0.406000,-11.928030
  0.408000,-11.853130
  0.410000,-11.803180
  0.412000,-11.754160
  0.414000,-11.711440
  0.416000,-11.656260
  0.418000,-11.599340
  0.420000,-11.540080
  0.422000,-11.494310
  0.424000,-11.461250
  0.426000,-11.457240
  0.428000,-11.463320
  0.430000,-11.465810
  0.432000,-11.478930
  0.434000,-11.470400
  0.436000,-11.447770
  0.438000,-11.422230
  0.440000,-11.387720
  0.442000,-11.356770
  0.444000,-11.331320
  0.446000,-11.318780
  0.448000,-11.318780
  0.450000,-11.320810
  0.452000,-11.333620
  0.454000,-11.346630
  0.456000,-11.347920
  0.458000,-11.338050
  0.460000,-11.318710
  0.462000,-11.278520
  0.464000,-11.237680
  0.466000,-11.177140
  0.468000,-11.099990
  0.470000,-11.022460
  0.472000,-10.937720
  0.474000,-10.848500
  0.476000,-10.762530
  0.478000,-10.681380
  0.480000,-10.603460
  0.482000,-10.555850
  0.484000,-10.532120
  0.486000,-10.514040
  0.488000,-10.502840
  0.490000,-10.468130
  0.492000,-10.394190
  0.494000,-10.281970
  0.496000,-10.149510
  0.498000,-10.012930
  0.500000, -9.879140
  0.502000, -9.760500
  0.504000, -9.655810
  0.506000, -9.560310
  0.508000, -9.477290
  0.510000, -9.397680
  0.512000, -9.329460
  0.514000, -9.255600
  0.516000, -9.193180
  0.518000, -9.121120
  0.520000, -9.044890
  0.522000, -8.963570
  0.524000, -8.874770
  0.526000, -8.774330
  0.528000, -8.666220
  0.530000, -8.550510
  0.532000, -8.417000
  0.534000, -8.282730
  0.536000, -8.140040
  0.538000, -7.993460
  0.540000, -7.859400
  0.542000, -7.737530
  0.544000, -7.629690
  0.546000, -7.543090
  0.548000, -7.460980
  0.550000, -7.396310
  0.552000, -7.328210
  0.554000, -7.263480
  0.556000, -7.191270
  0.558000, -7.107050
  0.560000, -7.008070
  0.562000, -6.896970
  0.564000, -6.778820
  0.566000, -6.653930
  0.568000, -6.533600
  0.570000, -6.416350
  0.572000, -6.307920
  0.574000, -6.215580
  0.576000, -6.128630
  0.578000, -6.048500
  0.580000, -5.980410
  0.582000, -5.913880
  0.584000, -5.841410
  0.586000, -5.766540
  0.588000, -5.679850
  0.590000, -5.579400
  0.592000, -5.460890
  0.594000, -5.335820
  0.596000, -5.201870
  0.598000, -5.059780
  0.600000, -4.917640
  0.602000, -4.776620
  0.604000, -4.642490
  0.606000, -4.504400
  0.608000, -4.376170
  0.610000, -4.250570
  0.612000, -4.138540
  0.614000, -4.042740
  0.616000, -3.961360
  0.618000, -3.887860
  0.620000, -3.817420
  0.622000, -3.735700
  0.624000, -3.636550
  0.626000, -3.524050
  0.628000, -3.397380
  0.630000, -3.268650
  0.632000, -3.133020
  0.634000, -3.000290
  0.636000, -2.850450
  0.638000, -2.701020
  0.640000, -2.538940
  0.642000, -2.373550
  0.644000, -2.223150
  0.646000, -2.097900
  0.648000, -1.992530
  0.650000, -1.911200
  0.652000, -1.836980
  0.654000, -1.763500
  0.656000, -1.684320
  0.658000, -1.591110
  0.660000, -1.485340
  0.662000, -1.369810
  0.664000, -1.246190
  0.666000, -1.127450
  0.668000, -1.018210
  0.670000, -0.925250
  0.672000, -0.842340
  0.674000, -0.779100
  0.676000, -0.727790
  0.678000, -0.687950
  0.680000, -0.653440
  0.682000, -0.610900
  0.684000, -0.566190
  0.686000, -0.506310
  0.688000, -0.434450
  0.690000, -0.355550
  0.692000, -0.281650
  0.694000, -0.208660
  0.696000, -0.159740
  0.698000, -0.134470
  0.700000, -0.126100
  0.702000, -0.122440
  0.704000, -0.118750
  0.706000, -0.103060
  0.708000, -0.074750
  0.710000, -0.037090
  0.712000, -0.008170
  0.714000,  0.004950
  0.716000,  0.005380
  0.718000, -0.016790
  0.720000, -0.048510
  0.722000, -0.098400
  0.724000, -0.151530
  0.726000, -0.202220
  0.728000, -0.245900
  0.730000, -0.279540
  0.732000, -0.302470
  0.734000, -0.324800
  0.736000, -0.342410
  0.738000, -0.359580
  0.740000, -0.377730
  0.742000, -0.399820
  0.744000, -0.424170
  0.746000, -0.442880
  0.748000, -0.466390
  0.750000, -0.485230
  0.752000, -0.506370
  0.754000, -0.531290
  0.756000, -0.561480
  0.758000, -0.585660
  0.760000, -0.612460
  0.762000, -0.639250
  0.764000, -0.669260
  0.766000, -0.695690
  0.768000, -0.730420
  0.770000, -0.764840
  0.772000, -0.804320
  0.774000, -0.844210
  0.776000, -0.884960
  0.778000, -0.918100
  0.780000, -0.952840
  0.782000, -0.977210
  0.784000, -0.998970
  0.786000, -1.008720
  0.788000, -1.008820
  0.790000, -1.001330
  0.792000, -0.989870
  0.794000, -0.978000
  0.796000, -0.959500
  0.798000, -0.950350
  0.800000, -0.941780
  0.802000, -0.943620
  0.804000, -0.946490
  0.806000, -0.958620
  0.808000, -0.970020
  0.810000, -0.988160
  0.812000, -0.997480
  0.814000, -1.006910
  0.816000, -1.012960
  0.818000, -1.016730
  0.820000, -1.015420
  0.822000, -1.012110
  0.824000, -0.998700
  0.826000, -0.983760
  0.828000, -0.963570
  0.830000, -0.941890
  0.832000, -0.917660
  0.834000, -0.897520
  0.836000, -0.884600
  0.838000, -0.878650
  0.840000, -0.877680
  0.842000, -0.878120
  0.844000, -0.886470
  0.846000, -0.891440
  0.848000, -0.899220
  0.850000, -0.904410
  0.852000, -0.906400
  0.854000, -0.902600
  0.856000, -0.890760
  0.858000, -0.874420
  0.860000, -0.847640
  0.862000, -0.818380
  0.864000, -0.778310
  0.866000, -0.737530
  0.868000, -0.693900
  0.870000, -0.657870
  0.872000, -0.631620
  0.874000, -0.607720
  0.876000, -0.594830
  0.878000, -0.593830
  0.880000, -0.600690
  0.882000, -0.609860
  0.884000, -0.613590
  0.886000, -0.618000
  0.888000, -0.614000
  0.890000, -0.601310
  0.892000, -0.591590
  0.894000, -0.570560
  0.896000, -0.545760
  0.898000, -0.522080
  0.900000, -0.491700
  0.902000, -0.457170
  0.904000, -0.425150
  0.906000, -0.394900
  0.908000, -0.378320
  0.910000, -0.371610
  0.912000, -0.368140
  0.914000, -0.369330
  0.916000, -0.376140
  0.918000, -0.375610
  0.920000, -0.359610
  0.922000, -0.338620
  0.924000, -0.302330
  0.926000, -0.252270
  0.928000, -0.194600
  0.930000, -0.135090
  0.932000, -0.077680
  0.934000, -0.027280
  0.936000,  0.011240
  0.938000,  0.028620
  0.940000,  0.029040
  0.942000,  0.014590
  0.944000, -0.005880
  0.946000, -0.028510
  0.948000, -0.055340
  0.950000, -0.069780
  0.952000, -0.080490
  0.954000, -0.069900
  0.956000, -0.043510
  0.958000, -0.004480
  0.960000,  0.049150
  0.962000,  0.102760
  0.964000,  0.154400
  0.966000,  0.202490
  0.968000,  0.245640
  0.970000,  0.282170
  0.972000,  0.303940
  0.974000,  0.311450
  0.976000,  0.303940
  0.978000,  0.290130
  0.980000,  0.266850
  0.982000,  0.245580
  0.984000,  0.229450
  0.986000,  0.224830
  0.988000,  0.238010
  0.990000,  0.256580
  0.992000,  0.284620
  0.994000,  0.318790
  0.996000,  0.353760
  0.998000,  0.386670
  1.000000,  0.427030
