# z (nm)   (kJ/mol)
  0.092000,275.339120
  0.094000,271.019150
  0.096000,267.731590
  0.098000,264.635710
  0.100000,261.560170
  0.102000,258.495920
  0.104000,255.452960
  0.106000,252.396260
  0.108000,249.318890
  0.110000,246.197630
  0.112000,243.020660
  0.114000,239.777870
  0.116000,236.453000
  0.118000,233.045700
  0.120000,229.542450
  0.122000,225.935730
  0.124000,222.216110
  0.126000,218.380070
  0.128000,214.427660
  0.130000,210.358220
  0.132000,206.177550
  0.134000,201.903510
  0.136000,197.559320
  0.138000,193.177460
  0.140000,188.798640
  0.142000,184.460220
  0.144000,180.180210
  0.146000,175.980630
  0.148000,171.865100
  0.150000,167.829620
  0.152000,163.880780
  0.154000,160.008520
  0.156000,156.215710
  0.158000,152.505240
  0.160000,148.874600
  0.162000,145.318520
  0.164000,141.833170
  0.166000,138.409720
  0.168000,135.041400
  0.170000,131.729820
  0.172000,128.458310
  0.174000,125.231870
  0.176000,122.047220
  0.178000,118.899790
  0.180000,115.784770
  0.182000,112.696650
  0.184000,109.631560
  0.186000,106.597960
  0.188000,103.604010
  0.190000,100.646960
  0.192000, 97.745150
  0.194000, 94.900470
  0.196000, 92.108780
  0.198000, 89.356520
  0.200000, 86.647560
  0.202000, 83.969070
  0.204000, 81.306120
  0.206000, 78.665970
  0.208000, 76.044640
  0.210000, 73.455360
  0.212000, 70.905240
  0.214000, 68.399810
  0.216000, 65.944570
  0.218000, 63.538870
  0.220000, 61.187520
  0.222000, 58.887360
  0.224000, 56.639700
  0.226000, 54.437580
  0.228000, 52.291390
  0.230000, 50.193560
  0.232000, 48.145530
  0.234000, 46.152410
  0.236000, 44.212670
  0.238000, 42.315070
  0.240000, 40.454560
  0.242000, 38.631560
  0.244000, 36.841230
  0.246000, 35.077280
  0.248000, 33.344740
  0.250000, 31.641940
  0.252000, 29.973560
  0.254000, 28.340880
  0.256000, 26.757250
  0.258000, 25.217230
  0.260000, 23.727410
  0.262000, 22.287420
  0.264000, 20.896990
  0.266000, 19.560160
  0.268000, 18.279320
  0.270000, 17.034230
  0.272000, 15.830890
  0.274000, 14.653950
  0.276000, 13.505720
  0.278000, 12.389310
  0.280000, 11.294310
  0.282000, 10.237030
  0.284000,  9.212220
  0.286000,  8.235990
  0.288000,  7.307130
  0.290000,  6.426830
  0.292000,  5.597530
  0.294000,  4.809390
  0.296000,  4.062180
  0.298000,  3.344910
  0.300000,  2.653900
  0.302000,  1.981150
  0.304000,  1.335240
  0.306000,  0.705880
  0.308000,  0.095420
  0.310000, -0.470680
  0.312000, -1.004350
  0.314000, -1.493190
  0.316000, -1.941310
  0.318000, -2.345810
  0.320000, -2.720580
  0.322000, -3.073290
  0.324000, -3.420310
  0.326000, -3.753930
  0.328000, -4.080350
  0.330000, -4.398640
  0.332000, -4.707140
  0.334000, -5.010750
  0.336000, -5.299610
  0.338000, -5.566870
  0.340000, -5.804140
  0.342000, -6.022150
  0.344000, -6.213570
  0.346000, -6.381760
  0.348000, -6.527690
  0.350000, -6.662310
  0.352000, -6.779080
  0.354000, -6.900640
  0.356000, -7.013320
  0.358000, -7.132330
  0.360000, -7.244400
  0.362000, -7.347420
  0.364000, -7.442700
  0.366000, -7.516510
  0.368000, -7.566650
  0.370000, -7.597500
  0.372000, -7.605690
  0.374000, -7.598410
  0.376000, -7.570880
  0.378000, -7.531800
  0.380000, -7.488190
  0.382000, -7.454450
  0.384000, -7.412720
  0.386000, -7.375510
  0.388000, -7.344090
  0.390000, -7.322150
  0.392000, -7.300380
  0.394000, -7.285670
  0.396000, -7.261420
  0.398000, -7.237110
  0.400000, -7.197550
  0.402000, -7.141120
  0.404000, -7.069570
  0.406000, -6.980910
  0.408000, -6.881280
  0.410000, -6.763200
  0.412000, -6.634240
  0.414000, -6.491040
  0.416000, -6.345060
  0.418000, -6.194000
  0.420000, -6.046750
  0.422000, -5.898330
  0.424000, -5.759870
  0.426000, -5.628700
  0.428000, -5.502890
  0.430000, -5.389680
  0.432000, -5.280060
  0.434000, -5.170820
  0.436000, -5.068150
  0.438000, -4.969520
  0.440000, -4.866320
  0.442000, -4.761480
  0.444000, -4.655200
  0.446000, -4.541920
  0.448000, -4.428660
  0.450000, -4.311450
  0.452000, -4.190870
  0.454000, -4.070060
  0.456000, -3.949350
  0.458000, -3.826140
  0.460000, -3.702850
  0.462000, -3.584760
  0.464000, -3.460340
  0.466000, -3.336880
  0.468000, -3.207000
  0.470000, -3.075010
  0.472000, -2.932840
  0.474000, -2.796800
  0.476000, -2.649780
  0.478000, -2.494410
  0.480000, -2.334350
  0.482000, -2.170330
  0.484000, -2.001240
  0.486000, -1.832690
  0.488000, -1.662140
  0.490000, -1.492690
  0.492000, -1.323580
  0.494000, -1.150850
  0.496000, -0.982500
  0.498000, -0.811890
  0.500000, -0.644800
  0.502000, -0.478470
  0.504000, -0.308250
  0.506000, -0.146800
  0.508000,  0.019520
  0.510000,  0.186280
  0.512000,  0.351150
  0.514000,  0.514860
  0.516000,  0.684690
  0.518000,  0.846410
  0.520000,  1.004400
  0.522000,  1.160720
  0.524000,  1.311250
  0.526000,  1.455170
  0.528000,  1.587180
  0.530000,  1.714710
  0.532000,  1.836830
  0.534000,  1.945780
  0.536000,  2.041720
  0.538000,  2.137200
  0.540000,  2.231900
  0.542000,  2.315550
  0.544000,  2.398600
  0.546000,  2.483730
  0.548000,  2.568790
  0.550000,  2.658520
  0.552000,  2.750800
  0.554000,  2.834940
  0.556000,  2.928300
  0.558000,  3.012170
  0.560000,  3.100950
  0.562000,  3.185270
  0.564000,  3.266750
  0.566000,  3.344810
  0.568000,  3.412320
  0.570000,  3.473310
  0.572000,  3.524860
  0.574000,  3.567950
  0.576000,  3.603020
  0.578000,  3.630930
  0.580000,  3.637640
  0.582000,  3.638490
  0.584000,  3.625820
  0.586000,  3.602010
  0.588000,  3.568500
  0.590000,  3.527510
  0.592000,  3.472890
  0.594000,  3.410450
  0.596000,  3.345140
  0.598000,  3.279480
  0.600000,  3.212310
  0.602000,  3.142640
  0.604000,  3.082410
  0.606000,  3.025060
  0.608000,  2.974090
  0.610000,  2.924790
  0.612000,  2.881160
  0.614000,  2.838370
  0.616000,  2.787280
  0.618000,  2.735180
  0.620000,  2.676000
  0.622000,  2.607820
  0.624000,  2.531940
  0.626000,  2.443320
  0.628000,  2.351720
  0.630000,  2.246410
  0.632000,  2.134420
  0.634000,  2.019530
  0.636000,  1.901490
  0.638000,  1.785170
  0.640000,  1.670850
  0.642000,  1.555710
  0.644000,  1.443630
  0.646000,  1.338840
  0.648000,  1.239590
  0.650000,  1.138420
  0.652000,  1.038280
  0.654000,  0.945400
  0.656000,  0.857910
  0.658000,  0.771080
  0.660000,  0.679990
  0.662000,  0.595170
  0.664000,  0.511510
  0.666000,  0.432420
  0.668000,  0.346600
  0.670000,  0.262140
  0.672000,  0.177370
  0.674000,  0.089910
  0.676000,  0.004380
  0.678000, -0.079420
  0.680000, -0.154900
  0.682000, -0.223670
  0.684000, -0.289920
  0.686000, -0.344820
  0.688000, -0.392910
  0.690000, -0.442860
  0.692000, -0.479150
  0.694000, -0.512330
  0.696000, -0.537830
  0.698000, -0.568660
  0.700000, -0.595210
  0.702000, -0.624820
  0.704000, -0.656450
  0.706000, -0.688950
  0.708000, -0.723610
  0.710000, -0.756630
  0.712000, -0.790870
  0.714000, -0.823950
  0.716000, -0.849650
  0.718000, -0.876120
  0.720000, -0.897160
  0.722000, -0.913690
  0.724000, -0.922610
  0.726000, -0.928840
  0.728000, -0.928770
  0.730000, -0.926930
  0.732000, -0.919560
  0.734000, -0.909240
  0.736000, -0.894750
  0.738000, -0.884620
  0.740000, -0.864490
  0.742000, -0.852350
  0.744000, -0.838130
  0.746000, -0.827540
  0.748000, -0.814090
  0.750000, -0.801840
  0.752000, -0.787620
  0.754000, -0.775620
  0.756000, -0.766030
  0.758000, -0.753400
  0.760000, -0.742950
  0.762000, -0.731400
  0.764000, -0.719930
  0.766000, -0.716190
  0.768000, -0.711260
  0.770000, -0.708330
  0.772000, -0.704470
  0.774000, -0.695110
  0.776000, -0.692660
  0.778000, -0.678690
  0.780000, -0.665420
  0.782000, -0.640790
  0.784000, -0.607830
  0.786000, -0.559070
  0.788000, -0.510790
  0.790000, -0.461110
  0.792000, -0.404490
  0.794000, -0.353500
  0.796000, -0.293630
  0.798000, -0.242240
  0.800000, -0.198620
  0.802000, -0.159170
  0.804000, -0.124710
  0.806000, -0.102990
  0.808000, -0.084510
  0.810000, -0.075510
  0.812000, -0.068570
  0.814000, -0.061630
  0.816000, -0.055300
  0.818000, -0.047240
  0.820000, -0.036990
  0.822000, -0.021500
  0.824000,  0.002610
  0.826000,  0.020460
  0.828000,  0.044970
  0.830000,  0.073840
  0.832000,  0.103260
  0.834000,  0.132860
  0.836000,  0.159460
  0.838000,  0.185850
  0.840000,  0.203300
  0.842000,  0.225640
  0.844000,  0.257650
  0.846000,  0.277460
  0.848000,  0.293850
  0.850000,  0.313090
  0.852000,  0.326440
  0.854000,  0.335370
  0.856000,  0.333760
  0.858000,  0.337320
  0.860000,  0.340100
  0.862000,  0.337500
  0.864000,  0.331470
  0.866000,  0.323570
  0.868000,  0.318160
  0.870000,  0.314850
  0.872000,  0.314130
  0.874000,  0.316500
  0.876000,  0.320720
  0.878000,  0.330340
  0.880000,  0.340870
  0.882000,  0.348810
  0.884000,  0.355340
  0.886000,  0.360690
  0.888000,  0.367950
  0.890000,  0.371920
  0.892000,  0.366170
  0.894000,  0.363940
  0.896000,  0.362120
  0.898000,  0.355830
  0.900000,  0.344800
  0.902000,  0.341270
  0.904000,  0.333480
  0.906000,  0.325430
  0.908000,  0.319920
  0.910000,  0.306960
  0.912000,  0.291800
  0.914000,  0.273070
  0.916000,  0.246050
  0.918000,  0.224360
  0.920000,  0.200810
  0.922000,  0.176490
  0.924000,  0.148140
  0.926000,  0.122780
  0.928000,  0.098210
  0.930000,  0.077170
  0.932000,  0.055070
  0.934000,  0.036710
  0.936000,  0.019380
  0.938000,  0.009610
  0.940000, -0.003480
  0.942000, -0.008750
  0.944000, -0.010400
  0.946000, -0.012890
  0.948000, -0.008480
  0.950000, -0.008990
  0.952000, -0.004880
  0.954000,  0.002540
  0.956000,  0.005950
  0.958000,  0.001090
  0.960000, -0.006970
  0.962000, -0.016980
  0.964000, -0.036710
  0.966000, -0.051970
  0.968000, -0.067900
  0.970000, -0.085970
  0.972000, -0.107410
  0.974000, -0.131580
  0.976000, -0.163410
  0.978000, -0.183250
  0.980000, -0.199170
  0.982000, -0.215800
  0.984000, -0.223040
  0.986000, -0.232150
  0.988000, -0.239350
  0.990000, -0.243660
  0.992000, -0.250900
  0.994000, -0.258870
  0.996000, -0.268510
  0.998000, -0.280940
  1.000000, -0.293870
