# PMF between COM of AALA and SiO2 slab.
# 
# PMF
# z (nm)   (kJ/mol)
  0.004500, 45.889680
  0.009000, 45.349695
  0.013500, 44.876514
  0.018000, 44.392297
  0.022500, 43.845082
  0.027000, 43.249150
  0.031500, 42.645282
  0.036000, 42.036957
  0.040500, 41.390945
  0.045000, 40.666530
  0.049500, 39.834983
  0.054000, 38.917991
  0.058500, 37.933128
  0.063000, 36.914425
  0.067500, 35.874085
  0.072000, 34.811962
  0.076500, 33.730140
  0.081000, 32.628732
  0.085500, 31.513953
  0.090000, 30.402924
  0.094500, 29.306984
  0.099000, 28.229303
  0.103500, 27.188917
  0.108000, 26.183510
  0.112500, 25.219673
  0.117000, 24.298823
  0.121500, 23.423671
  0.126000, 22.569536
  0.130500, 21.732191
  0.135000, 20.911539
  0.139500, 20.108271
  0.144000, 19.334820
  0.148500, 18.618547
  0.153000, 17.947699
  0.157500, 17.338300
  0.162000, 16.769764
  0.166500, 16.230296
  0.171000, 15.705029
  0.175500, 15.192548
  0.180000, 14.694793
  0.184500, 14.212484
  0.189000, 13.748343
  0.193500, 13.309870
  0.198000, 12.894825
  0.202500, 12.505405
  0.207000, 12.135438
  0.211500, 11.790747
  0.216000, 11.459903
  0.220500, 11.141963
  0.225000, 10.833689
  0.229500, 10.540709
  0.234000, 10.263792
  0.238500,  9.999056
  0.243000,  9.749934
  0.247500,  9.513180
  0.252000,  9.295086
  0.256500,  9.078355
  0.261000,  8.876292
  0.265500,  8.671189
  0.270000,  8.493714
  0.274500,  8.349090
  0.279000,  8.245729
  0.283500,  8.184783
  0.288000,  8.142787
  0.292500,  8.111474
  0.297000,  8.083641
  0.301500,  8.049974
  0.306000,  8.010397
  0.310500,  7.958966
  0.315000,  7.872640
  0.319500,  7.757936
  0.324000,  7.605810
  0.328500,  7.415962
  0.333000,  7.180578
  0.337500,  6.906282
  0.342000,  6.585178
  0.346500,  6.221590
  0.351000,  5.814920
  0.355500,  5.371367
  0.360000,  4.898893
  0.364500,  4.413349
  0.369000,  3.919669
  0.373500,  3.434790
  0.378000,  2.964827
  0.382500,  2.523572
  0.387000,  2.114304
  0.391500,  1.745957
  0.396000,  1.414776
  0.400500,  1.120116
  0.405000,  0.855713
  0.409500,  0.625068
  0.414000,  0.415866
  0.418500,  0.231744
  0.423000,  0.078588
  0.427500, -0.045192
  0.432000, -0.139977
  0.436500, -0.208652
  0.441000, -0.247984
  0.445500, -0.263591
  0.450000, -0.263113
  0.454500, -0.247169
  0.459000, -0.227046
  0.463500, -0.201172
  0.468000, -0.178102
  0.472500, -0.157972
  0.477000, -0.142844
  0.481500, -0.127949
  0.486000, -0.107038
  0.490500, -0.077446
  0.495000, -0.036793
  0.499500,  0.010526
  0.504000,  0.077540
  0.508500,  0.151052
  0.513000,  0.227614
  0.517500,  0.301530
  0.522000,  0.366620
  0.526500,  0.418623
  0.531000,  0.458661
  0.535500,  0.485012
  0.540000,  0.504724
  0.544500,  0.525136
  0.549000,  0.542438
  0.553500,  0.559760
  0.558000,  0.583058
  0.562500,  0.608237
  0.567000,  0.633340
  0.571500,  0.658272
  0.576000,  0.681742
  0.580500,  0.703487
  0.585000,  0.723166
  0.589500,  0.741660
  0.594000,  0.749363
  0.598500,  0.758101
  0.603000,  0.758169
  0.607500,  0.752960
  0.612000,  0.742572
  0.616500,  0.716815
  0.621000,  0.683926
  0.625500,  0.646595
  0.630000,  0.605448
  0.634500,  0.560868
  0.639000,  0.519333
  0.643500,  0.483099
  0.648000,  0.451592
  0.652500,  0.416648
  0.657000,  0.386527
  0.661500,  0.340079
  0.666000,  0.292345
  0.670500,  0.238260
  0.675000,  0.173234
  0.679500,  0.101546
  0.684000,  0.034202
  0.688500, -0.026316
  0.693000, -0.070417
  0.697500, -0.104862
  0.702000, -0.126976
  0.706500, -0.145177
  0.711000, -0.164392
  0.715500, -0.187315
  0.720000, -0.209633
  0.724500, -0.233980
  0.729000, -0.257368
  0.733500, -0.278631
  0.738000, -0.294274
  0.742500, -0.300245
  0.747000, -0.305725
  0.751500, -0.300332
  0.756000, -0.286071
  0.760500, -0.265359
  0.765000, -0.241479
  0.769500, -0.217199
  0.774000, -0.197060
  0.778500, -0.179854
  0.783000, -0.159594
  0.787500, -0.137689
  0.792000, -0.111480
  0.796500, -0.075947
  0.801000, -0.043260
  0.805500, -0.005555
  0.810000,  0.026024
  0.814500,  0.050400
  0.819000,  0.067271
  0.823500,  0.078126
  0.828000,  0.085098
  0.832500,  0.085464
  0.837000,  0.096557
  0.841500,  0.107746
  0.846000,  0.123166
  0.850500,  0.152172
  0.855000,  0.178120
  0.859500,  0.206136
  0.864000,  0.228140
  0.868500,  0.252289
  0.873000,  0.265104
  0.877500,  0.266240
  0.882000,  0.268350
  0.886500,  0.266203
  0.891000,  0.256148
  0.895500,  0.240591
  0.900000,  0.225250
  0.904500,  0.208622
  0.909000,  0.193540
  0.913500,  0.181600
  0.918000,  0.171882
  0.922500,  0.166887
  0.927000,  0.165238
  0.931500,  0.162690
  0.936000,  0.165610
  0.940500,  0.170681
  0.945000,  0.166855
  0.949500,  0.162818
  0.954000,  0.151353
  0.958500,  0.138137
  0.963000,  0.120045
  0.967500,  0.109018
  0.972000,  0.112409
  0.976500,  0.114056
  0.981000,  0.116094
  0.985500,  0.121752
  0.990000,  0.119817
  0.994500,  0.113309
  0.999000,  0.101450
  1.003500,  0.080859
  1.008000,  0.058705
  1.012500,  0.032838
  1.017000,  0.013214
  1.021500, -0.008160
  1.026000, -0.026731
  1.030500, -0.033621
  1.035000, -0.033111
  1.039500, -0.039942
  1.044000, -0.032060
  1.048500, -0.023007
  1.053000, -0.012926
  1.057500, -0.005863
  1.062000,  0.000082
  1.066500,  0.003898
  1.071000, -0.006259
  1.075500, -0.023236
  1.080000, -0.045465
  1.084500, -0.072690
  1.089000, -0.099331
  1.093500, -0.125801
  1.098000, -0.147873
  1.102500, -0.153259
  1.107000, -0.142483
  1.111500, -0.132213
  1.116000, -0.117999
  1.120500, -0.103338
  1.125000, -0.079955
  1.129500, -0.072776
  1.134000, -0.070977
  1.138500, -0.071806
  1.143000, -0.079740
  1.147500, -0.090971
  1.152000, -0.097605
  1.156500, -0.106010
  1.161000, -0.105948
  1.165500, -0.103204
  1.170000, -0.095758
  1.174500, -0.082433
  1.179000, -0.063092
  1.183500, -0.043999
  1.188000, -0.024772
  1.192500, -0.009612
  1.197000,  0.001666
  1.201500,  0.003466
  1.206000,  0.001035
  1.210500, -0.008097
  1.215000, -0.023924
  1.219500, -0.033072
  1.224000, -0.038968
  1.228500, -0.048911
  1.233000, -0.059987
  1.237500, -0.058445
  1.242000, -0.055334
  1.246500, -0.051433
  1.251000, -0.047377
  1.255500, -0.041785
  1.260000, -0.037876
  1.264500, -0.031215
  1.269000, -0.028262
  1.273500, -0.020038
  1.278000, -0.019395
  1.282500, -0.009305
  1.287000, -0.004032
  1.291500, -0.002493
  1.296000, -0.002714
  1.300500, -0.010829
  1.305000, -0.020110
  1.309500, -0.037259
  1.314000, -0.058029
  1.318500, -0.078749
  1.323000, -0.093880
  1.327500, -0.110126
  1.332000, -0.110602
  1.336500, -0.105230
  1.341000, -0.101775
  1.345500, -0.088191
  1.350000, -0.077387
  1.354500, -0.063537
  1.359000, -0.050935
  1.363500, -0.042249
  1.368000, -0.029739
  1.372500, -0.018963
  1.377000, -0.016697
  1.381500, -0.015650
  1.386000, -0.028768
  1.390500, -0.046763
  1.395000, -0.061541
  1.399500, -0.076183
  1.404000, -0.084057
  1.408500, -0.078056
  1.413000, -0.070175
  1.417500, -0.049051
  1.422000, -0.023139
  1.426500, -0.001125
  1.431000,  0.007891
  1.435500,  0.016213
  1.440000,  0.020480
  1.444500,  0.014453
  1.449000,  0.009753
  1.453500,  0.008785
  1.458000,  0.014004
  1.462500,  0.023026
  1.467000,  0.036805
  1.471500,  0.055022
  1.476000,  0.068340
  1.480500,  0.085169
  1.485000,  0.096522
  1.489500,  0.098357
  1.494000,  0.102593
  1.498500,  0.099217
