# PMF between COM of AARG and SiO2 slab.
#
#               PMF
# z (nm)   (kJ/mol)   
 0.0540  316.475587
 0.0585  313.095882
 0.0630  310.369727
 0.0675  307.663219
 0.0720  305.112373
 0.0765  302.751605
 0.0810  300.318351
 0.0855  297.869655
 0.0900  295.336924
 0.0945  292.654852
 0.0990  289.782617
 0.1035  286.640052
 0.1080  283.150232
 0.1125  279.221933
 0.1170  274.757149
 0.1215  269.659332
 0.1260  263.881255
 0.1305  257.425307
 0.1350  250.301276
 0.1395  242.481772
 0.1440  233.962754
 0.1485  224.950780
 0.1530  215.812191
 0.1575  207.007521
 0.1620  198.954475
 0.1665  191.661095
 0.1710  184.641039
 0.1755  177.423371
 0.1800  170.069543
 0.1845  162.948709
 0.1890  156.193772
 0.1935  149.792483
 0.1980  143.683501
 0.2025  137.728316
 0.2070  131.825760
 0.2115  125.892242
 0.2160  119.976446
 0.2205  114.439682
 0.2250  109.461601
 0.2295  104.675459
 0.2340   99.887443
 0.2385   95.366628
 0.2430   91.119729
 0.2475   86.964502
 0.2520   82.888994
 0.2565   78.939761
 0.2610   75.171867
 0.2655   71.667421
 0.2700   68.388136
 0.2745   65.115483
 0.2790   61.739924
 0.2835   58.356914
 0.2880   55.102982
 0.2925   51.989866
 0.2970   48.958598
 0.3015   46.050081
 0.3060   43.355471
 0.3105   40.883907
 0.3150   38.546694
 0.3195   36.330396
 0.3240   34.296809
 0.3285   32.499834
 0.3330   30.902220
 0.3375   29.385904
 0.3420   27.912474
 0.3465   26.554332
 0.3510   25.390859
 0.3555   24.391663
 0.3600   23.422262
 0.3645   22.408025
 0.3690   21.357923
 0.3735   20.272084
 0.3780   19.162118
 0.3825   18.031643
 0.3870   16.873080
 0.3915   15.677601
 0.3960   14.467502
 0.4005   13.297513
 0.4050   12.246362
 0.4095   11.326443
 0.4140   10.502462
 0.4185    9.729150
 0.4230    8.983328
 0.4275    8.267225
 0.4320    7.615989
 0.4365    7.084576
 0.4410    6.697782
 0.4455    6.414884
 0.4500    6.154367
 0.4545    5.867231
 0.4590    5.588405
 0.4635    5.354382
 0.4680    5.138387
 0.4725    4.944265
 0.4770    4.760191
 0.4815    4.594212
 0.4860    4.448733
 0.4905    4.314340
 0.4950    4.155099
 0.4995    3.985318
 0.5040    3.795746
 0.5085    3.612944
 0.5130    3.456649
 0.5175    3.304083
 0.5220    3.150304
 0.5265    2.992926
 0.5310    2.861544
 0.5355    2.759296
 0.5400    2.663114
 0.5445    2.549820
 0.5490    2.402110
 0.5535    2.266389
 0.5580    2.161318
 0.5625    2.113455
 0.5670    2.096577
 0.5715    2.080559
 0.5760    2.027804
 0.5805    1.925250
 0.5850    1.809180
 0.5895    1.731223
 0.5940    1.722575
 0.5985    1.720268
 0.6030    1.672199
 0.6075    1.601859
 0.6120    1.551223
 0.6165    1.512899
 0.6210    1.460570
 0.6255    1.387271
 0.6300    1.312002
 0.6345    1.251782
 0.6390    1.215079
 0.6435    1.183499
 0.6480    1.139014
 0.6525    1.072428
 0.6570    1.002224
 0.6615    0.969378
 0.6660    0.976604
 0.6705    0.984020
 0.6750    0.934349
 0.6795    0.843411
 0.6840    0.782796
 0.6885    0.763194
 0.6930    0.750858
 0.6975    0.707106
 0.7020    0.650826
 0.7065    0.608289
 0.7110    0.589072
 0.7155    0.596252
 0.7200    0.608413
 0.7245    0.604390
 0.7290    0.563623
 0.7335    0.503111
 0.7380    0.435475
 0.7425    0.396625
 0.7470    0.398056
 0.7515    0.417967
 0.7560    0.402627
 0.7605    0.334605
 0.7650    0.238253
 0.7695    0.178309
 0.7740    0.197575
 0.7785    0.279142
 0.7830    0.340205
 0.7875    0.318465
 0.7920    0.243216
 0.7965    0.163454
 0.8010    0.110951
 0.8055    0.130689
 0.8100    0.198735
 0.8145    0.270793
 0.8190    0.295000
 0.8235    0.261842
 0.8280    0.211794
 0.8325    0.170180
 0.8370    0.161741
 0.8415    0.190733
 0.8460    0.240676
 0.8505    0.283308
 0.8550    0.276271
 0.8595    0.225933
 0.8640    0.171982
 0.8685    0.166212
 0.8730    0.220208
 0.8775    0.289267
 0.8820    0.315122
 0.8865    0.311143
 0.8910    0.299356
 0.8955    0.283368
 0.9000    0.273525
 0.9045    0.291216
 0.9090    0.321029
 0.9135    0.356070
 0.9180    0.362500
 0.9225    0.357800
 0.9270    0.341685
 0.9315    0.333289
 0.9360    0.348291
 0.9405    0.359461
 0.9450    0.369344
 0.9495    0.357518
 0.9540    0.337206
 0.9585    0.326281
 0.9630    0.315966
 0.9675    0.333068
 0.9720    0.364967
 0.9765    0.384526
 0.9810    0.359569
 0.9855    0.285271
 0.9900    0.216460
 0.9945    0.202486
 0.9990    0.251091
 1.0035    0.336164
 1.0080    0.394693
 1.0125    0.396229
 1.0170    0.338147
 1.0215    0.256234
 1.0260    0.200711
 1.0305    0.201666
 1.0350    0.243269
 1.0395    0.287147
 1.0440    0.300151
 1.0485    0.272243
 1.0530    0.229627
 1.0575    0.205471
 1.0620    0.196711
 1.0665    0.202504
 1.0710    0.215846
 1.0755    0.226598
 1.0800    0.220985
 1.0845    0.192062
 1.0890    0.153926
 1.0935    0.111199
 1.0980    0.094218
 1.1025    0.117520
 1.1070    0.166909
 1.1115    0.225389
 1.1160    0.264852
 1.1205    0.261321
 1.1250    0.204819
 1.1295    0.127388
 1.1340    0.070922
 1.1385    0.068053
 1.1430    0.119012
 1.1475    0.190706
 1.1520    0.238723
 1.1565    0.217020
 1.1610    0.131592
 1.1655    0.013172
 1.1700   -0.079424
 1.1745   -0.105059
 1.1790   -0.041932
 1.1835    0.035603
 1.1880    0.079374
 1.1925    0.063444
 1.1970    0.011089
 1.2015   -0.040481
 1.2060   -0.075586
 1.2105   -0.091603
 1.2150   -0.088939
 1.2195   -0.085100
 1.2240   -0.089299
 1.2285   -0.104211
 1.2330   -0.103676
 1.2375   -0.083789
 1.2420   -0.046472
 1.2465   -0.028299
 1.2510   -0.042128
 1.2555   -0.088359
 1.2600   -0.145483
 1.2645   -0.175567
 1.2690   -0.150602
 1.2735   -0.094956
 1.2780   -0.031564
 1.2825   -0.005594
 1.2870   -0.019494
 1.2915   -0.046646
 1.2960   -0.065158
 1.3005   -0.088894
 1.3050   -0.111999
 1.3095   -0.113567
 1.3140   -0.060686
 1.3185    0.033777
 1.3230    0.092918
 1.3275    0.067354
 1.3320   -0.028643
 1.3365   -0.133284
 1.3410   -0.170661
 1.3455   -0.116439
 1.3500   -0.016104
 1.3545    0.057401
 1.3590    0.060385
 1.3635   -0.028146
 1.3680   -0.155650
 1.3725   -0.246916
 1.3770   -0.243590
 1.3815   -0.149983
 1.3860   -0.016453
 1.3905    0.090223
 1.3950    0.127644
 1.3995    0.095640
 1.4040    0.024980
 1.4085   -0.034401
 1.4130   -0.076785
 1.4175   -0.077794
 1.4220   -0.046615
 1.4265    0.007020
 1.4310    0.073361
 1.4355    0.112107
 1.4400    0.092857
 1.4445    0.034274
 1.4490   -0.010585
 1.4535   -0.011980
 1.4580    0.015118
 1.4625    0.028453
 1.4670    0.019240
 1.4715    0.025077
 1.4760    0.075402
 1.4805    0.114378
 1.4850    0.073407
 1.4895   -0.011538
 1.4940   -0.020476
 1.4985    0.061343
