# PMF between COM of AHIE and SiO2 slab.
#
#               PMF
# z (nm)   (kJ/mol)   
 0.0225  323.441768
 0.0270  321.104037
 0.0315  318.825447
 0.0360  315.675629
 0.0405  312.424778
 0.0450  309.499548
 0.0495  306.757587
 0.0540  303.991684
 0.0585  301.154692
 0.0630  298.178500
 0.0675  295.028240
 0.0720  291.656580
 0.0765  288.014710
 0.0810  284.055406
 0.0855  279.715066
 0.0900  274.927714
 0.0945  269.606860
 0.0990  263.643796
 0.1035  256.909612
 0.1080  249.227354
 0.1125  240.448639
 0.1170  230.697585
 0.1215  220.589167
 0.1260  210.808424
 0.1305  201.559969
 0.1350  192.784973
 0.1395  184.485632
 0.1440  176.590475
 0.1485  169.023315
 0.1530  161.904180
 0.1575  155.228531
 0.1620  148.762858
 0.1665  142.429347
 0.1710  136.326620
 0.1755  130.519395
 0.1800  125.024917
 0.1845  119.782841
 0.1890  114.793982
 0.1935  110.078285
 0.1980  105.589532
 0.2025  101.185073
 0.2070   96.798789
 0.2115   92.633090
 0.2160   88.927672
 0.2205   85.624289
 0.2250   82.435039
 0.2295   79.238786
 0.2340   76.175418
 0.2385   73.401159
 0.2430   70.989092
 0.2475   68.855471
 0.2520   66.862655
 0.2565   64.928823
 0.2610   63.127011
 0.2655   61.476426
 0.2700   59.873684
 0.2745   58.287428
 0.2790   56.825616
 0.2835   55.485505
 0.2880   54.179445
 0.2925   52.878004
 0.2970   51.579869
 0.3015   50.228586
 0.3060   48.781424
 0.3105   47.208221
 0.3150   45.509720
 0.3195   43.683076
 0.3240   41.658591
 0.3285   39.465069
 0.3330   37.150838
 0.3375   34.722631
 0.3420   32.154602
 0.3465   29.510578
 0.3510   26.890701
 0.3555   24.422882
 0.3600   22.171184
 0.3645   20.141882
 0.3690   18.297820
 0.3735   16.611884
 0.3780   15.059737
 0.3825   13.655556
 0.3870   12.399653
 0.3915   11.291721
 0.3960   10.302621
 0.4005    9.411595
 0.4050    8.603684
 0.4095    7.860986
 0.4140    7.171956
 0.4185    6.524692
 0.4230    5.923479
 0.4275    5.361375
 0.4320    4.826911
 0.4365    4.317504
 0.4410    3.861368
 0.4455    3.458108
 0.4500    3.097069
 0.4545    2.742066
 0.4590    2.377871
 0.4635    2.020481
 0.4680    1.696963
 0.4725    1.405230
 0.4770    1.117982
 0.4815    0.827647
 0.4860    0.567635
 0.4905    0.381760
 0.4950    0.282054
 0.4995    0.227685
 0.5040    0.137968
 0.5085   -0.000726
 0.5130   -0.152717
 0.5175   -0.272119
 0.5220   -0.312936
 0.5265   -0.249563
 0.5310   -0.126419
 0.5355   -0.003064
 0.5400    0.055053
 0.5445    0.047811
 0.5490   -0.008962
 0.5535   -0.054316
 0.5580   -0.044086
 0.5625    0.022987
 0.5670    0.114360
 0.5715    0.191787
 0.5760    0.234915
 0.5805    0.239579
 0.5850    0.227500
 0.5895    0.219654
 0.5940    0.223304
 0.5985    0.232645
 0.6030    0.237749
 0.6075    0.236445
 0.6120    0.241154
 0.6165    0.265413
 0.6210    0.305485
 0.6255    0.353600
 0.6300    0.395165
 0.6345    0.411740
 0.6390    0.394989
 0.6435    0.366378
 0.6480    0.335649
 0.6525    0.304014
 0.6570    0.290663
 0.6615    0.264779
 0.6660    0.225772
 0.6705    0.180635
 0.6750    0.132723
 0.6795    0.087707
 0.6840    0.060484
 0.6885    0.053727
 0.6930    0.050745
 0.6975    0.045042
 0.7020    0.003122
 0.7065   -0.062068
 0.7110   -0.138202
 0.7155   -0.199668
 0.7200   -0.231873
 0.7245   -0.236004
 0.7290   -0.217043
 0.7335   -0.206791
 0.7380   -0.233760
 0.7425   -0.293459
 0.7470   -0.366535
 0.7515   -0.424632
 0.7560   -0.457556
 0.7605   -0.463927
 0.7650   -0.446660
 0.7695   -0.418831
 0.7740   -0.407071
 0.7785   -0.421374
 0.7830   -0.464241
 0.7875   -0.498252
 0.7920   -0.511004
 0.7965   -0.489632
 0.8010   -0.447139
 0.8055   -0.407062
 0.8100   -0.391459
 0.8145   -0.415075
 0.8190   -0.454994
 0.8235   -0.483550
 0.8280   -0.482214
 0.8325   -0.442239
 0.8370   -0.397206
 0.8415   -0.358769
 0.8460   -0.336630
 0.8505   -0.317912
 0.8550   -0.301267
 0.8595   -0.287423
 0.8640   -0.292003
 0.8685   -0.318706
 0.8730   -0.332520
 0.8775   -0.322593
 0.8820   -0.281805
 0.8865   -0.231007
 0.8910   -0.208371
 0.8955   -0.221477
 0.9000   -0.261039
 0.9045   -0.297437
 0.9090   -0.308909
 0.9135   -0.290135
 0.9180   -0.245738
 0.9225   -0.215979
 0.9270   -0.200145
 0.9315   -0.203828
 0.9360   -0.218624
 0.9405   -0.231563
 0.9450   -0.236676
 0.9495   -0.224831
 0.9540   -0.198143
 0.9585   -0.163768
 0.9630   -0.130885
 0.9675   -0.119792
 0.9720   -0.137335
 0.9765   -0.184032
 0.9810   -0.225279
 0.9855   -0.247700
 0.9900   -0.251187
 0.9945   -0.230766
 0.9990   -0.203843
 1.0035   -0.179895
 1.0080   -0.173782
 1.0125   -0.186267
 1.0170   -0.209454
 1.0215   -0.238873
 1.0260   -0.254846
 1.0305   -0.259864
 1.0350   -0.259888
 1.0395   -0.266811
 1.0440   -0.293501
 1.0485   -0.327798
 1.0530   -0.360413
 1.0575   -0.363553
 1.0620   -0.344970
 1.0665   -0.311605
 1.0710   -0.288191
 1.0755   -0.291285
 1.0800   -0.317538
 1.0845   -0.344519
 1.0890   -0.366179
 1.0935   -0.363315
 1.0980   -0.351447
 1.1025   -0.341880
 1.1070   -0.349520
 1.1115   -0.377041
 1.1160   -0.409570
 1.1205   -0.423994
 1.1250   -0.418951
 1.1295   -0.398632
 1.1340   -0.385044
 1.1385   -0.382474
 1.1430   -0.396296
 1.1475   -0.413270
 1.1520   -0.429356
 1.1565   -0.438113
 1.1610   -0.431723
 1.1655   -0.412089
 1.1700   -0.372885
 1.1745   -0.338733
 1.1790   -0.317737
 1.1835   -0.324071
 1.1880   -0.340641
 1.1925   -0.351356
 1.1970   -0.339352
 1.2015   -0.315551
 1.2060   -0.276083
 1.2105   -0.248456
 1.2150   -0.225279
 1.2195   -0.220279
 1.2240   -0.236488
 1.2285   -0.265831
 1.2330   -0.304588
 1.2375   -0.332946
 1.2420   -0.344385
 1.2465   -0.332238
 1.2510   -0.300123
 1.2555   -0.259454
 1.2600   -0.225751
 1.2645   -0.226078
 1.2690   -0.249890
 1.2735   -0.289879
 1.2780   -0.333971
 1.2825   -0.344419
 1.2870   -0.320601
 1.2915   -0.258087
 1.2960   -0.188203
 1.3005   -0.132734
 1.3050   -0.102910
 1.3095   -0.102563
 1.3140   -0.124942
 1.3185   -0.157589
 1.3230   -0.190327
 1.3275   -0.198204
 1.3320   -0.166052
 1.3365   -0.098439
 1.3410   -0.028088
 1.3455    0.006418
 1.3500   -0.016598
 1.3545   -0.079184
 1.3590   -0.127564
 1.3635   -0.119282
 1.3680   -0.072126
 1.3725   -0.009755
 1.3770    0.034615
 1.3815    0.051029
 1.3860    0.043629
 1.3905    0.012996
 1.3950   -0.035221
 1.3995   -0.066393
 1.4040   -0.056029
 1.4085   -0.009740
 1.4130    0.028302
 1.4175    0.031187
 1.4220   -0.002145
 1.4265   -0.036268
 1.4310   -0.047605
 1.4355   -0.030444
 1.4400   -0.000487
 1.4445    0.028695
 1.4490    0.051027
 1.4535    0.063792
 1.4580    0.055164
 1.4625    0.026207
 1.4670   -0.009633
 1.4715   -0.032766
 1.4760   -0.027367
 1.4805   -0.000190
 1.4850    0.038459
 1.4895    0.076508
 1.4940    0.083010
 1.4985    0.058393
