# PMF between COM of AILE and SiO2 slab.
#
#               PMF
# z (nm)   (kJ/mol)   
 0.0270  325.333225
 0.0315  321.799350
 0.0360  318.946757
 0.0405  316.138424
 0.0450  313.450270
 0.0495  310.787354
 0.0540  308.033518
 0.0585  305.161422
 0.0630  302.112246
 0.0675  298.807933
 0.0720  295.198374
 0.0765  291.230303
 0.0810  286.849626
 0.0855  282.008814
 0.0900  276.682288
 0.0945  270.849431
 0.0990  264.516998
 0.1035  257.699939
 0.1080  250.417021
 0.1125  242.658687
 0.1170  234.426701
 0.1215  225.921507
 0.1260  217.586837
 0.1305  209.736060
 0.1350  202.409404
 0.1395  195.557436
 0.1440  189.147447
 0.1485  183.198676
 0.1530  177.668895
 0.1575  172.394300
 0.1620  167.192489
 0.1665  162.013857
 0.1710  156.929987
 0.1755  152.145019
 0.1800  147.837575
 0.1845  143.910150
 0.1890  140.111028
 0.1935  136.257976
 0.1980  132.372144
 0.2025  128.875986
 0.2070  125.990782
 0.2115  123.271375
 0.2160  120.372110
 0.2205  117.477840
 0.2250  114.765003
 0.2295  112.167180
 0.2340  109.590445
 0.2385  107.017526
 0.2430  104.470443
 0.2475  101.934762
 0.2520   99.371628
 0.2565   96.730028
 0.2610   94.012243
 0.2655   91.230262
 0.2700   88.407404
 0.2745   85.515787
 0.2790   82.562540
 0.2835   79.557130
 0.2880   76.520890
 0.2925   73.459099
 0.2970   70.337879
 0.3015   67.156940
 0.3060   63.932520
 0.3105   60.727057
 0.3150   57.567942
 0.3195   54.442633
 0.3240   51.307206
 0.3285   48.173621
 0.3330   45.081558
 0.3375   42.098066
 0.3420   39.242807
 0.3465   36.484864
 0.3510   33.799226
 0.3555   31.204810
 0.3600   28.730581
 0.3645   26.391205
 0.3690   24.178566
 0.3735   22.099443
 0.3780   20.176847
 0.3825   18.416044
 0.3870   16.790637
 0.3915   15.257632
 0.3960   13.803313
 0.4005   12.420258
 0.4050   11.136623
 0.4095    9.980647
 0.4140    8.963327
 0.4185    8.065902
 0.4230    7.241866
 0.4275    6.452763
 0.4320    5.683426
 0.4365    4.955325
 0.4410    4.302628
 0.4455    3.737113
 0.4500    3.258342
 0.4545    2.853484
 0.4590    2.511614
 0.4635    2.208831
 0.4680    1.937475
 0.4725    1.683951
 0.4770    1.440120
 0.4815    1.217592
 0.4860    1.014567
 0.4905    0.847748
 0.4950    0.699438
 0.4995    0.583719
 0.5040    0.491272
 0.5085    0.412500
 0.5130    0.344824
 0.5175    0.276771
 0.5220    0.204751
 0.5265    0.130711
 0.5310    0.067093
 0.5355    0.009579
 0.5400   -0.023332
 0.5445   -0.044691
 0.5490   -0.061226
 0.5535   -0.096324
 0.5580   -0.147205
 0.5625   -0.205593
 0.5670   -0.244799
 0.5715   -0.250357
 0.5760   -0.226856
 0.5805   -0.189462
 0.5850   -0.156285
 0.5895   -0.148360
 0.5940   -0.177037
 0.5985   -0.218941
 0.6030   -0.241481
 0.6075   -0.230656
 0.6120   -0.186477
 0.6165   -0.120264
 0.6210   -0.066077
 0.6255   -0.043088
 0.6300   -0.050996
 0.6345   -0.077034
 0.6390   -0.107839
 0.6435   -0.123907
 0.6480   -0.129983
 0.6525   -0.123838
 0.6570   -0.108116
 0.6615   -0.084914
 0.6660   -0.052846
 0.6705   -0.020415
 0.6750    0.001379
 0.6795   -0.009816
 0.6840   -0.057417
 0.6885   -0.140170
 0.6930   -0.224102
 0.6975   -0.279247
 0.7020   -0.297321
 0.7065   -0.295687
 0.7110   -0.297503
 0.7155   -0.311115
 0.7200   -0.342369
 0.7245   -0.386220
 0.7290   -0.424375
 0.7335   -0.471439
 0.7380   -0.527273
 0.7425   -0.598946
 0.7470   -0.672322
 0.7515   -0.719812
 0.7560   -0.731593
 0.7605   -0.711009
 0.7650   -0.686646
 0.7695   -0.693904
 0.7740   -0.739210
 0.7785   -0.801171
 0.7830   -0.856759
 0.7875   -0.877967
 0.7920   -0.865856
 0.7965   -0.846355
 0.8010   -0.850454
 0.8055   -0.878220
 0.8100   -0.916143
 0.8145   -0.951194
 0.8190   -0.955085
 0.8235   -0.936151
 0.8280   -0.906693
 0.8325   -0.880824
 0.8370   -0.862215
 0.8415   -0.845144
 0.8460   -0.817772
 0.8505   -0.789842
 0.8550   -0.755303
 0.8595   -0.734936
 0.8640   -0.732158
 0.8685   -0.744196
 0.8730   -0.754396
 0.8775   -0.750101
 0.8820   -0.722529
 0.8865   -0.674195
 0.8910   -0.614017
 0.8955   -0.559809
 0.9000   -0.508786
 0.9045   -0.473788
 0.9090   -0.449658
 0.9135   -0.442526
 0.9180   -0.439936
 0.9225   -0.428061
 0.9270   -0.414760
 0.9315   -0.393082
 0.9360   -0.368379
 0.9405   -0.339355
 0.9450   -0.309885
 0.9495   -0.274647
 0.9540   -0.240561
 0.9585   -0.214731
 0.9630   -0.203530
 0.9675   -0.207571
 0.9720   -0.218476
 0.9765   -0.230816
 0.9810   -0.228344
 0.9855   -0.221477
 0.9900   -0.208637
 0.9945   -0.182180
 0.9990   -0.159713
 1.0035   -0.154777
 1.0080   -0.168882
 1.0125   -0.200845
 1.0170   -0.248440
 1.0215   -0.283244
 1.0260   -0.291770
 1.0305   -0.263732
 1.0350   -0.206666
 1.0395   -0.140197
 1.0440   -0.107355
 1.0485   -0.144134
 1.0530   -0.239060
 1.0575   -0.330498
 1.0620   -0.376907
 1.0665   -0.355672
 1.0710   -0.286628
 1.0755   -0.209823
 1.0800   -0.163459
 1.0845   -0.168326
 1.0890   -0.201206
 1.0935   -0.254018
 1.0980   -0.295726
 1.1025   -0.312261
 1.1070   -0.297553
 1.1115   -0.259043
 1.1160   -0.220161
 1.1205   -0.194320
 1.1250   -0.183968
 1.1295   -0.191446
 1.1340   -0.199687
 1.1385   -0.211632
 1.1430   -0.218202
 1.1475   -0.220784
 1.1520   -0.217168
 1.1565   -0.204778
 1.1610   -0.192353
 1.1655   -0.176707
 1.1700   -0.159627
 1.1745   -0.153743
 1.1790   -0.163715
 1.1835   -0.184391
 1.1880   -0.207436
 1.1925   -0.224867
 1.1970   -0.226021
 1.2015   -0.209243
 1.2060   -0.189767
 1.2105   -0.169806
 1.2150   -0.156804
 1.2195   -0.142732
 1.2240   -0.127899
 1.2285   -0.122368
 1.2330   -0.118709
 1.2375   -0.127463
 1.2420   -0.150716
 1.2465   -0.177097
 1.2510   -0.196454
 1.2555   -0.190765
 1.2600   -0.141014
 1.2645   -0.047436
 1.2690    0.061707
 1.2735    0.142280
 1.2780    0.154386
 1.2825    0.082788
 1.2870   -0.052759
 1.2915   -0.185052
 1.2960   -0.258711
 1.3005   -0.232984
 1.3050   -0.139943
 1.3095   -0.025479
 1.3140    0.072268
 1.3185    0.121282
 1.3230    0.097284
 1.3275    0.014203
 1.3320   -0.089303
 1.3365   -0.168530
 1.3410   -0.190817
 1.3455   -0.170090
 1.3500   -0.121775
 1.3545   -0.069151
 1.3590   -0.025284
 1.3635    0.003286
 1.3680    0.018177
 1.3725    0.017723
 1.3770    0.012037
 1.3815   -0.004285
 1.3860   -0.033463
 1.3905   -0.066875
 1.3950   -0.094510
 1.3995   -0.104172
 1.4040   -0.080824
 1.4085   -0.025798
 1.4130    0.034092
 1.4175    0.086905
 1.4220    0.108357
 1.4265    0.088089
 1.4310    0.036229
 1.4355   -0.027468
 1.4400   -0.066217
 1.4445   -0.069236
 1.4490   -0.039500
 1.4535    0.001052
 1.4580    0.034821
 1.4625    0.051464
 1.4670    0.052849
 1.4715    0.044789
 1.4760    0.032175
 1.4805    0.019257
 1.4850    0.008707
 1.4895   -0.000374
 1.4940   -0.004825
 1.4985   -0.007178
