# PMF between COM of ALEU and SiO2 slab.
# 
# PMF
# z (nm)   (kJ/mol)
  0.040500,319.546356
  0.045000,315.545535
  0.049500,312.318254
  0.054000,308.949139
  0.058500,305.549580
  0.063000,302.040728
  0.067500,298.366157
  0.072000,294.485469
  0.076500,290.311880
  0.081000,285.809994
  0.085500,280.935738
  0.090000,275.636520
  0.094500,269.859680
  0.099000,263.557040
  0.103500,256.710441
  0.108000,249.363418
  0.112500,241.624285
  0.117000,233.653807
  0.121500,225.600887
  0.126000,217.581896
  0.130500,209.684876
  0.135000,201.978389
  0.139500,194.531912
  0.144000,187.408678
  0.148500,180.678303
  0.153000,174.398229
  0.157500,168.574939
  0.162000,163.153123
  0.166500,158.007734
  0.171000,153.015717
  0.175500,148.122277
  0.180000,143.331227
  0.184500,138.700476
  0.189000,134.300677
  0.193500,130.140025
  0.198000,126.149289
  0.202500,122.229091
  0.207000,118.377300
  0.211500,114.650158
  0.216000,111.098567
  0.220500,107.710004
  0.225000,104.440292
  0.229500,101.266187
  0.234000, 98.177031
  0.238500, 95.194631
  0.243000, 92.349708
  0.247500, 89.683827
  0.252000, 87.201655
  0.256500, 84.832034
  0.261000, 82.463611
  0.265500, 80.042865
  0.270000, 77.619129
  0.274500, 75.289847
  0.279000, 73.080437
  0.283500, 70.944213
  0.288000, 68.818222
  0.292500, 66.708527
  0.297000, 64.615643
  0.301500, 62.554481
  0.306000, 60.484241
  0.310500, 58.365789
  0.315000, 56.250334
  0.319500, 54.140662
  0.324000, 51.950283
  0.328500, 49.597999
  0.333000, 47.116089
  0.337500, 44.596829
  0.342000, 42.076543
  0.346500, 39.545909
  0.351000, 36.979211
  0.355500, 34.403084
  0.360000, 31.873332
  0.364500, 29.450449
  0.369000, 27.164782
  0.373500, 24.992891
  0.378000, 22.920630
  0.382500, 20.951897
  0.387000, 19.106206
  0.391500, 17.390269
  0.396000, 15.821750
  0.400500, 14.426551
  0.405000, 13.199154
  0.409500, 12.094836
  0.414000, 11.064402
  0.418500, 10.059204
  0.423000,  9.085404
  0.427500,  8.143877
  0.432000,  7.277937
  0.436500,  6.519378
  0.441000,  5.880566
  0.445500,  5.343466
  0.450000,  4.871693
  0.454500,  4.404903
  0.459000,  3.938606
  0.463500,  3.469355
  0.468000,  3.002201
  0.472500,  2.573027
  0.477000,  2.192271
  0.481500,  1.883808
  0.486000,  1.639047
  0.490500,  1.434166
  0.495000,  1.258613
  0.499500,  1.083784
  0.504000,  0.910574
  0.508500,  0.734640
  0.513000,  0.570131
  0.517500,  0.420313
  0.522000,  0.286569
  0.526500,  0.172557
  0.531000,  0.097851
  0.535500,  0.057606
  0.540000,  0.051540
  0.544500,  0.069503
  0.549000,  0.090208
  0.553500,  0.108857
  0.558000,  0.110657
  0.562500,  0.099888
  0.567000,  0.080205
  0.571500,  0.070078
  0.576000,  0.090323
  0.580500,  0.134052
  0.585000,  0.197692
  0.589500,  0.256926
  0.594000,  0.305391
  0.598500,  0.337180
  0.603000,  0.352153
  0.607500,  0.364167
  0.612000,  0.386246
  0.616500,  0.420429
  0.621000,  0.467110
  0.625500,  0.510228
  0.630000,  0.537473
  0.634500,  0.560737
  0.639000,  0.588081
  0.643500,  0.626141
  0.648000,  0.665301
  0.652500,  0.683606
  0.657000,  0.657003
  0.661500,  0.599435
  0.666000,  0.542652
  0.670500,  0.515901
  0.675000,  0.526432
  0.679500,  0.555071
  0.684000,  0.582477
  0.688500,  0.572855
  0.693000,  0.529972
  0.697500,  0.444333
  0.702000,  0.349403
  0.706500,  0.248045
  0.711000,  0.153933
  0.715500,  0.094026
  0.720000,  0.045142
  0.724500,  0.008766
  0.729000, -0.022500
  0.733500, -0.053073
  0.738000, -0.086662
  0.742500, -0.128457
  0.747000, -0.182016
  0.751500, -0.253549
  0.756000, -0.343236
  0.760500, -0.441185
  0.765000, -0.540547
  0.769500, -0.612408
  0.774000, -0.669659
  0.778500, -0.703613
  0.783000, -0.707690
  0.787500, -0.710804
  0.792000, -0.714261
  0.796500, -0.729570
  0.801000, -0.752129
  0.805500, -0.787995
  0.810000, -0.814826
  0.814500, -0.852404
  0.819000, -0.877543
  0.823500, -0.891190
  0.828000, -0.881946
  0.832500, -0.851241
  0.837000, -0.811394
  0.841500, -0.766851
  0.846000, -0.717588
  0.850500, -0.659884
  0.855000, -0.617886
  0.859500, -0.615558
  0.864000, -0.633886
  0.868500, -0.652962
  0.873000, -0.643037
  0.877500, -0.599317
  0.882000, -0.527277
  0.886500, -0.452946
  0.891000, -0.380542
  0.895500, -0.345435
  0.900000, -0.340959
  0.904500, -0.362733
  0.909000, -0.381958
  0.913500, -0.375938
  0.918000, -0.333933
  0.922500, -0.277542
  0.927000, -0.219488
  0.931500, -0.178983
  0.936000, -0.156708
  0.940500, -0.140073
  0.945000, -0.113908
  0.949500, -0.086642
  0.954000, -0.057842
  0.958500, -0.041791
  0.963000, -0.042295
  0.967500, -0.071240
  0.972000, -0.114333
  0.976500, -0.160310
  0.981000, -0.176135
  0.985500, -0.161538
  0.990000, -0.130117
  0.994500, -0.096714
  0.999000, -0.090524
  1.003500, -0.111844
  1.008000, -0.149689
  1.012500, -0.196677
  1.017000, -0.227599
  1.021500, -0.237119
  1.026000, -0.220408
  1.030500, -0.193200
  1.035000, -0.168179
  1.039500, -0.157345
  1.044000, -0.167744
  1.048500, -0.198219
  1.053000, -0.233221
  1.057500, -0.264233
  1.062000, -0.281309
  1.066500, -0.287334
  1.071000, -0.289701
  1.075500, -0.299075
  1.080000, -0.319761
  1.084500, -0.344236
  1.089000, -0.367464
  1.093500, -0.395617
  1.098000, -0.420724
  1.102500, -0.442098
  1.107000, -0.460189
  1.111500, -0.470855
  1.116000, -0.484858
  1.120500, -0.486838
  1.125000, -0.482551
  1.129500, -0.482892
  1.134000, -0.491199
  1.138500, -0.501585
  1.143000, -0.508512
  1.147500, -0.520605
  1.152000, -0.518875
  1.156500, -0.506110
  1.161000, -0.469387
  1.165500, -0.409976
  1.170000, -0.336673
  1.174500, -0.267469
  1.179000, -0.224204
  1.183500, -0.216175
  1.188000, -0.232166
  1.192500, -0.263663
  1.197000, -0.303349
  1.201500, -0.339486
  1.206000, -0.342491
  1.210500, -0.319138
  1.215000, -0.263363
  1.219500, -0.182219
  1.224000, -0.093572
  1.228500, -0.019439
  1.233000,  0.028146
  1.237500,  0.026823
  1.242000, -0.019371
  1.246500, -0.097914
  1.251000, -0.181404
  1.255500, -0.240631
  1.260000, -0.248923
  1.264500, -0.200816
  1.269000, -0.105428
  1.273500, -0.003581
  1.278000,  0.068438
  1.282500,  0.098273
  1.287000,  0.080201
  1.291500,  0.035607
  1.296000, -0.021114
  1.300500, -0.071322
  1.305000, -0.096673
  1.309500, -0.102498
  1.314000, -0.086951
  1.318500, -0.049071
  1.323000, -0.011763
  1.327500,  0.025877
  1.332000,  0.065811
  1.336500,  0.093883
  1.341000,  0.110446
  1.345500,  0.112862
  1.350000,  0.100417
  1.354500,  0.068867
  1.359000,  0.028315
  1.363500, -0.003174
  1.368000, -0.021949
  1.372500, -0.013404
  1.377000,  0.003693
  1.381500,  0.032349
  1.386000,  0.064931
  1.390500,  0.085675
  1.395000,  0.100573
  1.399500,  0.087592
  1.404000,  0.075529
  1.408500,  0.050946
  1.413000,  0.033045
  1.417500,  0.019083
  1.422000,  0.015735
  1.426500,  0.012146
  1.431000, -0.003014
  1.435500, -0.016014
  1.440000, -0.038733
  1.444500, -0.045346
  1.449000, -0.044190
  1.453500, -0.036010
  1.458000, -0.020013
  1.462500, -0.010030
  1.467000, -0.017522
  1.471500, -0.031389
  1.476000, -0.046484
  1.480500, -0.057141
  1.485000, -0.064559
  1.489500, -0.062855
  1.494000, -0.054597
  1.498500, -0.023187
