# PMF between COM of ALYS and SiO2 slab.
# 
# PMF
# z (nm)   (kJ/mol)
  0.004500,264.374151
  0.009000,258.501299
  0.013500,252.106326
  0.018000,245.354902
  0.022500,238.467210
  0.027000,231.652257
  0.031500,225.049490
  0.036000,218.717701
  0.040500,212.679349
  0.045000,206.948371
  0.049500,201.545940
  0.054000,196.473041
  0.058500,191.667840
  0.063000,186.982988
  0.067500,182.254364
  0.072000,177.380215
  0.076500,172.375901
  0.081000,167.341454
  0.085500,162.429156
  0.090000,157.779348
  0.094500,153.415042
  0.099000,149.199794
  0.103500,144.923301
  0.108000,140.464485
  0.112500,135.866128
  0.117000,131.285703
  0.121500,126.825575
  0.126000,122.443552
  0.130500,118.043059
  0.135000,113.625253
  0.139500,109.362729
  0.144000,105.370695
  0.148500,101.457072
  0.153000, 97.277321
  0.157500, 92.960031
  0.162000, 88.915952
  0.166500, 85.183669
  0.171000, 81.536660
  0.175500, 77.946017
  0.180000, 74.460176
  0.184500, 71.082900
  0.189000, 67.773342
  0.193500, 64.552541
  0.198000, 61.511217
  0.202500, 58.711913
  0.207000, 56.061957
  0.211500, 53.479906
  0.216000, 50.957752
  0.220500, 48.598403
  0.225000, 46.459060
  0.229500, 44.518229
  0.234000, 42.686256
  0.238500, 40.922632
  0.243000, 39.241183
  0.247500, 37.679676
  0.252000, 36.288024
  0.256500, 35.061186
  0.261000, 33.981042
  0.265500, 33.015644
  0.270000, 32.138601
  0.274500, 31.338259
  0.279000, 30.645547
  0.283500, 30.083752
  0.288000, 29.591468
  0.292500, 29.111927
  0.297000, 28.653520
  0.301500, 28.329962
  0.306000, 28.166004
  0.310500, 28.055853
  0.315000, 27.887450
  0.319500, 27.640799
  0.324000, 27.349603
  0.328500, 27.043363
  0.333000, 26.705355
  0.337500, 26.323240
  0.342000, 25.880014
  0.346500, 25.312714
  0.351000, 24.553081
  0.355500, 23.560212
  0.360000, 22.381490
  0.364500, 21.076633
  0.369000, 19.621961
  0.373500, 18.037754
  0.378000, 16.537415
  0.382500, 15.207913
  0.387000, 13.878081
  0.391500, 12.417450
  0.396000, 11.043151
  0.400500,  9.976232
  0.405000,  9.202436
  0.409500,  8.554707
  0.414000,  7.939396
  0.418500,  7.351677
  0.423000,  6.837270
  0.427500,  6.407871
  0.432000,  6.035482
  0.436500,  5.691491
  0.441000,  5.392243
  0.445500,  5.165881
  0.450000,  4.980751
  0.454500,  4.799395
  0.459000,  4.564996
  0.463500,  4.290274
  0.468000,  4.039411
  0.472500,  3.850684
  0.477000,  3.721725
  0.481500,  3.630457
  0.486000,  3.540168
  0.490500,  3.436369
  0.495000,  3.323114
  0.499500,  3.200061
  0.504000,  3.078703
  0.508500,  2.956667
  0.513000,  2.855631
  0.517500,  2.778727
  0.522000,  2.742042
  0.526500,  2.714230
  0.531000,  2.668007
  0.535500,  2.585512
  0.540000,  2.497468
  0.544500,  2.435508
  0.549000,  2.404160
  0.553500,  2.372664
  0.558000,  2.321908
  0.562500,  2.246344
  0.567000,  2.157453
  0.571500,  2.085843
  0.576000,  2.017346
  0.580500,  1.979347
  0.585000,  1.935498
  0.589500,  1.868129
  0.594000,  1.788924
  0.598500,  1.716006
  0.603000,  1.665856
  0.607500,  1.625347
  0.612000,  1.585925
  0.616500,  1.546022
  0.621000,  1.488082
  0.625500,  1.432615
  0.630000,  1.353388
  0.634500,  1.280116
  0.639000,  1.212052
  0.643500,  1.160871
  0.648000,  1.132384
  0.652500,  1.127215
  0.657000,  1.125859
  0.661500,  1.114429
  0.666000,  1.080040
  0.670500,  1.021842
  0.675000,  0.943401
  0.679500,  0.855838
  0.684000,  0.791479
  0.688500,  0.767263
  0.693000,  0.775143
  0.697500,  0.796461
  0.702000,  0.802035
  0.706500,  0.750410
  0.711000,  0.660216
  0.715500,  0.570309
  0.720000,  0.518875
  0.724500,  0.513199
  0.729000,  0.548297
  0.733500,  0.573548
  0.738000,  0.566445
  0.742500,  0.532567
  0.747000,  0.484874
  0.751500,  0.448840
  0.756000,  0.431758
  0.760500,  0.425206
  0.765000,  0.419242
  0.769500,  0.395680
  0.774000,  0.349743
  0.778500,  0.315167
  0.783000,  0.289797
  0.787500,  0.267904
  0.792000,  0.246384
  0.796500,  0.216115
  0.801000,  0.196240
  0.805500,  0.185428
  0.810000,  0.178295
  0.814500,  0.178942
  0.819000,  0.198877
  0.823500,  0.234255
  0.828000,  0.258366
  0.832500,  0.238000
  0.837000,  0.181054
  0.841500,  0.118520
  0.846000,  0.094393
  0.850500,  0.122703
  0.855000,  0.180110
  0.859500,  0.243764
  0.864000,  0.268844
  0.868500,  0.245194
  0.873000,  0.188524
  0.877500,  0.135864
  0.882000,  0.110231
  0.886500,  0.118671
  0.891000,  0.130374
  0.895500,  0.126921
  0.900000,  0.121843
  0.904500,  0.123663
  0.909000,  0.146090
  0.913500,  0.186904
  0.918000,  0.215019
  0.922500,  0.220691
  0.927000,  0.204847
  0.931500,  0.174344
  0.936000,  0.156487
  0.940500,  0.165987
  0.945000,  0.206867
  0.949500,  0.250674
  0.954000,  0.273945
  0.958500,  0.268393
  0.963000,  0.243839
  0.967500,  0.216454
  0.972000,  0.208411
  0.976500,  0.226911
  0.981000,  0.269676
  0.985500,  0.297003
  0.990000,  0.313191
  0.994500,  0.296027
  0.999000,  0.255536
  1.003500,  0.217529
  1.008000,  0.203211
  1.012500,  0.226493
  1.017000,  0.274851
  1.021500,  0.319932
  1.026000,  0.336870
  1.030500,  0.326437
  1.035000,  0.301880
  1.039500,  0.290425
  1.044000,  0.287229
  1.048500,  0.278970
  1.053000,  0.247024
  1.057500,  0.201278
  1.062000,  0.179263
  1.066500,  0.196977
  1.071000,  0.249486
  1.075500,  0.301425
  1.080000,  0.330860
  1.084500,  0.327085
  1.089000,  0.286264
  1.093500,  0.231070
  1.098000,  0.186639
  1.102500,  0.170660
  1.107000,  0.177692
  1.111500,  0.176705
  1.116000,  0.144561
  1.120500,  0.103722
  1.125000,  0.094742
  1.129500,  0.163795
  1.134000,  0.297652
  1.138500,  0.411583
  1.143000,  0.391848
  1.147500,  0.201142
  1.152000, -0.033900
  1.156500, -0.159325
  1.161000, -0.092887
  1.165500,  0.093618
  1.170000,  0.269086
  1.174500,  0.361402
  1.179000,  0.329157
  1.183500,  0.196858
  1.188000,  0.018910
  1.192500, -0.123675
  1.197000, -0.167277
  1.201500, -0.095057
  1.206000,  0.041277
  1.210500,  0.176775
  1.215000,  0.263402
  1.219500,  0.277455
  1.224000,  0.244506
  1.228500,  0.174827
  1.233000,  0.087391
  1.237500,  0.018321
  1.242000, -0.018348
  1.246500,  0.003640
  1.251000,  0.056890
  1.255500,  0.144414
  1.260000,  0.254615
  1.264500,  0.339330
  1.269000,  0.341649
  1.273500,  0.247417
  1.278000,  0.095249
  1.282500, -0.031229
  1.287000, -0.069726
  1.291500, -0.006871
  1.296000,  0.126268
  1.300500,  0.230962
  1.305000,  0.270173
  1.309500,  0.237455
  1.314000,  0.147413
  1.318500,  0.059563
  1.323000,  0.005047
  1.327500,  0.015960
  1.332000,  0.062546
  1.336500,  0.108621
  1.341000,  0.120238
  1.345500,  0.101132
  1.350000,  0.073436
  1.354500,  0.055904
  1.359000,  0.068672
  1.363500,  0.091067
  1.368000,  0.105065
  1.372500,  0.101574
  1.377000,  0.088468
  1.381500,  0.085170
  1.386000,  0.082939
  1.390500,  0.071386
  1.395000,  0.046104
  1.399500,  0.023230
  1.404000,  0.015872
  1.408500,  0.029468
  1.413000,  0.055197
  1.417500,  0.068120
  1.422000,  0.055139
  1.426500,  0.013480
  1.431000, -0.040598
  1.435500, -0.068520
  1.440000, -0.073053
  1.444500, -0.052509
  1.449000, -0.024276
  1.453500, -0.013895
  1.458000, -0.024574
  1.462500, -0.033801
  1.467000, -0.048232
  1.471500, -0.052472
  1.476000, -0.045253
  1.480500, -0.045175
  1.485000, -0.069513
  1.489500, -0.117779
  1.494000, -0.166384
  1.498500, -0.180819
