# PMF between COM of AMET and SiO2 slab.
#
#               PMF
# z (nm)   (kJ/mol)   
 0.0045  326.794286
 0.0090  323.386248
 0.0135  320.073260
 0.0180  317.325137
 0.0225  314.444677
 0.0270  311.744190
 0.0315  309.078625
 0.0360  306.428842
 0.0405  303.720590
 0.0450  300.884687
 0.0495  297.905482
 0.0540  294.722660
 0.0585  291.271169
 0.0630  287.468513
 0.0675  283.212618
 0.0720  278.370271
 0.0765  272.797526
 0.0810  266.378311
 0.0855  259.123282
 0.0900  251.224484
 0.0945  243.026123
 0.0990  234.907193
 0.1035  227.090580
 0.1080  219.546751
 0.1125  212.179717
 0.1170  205.073843
 0.1215  198.365858
 0.1260  192.005675
 0.1305  185.806688
 0.1350  179.658795
 0.1395  173.611990
 0.1440  167.772010
 0.1485  162.151523
 0.1530  156.699897
 0.1575  151.366947
 0.1620  146.183619
 0.1665  141.214275
 0.1710  136.491107
 0.1755  131.978525
 0.1800  127.586597
 0.1845  123.222007
 0.1890  118.876880
 0.1935  114.646442
 0.1980  110.675486
 0.2025  107.037363
 0.2070  103.677117
 0.2115  100.507618
 0.2160   97.480779
 0.2205   94.497627
 0.2250   91.519719
 0.2295   88.620989
 0.2340   85.945477
 0.2385   83.552450
 0.2430   81.385517
 0.2475   79.347242
 0.2520   77.347493
 0.2565   75.338984
 0.2610   73.372469
 0.2655   71.473086
 0.2700   69.614454
 0.2745   67.785872
 0.2790   65.982775
 0.2835   64.165773
 0.2880   62.313048
 0.2925   60.424655
 0.2970   58.527378
 0.3015   56.559466
 0.3060   54.444503
 0.3105   52.148454
 0.3150   49.744146
 0.3195   47.302109
 0.3240   44.829984
 0.3285   42.279966
 0.3330   39.639018
 0.3375   36.901444
 0.3420   34.132920
 0.3465   31.465175
 0.3510   28.995315
 0.3555   26.753288
 0.3600   24.710397
 0.3645   22.816782
 0.3690   21.011958
 0.3735   19.232200
 0.3780   17.514012
 0.3825   15.920232
 0.3870   14.529046
 0.3915   13.325706
 0.3960   12.222829
 0.4005   11.141544
 0.4050   10.064948
 0.4095    9.029120
 0.4140    8.083101
 0.4185    7.232105
 0.4230    6.479008
 0.4275    5.807893
 0.4320    5.213957
 0.4365    4.677865
 0.4410    4.166604
 0.4455    3.668412
 0.4500    3.187403
 0.4545    2.738669
 0.4590    2.357572
 0.4635    2.060519
 0.4680    1.832304
 0.4725    1.627556
 0.4770    1.423237
 0.4815    1.220043
 0.4860    1.009825
 0.4905    0.793601
 0.4950    0.567108
 0.4995    0.374465
 0.5040    0.246401
 0.5085    0.199656
 0.5130    0.209101
 0.5175    0.217769
 0.5220    0.185924
 0.5265    0.114573
 0.5310    0.028151
 0.5355   -0.054450
 0.5400   -0.103592
 0.5445   -0.128993
 0.5490   -0.143625
 0.5535   -0.146492
 0.5580   -0.137258
 0.5625   -0.128383
 0.5670   -0.123454
 0.5715   -0.125981
 0.5760   -0.140579
 0.5805   -0.142367
 0.5850   -0.135935
 0.5895   -0.119698
 0.5940   -0.106684
 0.5985   -0.110847
 0.6030   -0.142455
 0.6075   -0.180524
 0.6120   -0.182243
 0.6165   -0.139558
 0.6210   -0.061959
 0.6255    0.012279
 0.6300    0.047747
 0.6345    0.043509
 0.6390    0.020053
 0.6435   -0.014071
 0.6480   -0.028977
 0.6525   -0.031108
 0.6570   -0.021591
 0.6615   -0.013580
 0.6660   -0.012481
 0.6705   -0.020516
 0.6750   -0.031708
 0.6795   -0.074676
 0.6840   -0.137148
 0.6885   -0.209179
 0.6930   -0.283579
 0.6975   -0.326816
 0.7020   -0.338904
 0.7065   -0.336967
 0.7110   -0.338244
 0.7155   -0.362332
 0.7200   -0.433066
 0.7245   -0.522390
 0.7290   -0.625603
 0.7335   -0.718015
 0.7380   -0.781882
 0.7425   -0.806539
 0.7470   -0.784729
 0.7515   -0.750296
 0.7560   -0.736973
 0.7605   -0.747488
 0.7650   -0.789254
 0.7695   -0.853689
 0.7740   -0.911265
 0.7785   -0.949332
 0.7830   -0.948295
 0.7875   -0.921620
 0.7920   -0.887658
 0.7965   -0.861511
 0.8010   -0.850517
 0.8055   -0.855602
 0.8100   -0.882006
 0.8145   -0.912553
 0.8190   -0.934166
 0.8235   -0.939105
 0.8280   -0.923651
 0.8325   -0.875756
 0.8370   -0.825191
 0.8415   -0.776802
 0.8460   -0.755181
 0.8505   -0.756175
 0.8550   -0.777995
 0.8595   -0.811024
 0.8640   -0.838522
 0.8685   -0.854803
 0.8730   -0.840517
 0.8775   -0.805254
 0.8820   -0.748366
 0.8865   -0.688338
 0.8910   -0.643162
 0.8955   -0.627410
 0.9000   -0.624570
 0.9045   -0.617567
 0.9090   -0.613549
 0.9135   -0.617243
 0.9180   -0.621881
 0.9225   -0.619770
 0.9270   -0.619111
 0.9315   -0.603717
 0.9360   -0.568765
 0.9405   -0.518619
 0.9450   -0.452193
 0.9495   -0.385022
 0.9540   -0.350756
 0.9585   -0.373323
 0.9630   -0.443597
 0.9675   -0.496653
 0.9720   -0.470088
 0.9765   -0.389731
 0.9810   -0.322208
 0.9855   -0.297973
 0.9900   -0.305560
 0.9945   -0.316087
 0.9990   -0.313904
 1.0035   -0.309099
 1.0080   -0.303498
 1.0125   -0.298637
 1.0170   -0.293718
 1.0215   -0.292671
 1.0260   -0.303015
 1.0305   -0.326885
 1.0350   -0.353657
 1.0395   -0.365848
 1.0440   -0.362150
 1.0485   -0.337215
 1.0530   -0.306695
 1.0575   -0.285411
 1.0620   -0.276889
 1.0665   -0.271180
 1.0710   -0.270378
 1.0755   -0.270088
 1.0800   -0.284306
 1.0845   -0.301936
 1.0890   -0.333184
 1.0935   -0.358498
 1.0980   -0.360092
 1.1025   -0.342956
 1.1070   -0.325161
 1.1115   -0.323434
 1.1160   -0.331334
 1.1205   -0.348903
 1.1250   -0.363915
 1.1295   -0.370147
 1.1340   -0.369810
 1.1385   -0.368514
 1.1430   -0.368975
 1.1475   -0.363627
 1.1520   -0.342893
 1.1565   -0.318360
 1.1610   -0.291640
 1.1655   -0.280879
 1.1700   -0.282107
 1.1745   -0.294441
 1.1790   -0.300013
 1.1835   -0.296599
 1.1880   -0.279622
 1.1925   -0.256629
 1.1970   -0.230447
 1.2015   -0.221526
 1.2060   -0.211947
 1.2105   -0.206419
 1.2150   -0.189420
 1.2195   -0.175244
 1.2240   -0.165326
 1.2285   -0.160614
 1.2330   -0.175491
 1.2375   -0.190224
 1.2420   -0.189922
 1.2465   -0.161226
 1.2510   -0.116028
 1.2555   -0.072116
 1.2600   -0.040343
 1.2645   -0.037758
 1.2690   -0.056029
 1.2735   -0.085622
 1.2780   -0.097763
 1.2825   -0.093537
 1.2870   -0.078290
 1.2915   -0.059730
 1.2960   -0.049421
 1.3005   -0.034536
 1.3050   -0.006168
 1.3095    0.025580
 1.3140    0.049968
 1.3185    0.044625
 1.3230    0.021089
 1.3275   -0.021653
 1.3320   -0.076861
 1.3365   -0.132480
 1.3410   -0.167440
 1.3455   -0.170790
 1.3500   -0.138091
 1.3545   -0.085761
 1.3590   -0.018431
 1.3635    0.023808
 1.3680    0.033283
 1.3725    0.012067
 1.3770   -0.021525
 1.3815   -0.051267
 1.3860   -0.066056
 1.3905   -0.056920
 1.3950   -0.036474
 1.3995   -0.021356
 1.4040   -0.010117
 1.4085   -0.001443
 1.4130    0.006274
 1.4175    0.024902
 1.4220    0.050192
 1.4265    0.062553
 1.4310    0.065824
 1.4355    0.054254
 1.4400    0.031204
 1.4445    0.004931
 1.4490   -0.022861
 1.4535   -0.046507
 1.4580   -0.069158
 1.4625   -0.075540
 1.4670   -0.065306
 1.4715   -0.039917
 1.4760   -0.011920
 1.4805    0.023116
 1.4850    0.054478
 1.4895    0.080539
 1.4940    0.093648
 1.4985    0.079485
