# PMF between COM of ATYR and SiO2 slab.
# 
# PMF
# z (nm)   (kJ/mol)
  0.004500,140.431974
  0.009000,135.247129
  0.013500,130.099817
  0.018000,125.211267
  0.022500,120.684136
  0.027000,116.440228
  0.031500,112.348429
  0.036000,108.336475
  0.040500,104.435958
  0.045000,100.726582
  0.049500, 97.239858
  0.054000, 93.923101
  0.058500, 90.707111
  0.063000, 87.526905
  0.067500, 84.391217
  0.072000, 81.380639
  0.076500, 78.586890
  0.081000, 75.961821
  0.085500, 73.410164
  0.090000, 70.942928
  0.094500, 68.662971
  0.099000, 66.583640
  0.103500, 64.600923
  0.108000, 62.625984
  0.112500, 60.674225
  0.117000, 58.861495
  0.121500, 57.254410
  0.126000, 55.742740
  0.130500, 54.048610
  0.135000, 52.213713
  0.139500, 50.611905
  0.144000, 49.093647
  0.148500, 47.237997
  0.153000, 45.575201
  0.157500, 44.083100
  0.162000, 42.377536
  0.166500, 40.602153
  0.171000, 39.009367
  0.175500, 37.639326
  0.180000, 36.326864
  0.184500, 35.055934
  0.189000, 33.887889
  0.193500, 32.807794
  0.198000, 31.781105
  0.202500, 30.872423
  0.207000, 30.184514
  0.211500, 29.613766
  0.216000, 29.029519
  0.220500, 28.436734
  0.225000, 27.989814
  0.229500, 27.647044
  0.234000, 27.244575
  0.238500, 26.824687
  0.243000, 26.466815
  0.247500, 26.034649
  0.252000, 25.518719
  0.256500, 25.022094
  0.261000, 24.479086
  0.265500, 23.840442
  0.270000, 23.176242
  0.274500, 22.533983
  0.279000, 21.879112
  0.283500, 21.218927
  0.288000, 20.632046
  0.292500, 20.087403
  0.297000, 19.482724
  0.301500, 18.865928
  0.306000, 18.357206
  0.310500, 17.981104
  0.315000, 17.644692
  0.319500, 17.213721
  0.324000, 16.677678
  0.328500, 16.176195
  0.333000, 15.779482
  0.337500, 15.427742
  0.342000, 15.046453
  0.346500, 14.634144
  0.351000, 14.218281
  0.355500, 13.872410
  0.360000, 13.642977
  0.364500, 13.498956
  0.369000, 13.357149
  0.373500, 12.995976
  0.378000, 12.356562
  0.382500, 11.849886
  0.387000, 11.727958
  0.391500, 11.632685
  0.396000, 11.277616
  0.400500, 10.749394
  0.405000, 10.203258
  0.409500,  9.678175
  0.414000,  9.142087
  0.418500,  8.593478
  0.423000,  8.109720
  0.427500,  7.734402
  0.432000,  7.428381
  0.436500,  7.066311
  0.441000,  6.632222
  0.445500,  6.175024
  0.450000,  5.771211
  0.454500,  5.435980
  0.459000,  5.142762
  0.463500,  4.868558
  0.468000,  4.630988
  0.472500,  4.416819
  0.477000,  4.174106
  0.481500,  3.854394
  0.486000,  3.493672
  0.490500,  3.171921
  0.495000,  2.913323
  0.499500,  2.674545
  0.504000,  2.433303
  0.508500,  2.239878
  0.513000,  2.056595
  0.517500,  1.809378
  0.522000,  1.530292
  0.526500,  1.326128
  0.531000,  1.243622
  0.535500,  1.225518
  0.540000,  1.186559
  0.544500,  1.071815
  0.549000,  0.940492
  0.553500,  0.873337
  0.558000,  0.910198
  0.562500,  0.980752
  0.567000,  0.977233
  0.571500,  0.922161
  0.576000,  0.937614
  0.580500,  1.035606
  0.585000,  1.100274
  0.589500,  1.095793
  0.594000,  1.046974
  0.598500,  1.014305
  0.603000,  1.046843
  0.607500,  1.128134
  0.612000,  1.207149
  0.616500,  1.250842
  0.621000,  1.265196
  0.625500,  1.257651
  0.630000,  1.244928
  0.634500,  1.224776
  0.639000,  1.224395
  0.643500,  1.220553
  0.648000,  1.226882
  0.652500,  1.211304
  0.657000,  1.186922
  0.661500,  1.166100
  0.666000,  1.142297
  0.670500,  1.101129
  0.675000,  1.035165
  0.679500,  0.956458
  0.684000,  0.901521
  0.688500,  0.865042
  0.693000,  0.832558
  0.697500,  0.788636
  0.702000,  0.745750
  0.706500,  0.713361
  0.711000,  0.691343
  0.715500,  0.662502
  0.720000,  0.613113
  0.724500,  0.563292
  0.729000,  0.528670
  0.733500,  0.513679
  0.738000,  0.476288
  0.742500,  0.414135
  0.747000,  0.338253
  0.751500,  0.279371
  0.756000,  0.257615
  0.760500,  0.270679
  0.765000,  0.305832
  0.769500,  0.334552
  0.774000,  0.348458
  0.778500,  0.329533
  0.783000,  0.251580
  0.787500,  0.149039
  0.792000,  0.073914
  0.796500,  0.038756
  0.801000,  0.035125
  0.805500,  0.058859
  0.810000,  0.095920
  0.814500,  0.111050
  0.819000,  0.082876
  0.823500,  0.019358
  0.828000, -0.061254
  0.832500, -0.117926
  0.837000, -0.124403
  0.841500, -0.106657
  0.846000, -0.093766
  0.850500, -0.117085
  0.855000, -0.132701
  0.859500, -0.104613
  0.864000, -0.028669
  0.868500,  0.022292
  0.873000,  0.009034
  0.877500, -0.083364
  0.882000, -0.195567
  0.886500, -0.239550
  0.891000, -0.187305
  0.895500, -0.078146
  0.900000,  0.002319
  0.904500, -0.005523
  0.909000, -0.071700
  0.913500, -0.138540
  0.918000, -0.152444
  0.922500, -0.126152
  0.927000, -0.075683
  0.931500, -0.042221
  0.936000, -0.022709
  0.940500, -0.031086
  0.945000, -0.066729
  0.949500, -0.105848
  0.954000, -0.105368
  0.958500, -0.069394
  0.963000, -0.015518
  0.967500, -0.008540
  0.972000, -0.035576
  0.976500, -0.064588
  0.981000, -0.034488
  0.985500,  0.023389
  0.990000,  0.077715
  0.994500,  0.085779
  0.999000,  0.065168
  1.003500,  0.034270
  1.008000,  0.020566
  1.012500,  0.025283
  1.017000,  0.041383
  1.021500,  0.057426
  1.026000,  0.067766
  1.030500,  0.079568
  1.035000,  0.091763
  1.039500,  0.092130
  1.044000,  0.073416
  1.048500,  0.041863
  1.053000,  0.024567
  1.057500,  0.046748
  1.062000,  0.095817
  1.066500,  0.152335
  1.071000,  0.172748
  1.075500,  0.147735
  1.080000,  0.122564
  1.084500,  0.122126
  1.089000,  0.150842
  1.093500,  0.187305
  1.098000,  0.217384
  1.102500,  0.225248
  1.107000,  0.204358
  1.111500,  0.195441
  1.116000,  0.215314
  1.120500,  0.252679
  1.125000,  0.274376
  1.129500,  0.240455
  1.134000,  0.165825
  1.138500,  0.108091
  1.143000,  0.114727
  1.147500,  0.166987
  1.152000,  0.228424
  1.156500,  0.246560
  1.161000,  0.219213
  1.165500,  0.175783
  1.170000,  0.150587
  1.174500,  0.146699
  1.179000,  0.166270
  1.183500,  0.180014
  1.188000,  0.190135
  1.192500,  0.192666
  1.197000,  0.197572
  1.201500,  0.207823
  1.206000,  0.203958
  1.210500,  0.191922
  1.215000,  0.169976
  1.219500,  0.159811
  1.224000,  0.161776
  1.228500,  0.184112
  1.233000,  0.213924
  1.237500,  0.244544
  1.242000,  0.279262
  1.246500,  0.294793
  1.251000,  0.290285
  1.255500,  0.241047
  1.260000,  0.175641
  1.264500,  0.132822
  1.269000,  0.139094
  1.273500,  0.205827
  1.278000,  0.318239
  1.282500,  0.406633
  1.287000,  0.425526
  1.291500,  0.345663
  1.296000,  0.220125
  1.300500,  0.141482
  1.305000,  0.172673
  1.309500,  0.267328
  1.314000,  0.343484
  1.318500,  0.361008
  1.323000,  0.316924
  1.327500,  0.248301
  1.332000,  0.208829
  1.336500,  0.211059
  1.341000,  0.231352
  1.345500,  0.240322
  1.350000,  0.230931
  1.354500,  0.216155
  1.359000,  0.207832
  1.363500,  0.203596
  1.368000,  0.196310
  1.372500,  0.171443
  1.377000,  0.111696
  1.381500,  0.047647
  1.386000,  0.006397
  1.390500,  0.014111
  1.395000,  0.048639
  1.399500,  0.056816
  1.404000,  0.022422
  1.408500, -0.014440
  1.413000, -0.023322
  1.417500,  0.009847
  1.422000,  0.022081
  1.426500, -0.017891
  1.431000, -0.099349
  1.435500, -0.161132
  1.440000, -0.155382
  1.444500, -0.098660
  1.449000, -0.036998
  1.453500, -0.014429
  1.458000, -0.041105
  1.462500, -0.074602
  1.467000, -0.092330
  1.471500, -0.082249
  1.476000, -0.078571
  1.480500, -0.085326
  1.485000, -0.105446
  1.489500, -0.096550
  1.494000, -0.059803
  1.498500,  0.002591
