# z (nm)   (kJ/mol)
  0.383000, 19.831800
  0.385000, 19.394900
  0.389000, 18.440900
  0.391000, 17.984900
  0.393000, 17.555100
  0.395000, 17.137500
  0.397000, 16.705400
  0.399000, 16.207000
  0.401000, 15.721400
  0.403000, 15.258100
  0.405000, 14.783000
  0.407000, 14.301000
  0.409000, 13.806900
  0.411000, 13.321300
  0.413000, 12.834100
  0.415000, 12.325800
  0.417000, 11.825100
  0.419000, 11.346900
  0.421000, 10.863100
  0.423000, 10.377500
  0.425000,  9.912000
  0.427000,  9.453000
  0.429000,  8.999300
  0.431000,  8.555500
  0.433000,  8.123700
  0.435000,  7.718300
  0.437000,  7.327500
  0.439000,  6.942400
  0.441000,  6.575800
  0.443000,  6.220600
  0.445000,  5.870200
  0.447000,  5.535900
  0.449000,  5.216200
  0.451000,  4.911400
  0.453000,  4.624100
  0.455000,  4.349000
  0.457000,  4.085500
  0.459000,  3.836500
  0.461000,  3.603000
  0.463000,  3.384300
  0.465000,  3.178600
  0.467000,  2.985500
  0.469000,  2.805700
  0.471000,  2.639900
  0.473000,  2.489200
  0.475000,  2.352900
  0.477000,  2.229400
  0.479000,  2.118000
  0.481000,  2.019600
  0.483000,  1.933100
  0.485000,  1.858800
  0.487000,  1.795700
  0.489000,  1.741900
  0.491000,  1.699700
  0.493000,  1.668300
  0.495000,  1.647200
  0.497000,  1.636200
  0.499000,  1.631900
  0.501000,  1.635800
  0.503000,  1.645300
  0.505000,  1.656400
  0.507000,  1.670500
  0.509000,  1.690500
  0.511000,  1.715100
  0.513000,  1.741600
  0.515000,  1.773000
  0.517000,  1.807800
  0.519000,  1.839700
  0.521000,  1.870100
  0.523000,  1.901400
  0.525000,  1.930000
  0.527000,  1.960200
  0.529000,  1.989800
  0.531000,  2.014200
  0.533000,  2.036200
  0.535000,  2.054800
  0.537000,  2.071300
  0.539000,  2.083500
  0.541000,  2.091400
  0.543000,  2.097200
  0.545000,  2.100200
  0.547000,  2.098100
  0.549000,  2.089900
  0.551000,  2.077300
  0.553000,  2.060800
  0.555000,  2.042200
  0.557000,  2.020000
  0.559000,  1.992700
  0.561000,  1.959900
  0.563000,  1.923000
  0.565000,  1.883400
  0.567000,  1.840400
  0.569000,  1.793400
  0.571000,  1.743300
  0.573000,  1.690400
  0.575000,  1.634600
  0.577000,  1.576700
  0.579000,  1.516800
  0.581000,  1.453900
  0.583000,  1.389600
  0.585000,  1.325000
  0.587000,  1.258600
  0.589000,  1.191200
  0.591000,  1.122900
  0.593000,  1.054300
  0.595000,  0.987000
  0.597000,  0.919600
  0.599000,  0.852000
  0.601000,  0.786200
  0.603000,  0.721900
  0.605000,  0.658400
  0.607000,  0.596600
  0.609000,  0.535200
  0.611000,  0.474400
  0.613000,  0.416000
  0.615000,  0.360500
  0.617000,  0.307300
  0.619000,  0.256000
  0.621000,  0.207400
  0.623000,  0.161400
  0.625000,  0.117800
  0.627000,  0.076600
  0.629000,  0.038300
  0.631000,  0.003100
  0.633000, -0.029500
  0.635000, -0.059300
  0.637000, -0.086000
  0.639000, -0.109800
  0.641000, -0.130800
  0.643000, -0.148700
  0.645000, -0.163900
  0.647000, -0.176500
  0.649000, -0.186200
  0.651000, -0.193300
  0.653000, -0.197400
  0.655000, -0.198800
  0.657000, -0.197700
  0.659000, -0.194100
  0.661000, -0.188300
  0.663000, -0.179900
  0.665000, -0.169100
  0.667000, -0.156500
  0.669000, -0.141600
  0.671000, -0.124700
  0.673000, -0.106100
  0.675000, -0.085800
  0.677000, -0.063800
  0.679000, -0.040000
  0.681000, -0.015000
  0.683000,  0.011200
  0.685000,  0.038100
  0.687000,  0.065600
  0.689000,  0.094100
  0.691000,  0.123300
  0.693000,  0.153000
  0.695000,  0.182900
  0.697000,  0.212700
  0.699000,  0.242600
  0.701000,  0.272200
  0.703000,  0.301200
  0.705000,  0.329800
  0.707000,  0.358200
  0.709000,  0.385900
  0.711000,  0.412800
  0.713000,  0.438900
  0.715000,  0.463900
  0.717000,  0.487800
  0.719000,  0.510400
  0.721000,  0.531500
  0.723000,  0.551100
  0.725000,  0.569600
  0.727000,  0.586700
  0.729000,  0.602100
  0.731000,  0.615900
  0.733000,  0.627700
  0.735000,  0.637700
  0.737000,  0.645900
  0.739000,  0.652500
  0.741000,  0.657500
  0.743000,  0.660800
  0.745000,  0.662200
  0.747000,  0.662300
  0.749000,  0.660900
  0.751000,  0.657600
  0.753000,  0.652300
  0.755000,  0.645200
  0.757000,  0.636900
  0.759000,  0.626800
  0.761000,  0.615200
  0.763000,  0.602300
  0.765000,  0.588500
  0.767000,  0.573700
  0.769000,  0.557700
  0.771000,  0.541100
  0.773000,  0.523500
  0.775000,  0.504500
  0.777000,  0.484700
  0.779000,  0.464200
  0.781000,  0.443000
  0.783000,  0.421800
  0.785000,  0.400500
  0.787000,  0.378800
  0.789000,  0.356800
  0.791000,  0.334300
  0.793000,  0.311800
  0.795000,  0.289500
  0.797000,  0.267500
  0.799000,  0.245900
  0.801000,  0.224500
  0.803000,  0.203700
  0.805000,  0.183100
  0.807000,  0.163300
  0.809000,  0.144300
  0.811000,  0.125800
  0.813000,  0.108100
  0.815000,  0.091100
  0.817000,  0.075000
  0.819000,  0.059800
  0.821000,  0.045500
  0.823000,  0.032300
  0.825000,  0.020000
  0.827000,  0.008600
  0.829000, -0.001600
  0.831000, -0.010800
  0.833000, -0.019000
  0.835000, -0.026000
  0.837000, -0.031900
  0.839000, -0.036900
  0.841000, -0.040700
  0.843000, -0.043300
  0.845000, -0.044700
  0.847000, -0.045000
  0.849000, -0.044100
  0.851000, -0.042300
  0.853000, -0.039500
  0.855000, -0.036000
  0.857000, -0.031500
  0.859000, -0.025800
  0.861000, -0.019100
  0.863000, -0.011800
  0.865000, -0.003600
  0.867000,  0.005700
  0.869000,  0.015300
  0.871000,  0.025700
  0.873000,  0.036700
  0.875000,  0.048100
  0.877000,  0.060200
  0.879000,  0.072700
  0.881000,  0.085700
  0.883000,  0.099100
  0.885000,  0.112800
  0.887000,  0.126700
  0.889000,  0.140800
  0.891000,  0.155100
  0.893000,  0.169200
  0.895000,  0.183500
  0.897000,  0.197700
  0.899000,  0.211800
  0.901000,  0.225800
  0.903000,  0.239800
  0.905000,  0.253500
  0.907000,  0.266800
  0.909000,  0.279800
  0.911000,  0.292400
  0.913000,  0.304600
  0.915000,  0.316100
  0.917000,  0.327200
  0.919000,  0.337700
  0.921000,  0.347700
  0.923000,  0.357300
  0.925000,  0.366300
  0.927000,  0.374600
  0.929000,  0.382100
  0.931000,  0.389000
  0.933000,  0.395400
  0.935000,  0.401100
  0.937000,  0.406100
  0.939000,  0.410500
  0.941000,  0.414000
  0.943000,  0.416800
  0.945000,  0.418800
  0.947000,  0.420200
  0.949000,  0.420900
  0.951000,  0.420900
  0.953000,  0.420200
  0.955000,  0.418900
  0.957000,  0.416800
  0.959000,  0.414100
  0.961000,  0.410900
  0.963000,  0.407000
  0.965000,  0.402600
  0.967000,  0.397600
  0.969000,  0.392200
  0.971000,  0.386300
  0.973000,  0.380200
  0.975000,  0.373400
  0.977000,  0.366000
  0.979000,  0.358400
  0.981000,  0.350600
  0.983000,  0.342400
  0.985000,  0.334000
  0.987000,  0.325400
  0.989000,  0.316700
  0.991000,  0.307600
  0.993000,  0.298400
  0.995000,  0.289200
  0.997000,  0.279700
  0.999000,  0.270200
  1.001000,  0.260800
  1.003000,  0.251400
  1.005000,  0.242100
  1.007000,  0.233000
  1.009000,  0.223900
  1.011000,  0.214900
  1.013000,  0.206000
  1.015000,  0.197200
  1.017000,  0.188900
  1.019000,  0.180700
  1.021000,  0.172400
  1.023000,  0.164500
  1.025000,  0.156900
  1.027000,  0.149500
  1.029000,  0.142400
  1.031000,  0.135700
  1.033000,  0.129200
  1.035000,  0.122900
  1.037000,  0.117000
  1.039000,  0.111500
  1.041000,  0.106400
  1.043000,  0.101600
  1.045000,  0.097200
  1.047000,  0.093300
  1.049000,  0.089700
  1.051000,  0.086400
  1.053000,  0.083700
  1.055000,  0.081200
  1.057000,  0.079000
  1.059000,  0.077000
  1.061000,  0.075500
  1.063000,  0.074400
  1.065000,  0.073600
  1.067000,  0.073100
  1.069000,  0.073000
  1.071000,  0.073300
  1.073000,  0.073900
  1.075000,  0.075100
  1.077000,  0.076300
  1.079000,  0.077800
  1.081000,  0.079800
  1.083000,  0.082000
  1.085000,  0.084400
  1.087000,  0.087000
  1.089000,  0.089900
  1.091000,  0.093100
  1.093000,  0.096400
  1.095000,  0.100000
  1.097000,  0.103900
  1.099000,  0.108000
  1.101000,  0.112200
  1.103000,  0.116200
  1.105000,  0.120500
  1.107000,  0.125000
  1.109000,  0.129500
  1.111000,  0.134000
  1.113000,  0.138600
  1.115000,  0.143300
  1.117000,  0.148100
  1.119000,  0.152800
  1.121000,  0.157300
  1.123000,  0.161800
  1.125000,  0.166300
  1.127000,  0.170800
  1.129000,  0.175300
  1.131000,  0.179500
  1.133000,  0.183600
  1.135000,  0.187700
  1.137000,  0.191600
  1.139000,  0.195300
  1.141000,  0.198800
  1.143000,  0.202000
  1.145000,  0.205100
  1.147000,  0.208100
  1.149000,  0.210900
  1.151000,  0.213200
  1.153000,  0.215300
  1.155000,  0.217400
  1.157000,  0.219100
  1.159000,  0.220600
  1.161000,  0.221900
  1.163000,  0.222900
  1.165000,  0.223700
  1.167000,  0.224100
  1.169000,  0.224100
  1.171000,  0.223900
  1.173000,  0.223200
  1.175000,  0.222400
  1.177000,  0.221400
  1.179000,  0.220200
  1.181000,  0.218500
  1.183000,  0.216700
  1.185000,  0.214500
  1.187000,  0.212200
  1.189000,  0.209500
  1.191000,  0.206500
  1.193000,  0.203400
  1.195000,  0.200000
  1.197000,  0.196300
  1.199000,  0.192400
  1.201000,  0.188200
  1.203000,  0.183900
  1.205000,  0.179500
  1.207000,  0.174800
  1.209000,  0.169800
  1.211000,  0.164800
  1.213000,  0.159600
  1.215000,  0.154300
  1.217000,  0.148900
  1.219000,  0.143200
  1.221000,  0.137600
  1.223000,  0.131800
  1.225000,  0.126000
  1.227000,  0.120200
  1.229000,  0.114400
  1.231000,  0.108500
  1.233000,  0.102600
  1.235000,  0.096700
  1.237000,  0.090800
  1.239000,  0.084900
  1.241000,  0.079200
  1.243000,  0.073500
  1.245000,  0.067800
  1.247000,  0.062100
  1.249000,  0.056500
  1.251000,  0.050900
  1.253000,  0.045500
  1.255000,  0.040200
  1.257000,  0.035000
  1.259000,  0.029900
  1.261000,  0.024900
  1.263000,  0.020000
  1.265000,  0.015200
  1.267000,  0.010600
  1.269000,  0.006200
  1.271000,  0.001800
  1.273000, -0.002600
  1.275000, -0.006900
  1.277000, -0.010900
  1.279000, -0.014700
  1.281000, -0.018600
  1.283000, -0.022400
  1.285000, -0.026000
  1.287000, -0.029600
  1.289000, -0.033200
  1.291000, -0.036600
  1.293000, -0.039900
  1.295000, -0.043200
  1.297000, -0.046400
  1.299000, -0.049400
  1.301000, -0.052200
  1.303000, -0.054800
  1.305000, -0.057400
  1.307000, -0.060000
  1.309000, -0.062400
  1.311000, -0.064600
  1.313000, -0.066700
  1.315000, -0.068700
  1.317000, -0.070700
  1.319000, -0.072500
  1.321000, -0.074300
  1.323000, -0.075800
  1.325000, -0.077200
  1.327000, -0.078400
  1.329000, -0.079600
  1.331000, -0.080700
  1.333000, -0.081500
  1.335000, -0.082100
  1.337000, -0.082700
  1.339000, -0.083100
  1.341000, -0.083400
  1.343000, -0.083500
  1.345000, -0.083200
  1.347000, -0.082800
  1.349000, -0.082200
  1.351000, -0.081400
  1.353000, -0.080400
  1.355000, -0.079200
  1.357000, -0.077700
  1.359000, -0.076100
  1.361000, -0.074200
  1.363000, -0.072100
  1.365000, -0.069900
  1.367000, -0.067400
  1.369000, -0.064700
  1.371000, -0.061600
  1.373000, -0.058200
  1.375000, -0.054700
  1.377000, -0.051100
  1.379000, -0.047300
  1.381000, -0.043400
  1.383000, -0.039400
  1.385000, -0.035400
  1.387000, -0.031600
  1.389000, -0.027600
  1.391000, -0.023700
  1.393000, -0.020200
  1.395000, -0.016800
  1.397000, -0.013900
  1.399000, -0.011500
