# z (nm)   (kJ/mol)
  0.365000, 19.443000
  0.367000, 18.893100
  0.369000, 18.329900
  0.371000, 17.747800
  0.373000, 17.216000
  0.375000, 16.697900
  0.377000, 16.141500
  0.379000, 15.596700
  0.381000, 15.050500
  0.383000, 14.502400
  0.385000, 13.958800
  0.387000, 13.429100
  0.389000, 12.918500
  0.391000, 12.418200
  0.393000, 11.927500
  0.395000, 11.452100
  0.397000, 10.994300
  0.399000, 10.565500
  0.401000, 10.165200
  0.403000,  9.782600
  0.405000,  9.414700
  0.407000,  9.073000
  0.409000,  8.745900
  0.411000,  8.428200
  0.413000,  8.127400
  0.415000,  7.839200
  0.417000,  7.566900
  0.419000,  7.311700
  0.421000,  7.067500
  0.423000,  6.831600
  0.425000,  6.606100
  0.427000,  6.389400
  0.429000,  6.186500
  0.431000,  5.994100
  0.433000,  5.808100
  0.435000,  5.633600
  0.437000,  5.471800
  0.439000,  5.317000
  0.441000,  5.168400
  0.443000,  5.028200
  0.445000,  4.898000
  0.447000,  4.777400
  0.449000,  4.666300
  0.451000,  4.563200
  0.453000,  4.464400
  0.455000,  4.372300
  0.457000,  4.285700
  0.459000,  4.205100
  0.461000,  4.130500
  0.463000,  4.059200
  0.465000,  3.991200
  0.467000,  3.927100
  0.469000,  3.866300
  0.471000,  3.804900
  0.473000,  3.744800
  0.475000,  3.685600
  0.477000,  3.624700
  0.479000,  3.565600
  0.481000,  3.504500
  0.483000,  3.442400
  0.485000,  3.383900
  0.487000,  3.322700
  0.489000,  3.254900
  0.491000,  3.181500
  0.493000,  3.106300
  0.495000,  3.028600
  0.497000,  2.943000
  0.499000,  2.851500
  0.501000,  2.758500
  0.503000,  2.663900
  0.505000,  2.564000
  0.507000,  2.459600
  0.509000,  2.347700
  0.511000,  2.227800
  0.513000,  2.106400
  0.515000,  1.983200
  0.517000,  1.856700
  0.519000,  1.729700
  0.521000,  1.601200
  0.523000,  1.468500
  0.525000,  1.335000
  0.527000,  1.202100
  0.529000,  1.066100
  0.531000,  0.929100
  0.533000,  0.794300
  0.535000,  0.658700
  0.537000,  0.523100
  0.539000,  0.389500
  0.541000,  0.259300
  0.543000,  0.130700
  0.545000,  0.003700
  0.547000, -0.119300
  0.549000, -0.240100
  0.551000, -0.356700
  0.553000, -0.469900
  0.555000, -0.580100
  0.557000, -0.685300
  0.559000, -0.786100
  0.561000, -0.884000
  0.563000, -0.977700
  0.565000, -1.065700
  0.567000, -1.149600
  0.569000, -1.230900
  0.571000, -1.306400
  0.573000, -1.376200
  0.575000, -1.441700
  0.577000, -1.502900
  0.579000, -1.560000
  0.581000, -1.610800
  0.583000, -1.656700
  0.585000, -1.697500
  0.587000, -1.732100
  0.589000, -1.762300
  0.591000, -1.788400
  0.593000, -1.809600
  0.595000, -1.827200
  0.597000, -1.840600
  0.599000, -1.848700
  0.601000, -1.852300
  0.603000, -1.851600
  0.605000, -1.846400
  0.607000, -1.837300
  0.609000, -1.825100
  0.611000, -1.808900
  0.613000, -1.789100
  0.615000, -1.766200
  0.617000, -1.740000
  0.619000, -1.711200
  0.621000, -1.679600
  0.623000, -1.645600
  0.625000, -1.609100
  0.627000, -1.569800
  0.629000, -1.528100
  0.631000, -1.484900
  0.633000, -1.439800
  0.635000, -1.392700
  0.637000, -1.344700
  0.639000, -1.295300
  0.641000, -1.244100
  0.643000, -1.191600
  0.645000, -1.138700
  0.647000, -1.085200
  0.649000, -1.031300
  0.651000, -0.977400
  0.653000, -0.922800
  0.655000, -0.867900
  0.657000, -0.813200
  0.659000, -0.758700
  0.661000, -0.705000
  0.663000, -0.651800
  0.665000, -0.599000
  0.667000, -0.547500
  0.669000, -0.497100
  0.671000, -0.447300
  0.673000, -0.398800
  0.675000, -0.351600
  0.677000, -0.306200
  0.679000, -0.262500
  0.681000, -0.220000
  0.683000, -0.179500
  0.685000, -0.140800
  0.687000, -0.104100
  0.689000, -0.069500
  0.691000, -0.036900
  0.693000, -0.006200
  0.695000,  0.022100
  0.697000,  0.047900
  0.699000,  0.071700
  0.701000,  0.093200
  0.703000,  0.112200
  0.705000,  0.128900
  0.707000,  0.143600
  0.709000,  0.156100
  0.711000,  0.165800
  0.713000,  0.173200
  0.715000,  0.178500
  0.717000,  0.181700
  0.719000,  0.183000
  0.721000,  0.182300
  0.723000,  0.179400
  0.725000,  0.174400
  0.727000,  0.167700
  0.729000,  0.159500
  0.731000,  0.149800
  0.733000,  0.138800
  0.735000,  0.126300
  0.737000,  0.112600
  0.739000,  0.097800
  0.741000,  0.081700
  0.743000,  0.064900
  0.745000,  0.047500
  0.747000,  0.029400
  0.749000,  0.010800
  0.751000, -0.008500
  0.753000, -0.027800
  0.755000, -0.047100
  0.757000, -0.066900
  0.759000, -0.086900
  0.761000, -0.106800
  0.763000, -0.126500
  0.765000, -0.145800
  0.767000, -0.164700
  0.769000, -0.183100
  0.771000, -0.200800
  0.773000, -0.218000
  0.775000, -0.234400
  0.777000, -0.250200
  0.779000, -0.265100
  0.781000, -0.279100
  0.783000, -0.292000
  0.785000, -0.303900
  0.787000, -0.314900
  0.789000, -0.324900
  0.791000, -0.333700
  0.793000, -0.341400
  0.795000, -0.348000
  0.797000, -0.353400
  0.799000, -0.357600
  0.801000, -0.360900
  0.803000, -0.363000
  0.805000, -0.364000
  0.807000, -0.364000
  0.809000, -0.362700
  0.811000, -0.360400
  0.813000, -0.357000
  0.815000, -0.352600
  0.817000, -0.347300
  0.819000, -0.341000
  0.821000, -0.333800
  0.823000, -0.325700
  0.825000, -0.316700
  0.827000, -0.307000
  0.829000, -0.296700
  0.831000, -0.285700
  0.833000, -0.274000
  0.835000, -0.261600
  0.837000, -0.248900
  0.839000, -0.235800
  0.841000, -0.222200
  0.843000, -0.208200
  0.845000, -0.193900
  0.847000, -0.179300
  0.849000, -0.164400
  0.851000, -0.149200
  0.853000, -0.134100
  0.855000, -0.118900
  0.857000, -0.103700
  0.859000, -0.088400
  0.861000, -0.073200
  0.863000, -0.058100
  0.865000, -0.043300
  0.867000, -0.028500
  0.869000, -0.013900
  0.871000,  0.000300
  0.873000,  0.014300
  0.875000,  0.028100
  0.877000,  0.041500
  0.879000,  0.054400
  0.881000,  0.066900
  0.883000,  0.078900
  0.885000,  0.090300
  0.887000,  0.101200
  0.889000,  0.111800
  0.891000,  0.121700
  0.893000,  0.131000
  0.895000,  0.139800
  0.897000,  0.147900
  0.899000,  0.155300
  0.901000,  0.161900
  0.903000,  0.168100
  0.905000,  0.173700
  0.907000,  0.178600
  0.909000,  0.182900
  0.911000,  0.186500
  0.913000,  0.189500
  0.915000,  0.191800
  0.917000,  0.193300
  0.919000,  0.194300
  0.921000,  0.194900
  0.923000,  0.194800
  0.925000,  0.194200
  0.927000,  0.193000
  0.929000,  0.191300
  0.931000,  0.188800
  0.933000,  0.186100
  0.935000,  0.182900
  0.937000,  0.179300
  0.939000,  0.175100
  0.941000,  0.170400
  0.943000,  0.165300
  0.945000,  0.159800
  0.947000,  0.154000
  0.949000,  0.148000
  0.951000,  0.141500
  0.953000,  0.134800
  0.955000,  0.128100
  0.957000,  0.121100
  0.959000,  0.113600
  0.961000,  0.106000
  0.963000,  0.098400
  0.965000,  0.091100
  0.967000,  0.083400
  0.969000,  0.075600
  0.971000,  0.067900
  0.973000,  0.060300
  0.975000,  0.052800
  0.977000,  0.045600
  0.979000,  0.038400
  0.981000,  0.031300
  0.983000,  0.024400
  0.985000,  0.017600
  0.987000,  0.010900
  0.989000,  0.004500
  0.991000, -0.001600
  0.993000, -0.007600
  0.995000, -0.013500
  0.997000, -0.019200
  0.999000, -0.024300
  1.001000, -0.029000
  1.003000, -0.033500
  1.005000, -0.037700
  1.007000, -0.041500
  1.009000, -0.044800
  1.011000, -0.047900
  1.013000, -0.050500
  1.015000, -0.052800
  1.017000, -0.054900
  1.019000, -0.056500
  1.021000, -0.057800
  1.023000, -0.058800
  1.025000, -0.059500
  1.027000, -0.059700
  1.029000, -0.059600
  1.031000, -0.059100
  1.033000, -0.058400
  1.035000, -0.057400
  1.037000, -0.056000
  1.039000, -0.054300
  1.041000, -0.052200
  1.043000, -0.049900
  1.045000, -0.047300
  1.047000, -0.044400
  1.049000, -0.041200
  1.051000, -0.037900
  1.053000, -0.034400
  1.055000, -0.030800
  1.057000, -0.026900
  1.059000, -0.022600
  1.061000, -0.018200
  1.063000, -0.013800
  1.065000, -0.009300
  1.067000, -0.004600
  1.069000,  0.000300
  1.071000,  0.005200
  1.073000,  0.010200
  1.075000,  0.015300
  1.077000,  0.020300
  1.079000,  0.025200
  1.081000,  0.030000
  1.083000,  0.034900
  1.085000,  0.039900
  1.087000,  0.044900
  1.089000,  0.049800
  1.091000,  0.054400
  1.093000,  0.059000
  1.095000,  0.063600
  1.097000,  0.068100
  1.099000,  0.072200
  1.101000,  0.076400
  1.103000,  0.080500
  1.105000,  0.084500
  1.107000,  0.088400
  1.109000,  0.092100
  1.111000,  0.095600
  1.113000,  0.098900
  1.115000,  0.101900
  1.117000,  0.104900
  1.119000,  0.107900
  1.121000,  0.110500
  1.123000,  0.113000
  1.125000,  0.115400
  1.127000,  0.117500
  1.129000,  0.119500
  1.131000,  0.121300
  1.133000,  0.122800
  1.135000,  0.124100
  1.137000,  0.125000
  1.139000,  0.125800
  1.141000,  0.126600
  1.143000,  0.127200
  1.145000,  0.127500
  1.147000,  0.127600
  1.149000,  0.127600
  1.151000,  0.127600
  1.153000,  0.127300
  1.155000,  0.126800
  1.157000,  0.125900
  1.159000,  0.124900
  1.161000,  0.123900
  1.163000,  0.122600
  1.165000,  0.121100
  1.167000,  0.119400
  1.169000,  0.117500
  1.171000,  0.115500
  1.173000,  0.113400
  1.175000,  0.111100
  1.177000,  0.108600
  1.179000,  0.105900
  1.181000,  0.103100
  1.183000,  0.100200
  1.185000,  0.097100
  1.187000,  0.094100
  1.189000,  0.091000
  1.191000,  0.087800
  1.193000,  0.084300
  1.195000,  0.080900
  1.197000,  0.077400
  1.199000,  0.074000
  1.201000,  0.070400
  1.203000,  0.066900
  1.205000,  0.063300
  1.207000,  0.059700
  1.209000,  0.056300
  1.211000,  0.052800
  1.213000,  0.049100
  1.215000,  0.045500
  1.217000,  0.042000
  1.219000,  0.038400
  1.221000,  0.034900
  1.223000,  0.031700
  1.225000,  0.028500
  1.227000,  0.025400
  1.229000,  0.022400
  1.231000,  0.019500
  1.233000,  0.016800
  1.235000,  0.014200
  1.237000,  0.011600
  1.239000,  0.009100
  1.241000,  0.007000
  1.243000,  0.004900
  1.245000,  0.002800
  1.247000,  0.000900
  1.249000, -0.001000
  1.251000, -0.002700
  1.253000, -0.004100
  1.255000, -0.005300
  1.257000, -0.006400
  1.259000, -0.007500
  1.261000, -0.008500
  1.263000, -0.009300
  1.265000, -0.010000
  1.267000, -0.010500
  1.269000, -0.011000
  1.271000, -0.011400
  1.273000, -0.011700
  1.275000, -0.011800
  1.277000, -0.012000
  1.279000, -0.012100
  1.281000, -0.012100
  1.283000, -0.012100
  1.285000, -0.012100
  1.287000, -0.011900
  1.289000, -0.011800
  1.291000, -0.011600
  1.293000, -0.011600
  1.295000, -0.011500
  1.297000, -0.011400
  1.299000, -0.011400
  1.301000, -0.011400
  1.303000, -0.011400
  1.305000, -0.011500
  1.307000, -0.011600
  1.309000, -0.011600
  1.311000, -0.011800
  1.313000, -0.012200
  1.315000, -0.012600
  1.317000, -0.013000
  1.319000, -0.013400
  1.321000, -0.013900
  1.323000, -0.014400
  1.325000, -0.015000
  1.327000, -0.015600
  1.329000, -0.016300
  1.331000, -0.016900
  1.333000, -0.017500
  1.335000, -0.018200
  1.337000, -0.018900
  1.339000, -0.019400
  1.341000, -0.020000
  1.343000, -0.020400
  1.345000, -0.020800
  1.347000, -0.021100
  1.349000, -0.021200
  1.351000, -0.021300
  1.353000, -0.021400
  1.355000, -0.021200
  1.357000, -0.021000
  1.359000, -0.020700
  1.361000, -0.020100
  1.363000, -0.019300
  1.365000, -0.018200
  1.367000, -0.016900
  1.369000, -0.015600
  1.371000, -0.014200
  1.373000, -0.012600
  1.375000, -0.010600
  1.377000, -0.008500
  1.379000, -0.006200
  1.381000, -0.003800
  1.383000, -0.001200
  1.385000,  0.002000
  1.387000,  0.005100
  1.389000,  0.008100
  1.391000,  0.011000
  1.393000,  0.013800
  1.395000,  0.016500
  1.397000,  0.019000
  1.399000,  0.021500
