# z (nm)   (kJ/mol)
  0.353000,  8.028800
  0.355000,  7.395400
  0.357000,  6.726500
  0.359000,  6.049400
  0.361000,  5.352300
  0.363000,  4.678700
  0.365000,  4.022500
  0.367000,  3.376500
  0.369000,  2.741400
  0.371000,  2.120000
  0.373000,  1.508500
  0.375000,  0.899200
  0.377000,  0.293000
  0.379000, -0.291200
  0.381000, -0.855800
  0.383000, -1.405900
  0.385000, -1.938800
  0.387000, -2.460100
  0.389000, -2.962900
  0.391000, -3.440800
  0.393000, -3.897300
  0.395000, -4.331100
  0.397000, -4.741100
  0.399000, -5.128400
  0.401000, -5.491600
  0.403000, -5.830600
  0.405000, -6.145300
  0.407000, -6.435500
  0.409000, -6.701000
  0.411000, -6.943400
  0.413000, -7.163200
  0.415000, -7.358100
  0.417000, -7.528100
  0.419000, -7.675500
  0.421000, -7.800900
  0.423000, -7.903500
  0.425000, -7.984500
  0.427000, -8.044200
  0.429000, -8.083400
  0.431000, -8.102700
  0.433000, -8.102800
  0.435000, -8.083700
  0.437000, -8.047100
  0.439000, -7.993100
  0.441000, -7.922800
  0.443000, -7.837100
  0.445000, -7.735800
  0.447000, -7.617100
  0.449000, -7.484100
  0.451000, -7.341000
  0.453000, -7.190200
  0.455000, -7.030900
  0.457000, -6.861400
  0.459000, -6.684800
  0.461000, -6.499300
  0.463000, -6.306200
  0.465000, -6.109300
  0.467000, -5.909500
  0.469000, -5.706400
  0.471000, -5.501200
  0.473000, -5.296300
  0.475000, -5.097000
  0.477000, -4.900500
  0.479000, -4.708300
  0.481000, -4.520400
  0.483000, -4.334200
  0.485000, -4.155000
  0.487000, -3.983200
  0.489000, -3.817900
  0.491000, -3.658900
  0.493000, -3.508200
  0.495000, -3.366100
  0.497000, -3.233100
  0.499000, -3.109300
  0.501000, -2.994300
  0.503000, -2.888300
  0.505000, -2.791700
  0.507000, -2.703900
  0.509000, -2.625200
  0.511000, -2.555000
  0.513000, -2.493600
  0.515000, -2.440800
  0.517000, -2.395800
  0.519000, -2.358600
  0.521000, -2.329200
  0.523000, -2.307100
  0.525000, -2.291400
  0.527000, -2.281300
  0.529000, -2.276900
  0.531000, -2.278400
  0.533000, -2.285300
  0.535000, -2.297100
  0.537000, -2.313200
  0.539000, -2.332600
  0.541000, -2.355900
  0.543000, -2.382500
  0.545000, -2.411400
  0.547000, -2.442800
  0.549000, -2.476500
  0.551000, -2.511900
  0.553000, -2.548600
  0.555000, -2.586300
  0.557000, -2.625300
  0.559000, -2.665200
  0.561000, -2.705400
  0.563000, -2.745800
  0.565000, -2.786400
  0.567000, -2.826800
  0.569000, -2.867100
  0.571000, -2.907500
  0.573000, -2.947800
  0.575000, -2.987500
  0.577000, -3.026600
  0.579000, -3.064900
  0.581000, -3.102900
  0.583000, -3.140300
  0.585000, -3.177000
  0.587000, -3.213200
  0.589000, -3.248600
  0.591000, -3.282900
  0.593000, -3.316300
  0.595000, -3.349100
  0.597000, -3.381600
  0.599000, -3.412900
  0.601000, -3.443300
  0.603000, -3.473000
  0.605000, -3.502000
  0.607000, -3.530100
  0.609000, -3.557200
  0.611000, -3.583200
  0.613000, -3.607800
  0.615000, -3.631500
  0.617000, -3.654000
  0.619000, -3.675100
  0.621000, -3.695100
  0.623000, -3.713900
  0.625000, -3.731400
  0.627000, -3.747200
  0.629000, -3.761400
  0.631000, -3.773900
  0.633000, -3.784900
  0.635000, -3.794100
  0.637000, -3.801400
  0.639000, -3.806800
  0.641000, -3.810200
  0.643000, -3.811500
  0.645000, -3.810500
  0.647000, -3.807400
  0.649000, -3.802200
  0.651000, -3.794700
  0.653000, -3.784900
  0.655000, -3.772700
  0.657000, -3.758100
  0.659000, -3.741100
  0.661000, -3.721900
  0.663000, -3.700300
  0.665000, -3.676500
  0.667000, -3.650500
  0.669000, -3.622000
  0.671000, -3.591400
  0.673000, -3.558700
  0.675000, -3.523900
  0.677000, -3.487200
  0.679000, -3.448800
  0.681000, -3.408500
  0.683000, -3.366200
  0.685000, -3.322400
  0.687000, -3.277000
  0.689000, -3.230400
  0.691000, -3.182700
  0.693000, -3.133800
  0.695000, -3.083900
  0.697000, -3.033300
  0.699000, -2.982100
  0.701000, -2.930200
  0.703000, -2.878000
  0.705000, -2.825500
  0.707000, -2.772900
  0.709000, -2.720300
  0.711000, -2.668100
  0.713000, -2.615900
  0.715000, -2.564300
  0.717000, -2.513400
  0.719000, -2.463100
  0.721000, -2.413900
  0.723000, -2.365300
  0.725000, -2.317500
  0.727000, -2.271100
  0.729000, -2.226000
  0.731000, -2.182000
  0.733000, -2.139800
  0.735000, -2.099000
  0.737000, -2.059600
  0.739000, -2.021800
  0.741000, -1.985800
  0.743000, -1.951500
  0.745000, -1.919000
  0.747000, -1.888200
  0.749000, -1.859000
  0.751000, -1.831700
  0.753000, -1.806200
  0.755000, -1.782300
  0.757000, -1.760200
  0.759000, -1.739800
  0.761000, -1.721200
  0.763000, -1.704300
  0.765000, -1.688900
  0.767000, -1.675100
  0.769000, -1.662800
  0.771000, -1.651900
  0.773000, -1.642600
  0.775000, -1.634600
  0.777000, -1.628000
  0.779000, -1.622700
  0.781000, -1.618500
  0.783000, -1.615500
  0.785000, -1.613600
  0.787000, -1.612600
  0.789000, -1.612500
  0.791000, -1.613100
  0.793000, -1.614700
  0.795000, -1.617100
  0.797000, -1.619900
  0.799000, -1.623300
  0.801000, -1.627100
  0.803000, -1.631400
  0.805000, -1.636300
  0.807000, -1.641500
  0.809000, -1.646900
  0.811000, -1.652400
  0.813000, -1.658000
  0.815000, -1.663700
  0.817000, -1.669200
  0.819000, -1.674800
  0.821000, -1.680400
  0.823000, -1.686000
  0.825000, -1.691500
  0.827000, -1.696600
  0.829000, -1.701500
  0.831000, -1.706100
  0.833000, -1.710300
  0.835000, -1.714100
  0.837000, -1.717600
  0.839000, -1.720600
  0.841000, -1.723300
  0.843000, -1.725400
  0.845000, -1.726800
  0.847000, -1.727600
  0.849000, -1.727800
  0.851000, -1.727600
  0.853000, -1.726700
  0.855000, -1.725200
  0.857000, -1.723000
  0.859000, -1.720100
  0.861000, -1.716600
  0.863000, -1.712400
  0.865000, -1.707400
  0.867000, -1.701800
  0.869000, -1.695500
  0.871000, -1.688400
  0.873000, -1.680700
  0.875000, -1.672400
  0.877000, -1.663400
  0.879000, -1.653700
  0.881000, -1.643400
  0.883000, -1.632400
  0.885000, -1.620700
  0.887000, -1.608400
  0.889000, -1.595600
  0.891000, -1.582300
  0.893000, -1.568300
  0.895000, -1.553800
  0.897000, -1.538900
  0.899000, -1.523600
  0.901000, -1.507700
  0.903000, -1.491400
  0.905000, -1.474800
  0.907000, -1.458000
  0.909000, -1.440800
  0.911000, -1.423200
  0.913000, -1.405500
  0.915000, -1.387600
  0.917000, -1.369400
  0.919000, -1.350900
  0.921000, -1.332400
  0.923000, -1.314100
  0.925000, -1.295700
  0.927000, -1.277300
  0.929000, -1.258900
  0.931000, -1.240600
  0.933000, -1.222400
  0.935000, -1.204300
  0.937000, -1.186200
  0.939000, -1.168400
  0.941000, -1.150800
  0.943000, -1.133500
  0.945000, -1.116600
  0.947000, -1.099900
  0.949000, -1.083400
  0.951000, -1.067300
  0.953000, -1.051500
  0.955000, -1.036200
  0.957000, -1.021200
  0.959000, -1.006700
  0.961000, -0.992500
  0.963000, -0.978700
  0.965000, -0.965400
  0.967000, -0.952600
  0.969000, -0.940200
  0.971000, -0.928100
  0.973000, -0.916500
  0.975000, -0.905500
  0.977000, -0.894800
  0.979000, -0.884500
  0.981000, -0.874600
  0.983000, -0.865200
  0.985000, -0.856100
  0.987000, -0.847400
  0.989000, -0.839000
  0.991000, -0.831000
  0.993000, -0.823300
  0.995000, -0.816100
  0.997000, -0.809000
  0.999000, -0.802100
  1.001000, -0.795500
  1.003000, -0.789300
  1.005000, -0.783200
  1.007000, -0.777300
  1.009000, -0.771800
  1.011000, -0.766400
  1.013000, -0.761100
  1.015000, -0.756100
  1.017000, -0.751400
  1.019000, -0.746600
  1.021000, -0.741900
  1.023000, -0.737300
  1.025000, -0.732800
  1.027000, -0.728400
  1.029000, -0.724000
  1.031000, -0.719700
  1.033000, -0.715300
  1.035000, -0.710900
  1.037000, -0.706700
  1.039000, -0.702300
  1.041000, -0.697800
  1.043000, -0.693400
  1.045000, -0.688900
  1.047000, -0.684200
  1.049000, -0.679500
  1.051000, -0.674800
  1.053000, -0.670000
  1.055000, -0.665100
  1.057000, -0.660200
  1.059000, -0.655200
  1.061000, -0.650200
  1.063000, -0.645100
  1.065000, -0.640000
  1.067000, -0.634700
  1.069000, -0.629500
  1.071000, -0.624100
  1.073000, -0.618700
  1.075000, -0.613200
  1.077000, -0.607700
  1.079000, -0.602100
  1.081000, -0.596500
  1.083000, -0.590900
  1.085000, -0.585200
  1.087000, -0.579400
  1.089000, -0.573800
  1.091000, -0.568000
  1.093000, -0.562300
  1.095000, -0.556500
  1.097000, -0.550700
  1.099000, -0.545000
  1.101000, -0.539300
  1.103000, -0.533500
  1.105000, -0.527700
  1.107000, -0.521900
  1.109000, -0.516200
  1.111000, -0.510700
  1.113000, -0.505100
  1.115000, -0.499600
  1.117000, -0.494200
  1.119000, -0.488800
  1.121000, -0.483400
  1.123000, -0.478000
  1.125000, -0.472700
  1.127000, -0.467400
  1.129000, -0.462100
  1.131000, -0.457000
  1.133000, -0.451900
  1.135000, -0.446800
  1.137000, -0.441700
  1.139000, -0.436600
  1.141000, -0.431600
  1.143000, -0.426500
  1.145000, -0.421500
  1.147000, -0.416500
  1.149000, -0.411700
  1.151000, -0.406800
  1.153000, -0.401900
  1.155000, -0.396900
  1.157000, -0.391900
  1.159000, -0.387000
  1.161000, -0.382000
  1.163000, -0.377000
  1.165000, -0.371900
  1.167000, -0.366900
  1.169000, -0.361900
  1.171000, -0.356800
  1.173000, -0.351600
  1.175000, -0.346300
  1.177000, -0.340900
  1.179000, -0.335600
  1.181000, -0.330100
  1.183000, -0.324600
  1.185000, -0.319000
  1.187000, -0.313300
  1.189000, -0.307700
  1.191000, -0.301800
  1.193000, -0.295800
  1.195000, -0.289700
  1.197000, -0.283700
  1.199000, -0.277700
  1.201000, -0.271600
  1.203000, -0.265400
  1.205000, -0.259100
  1.207000, -0.252800
  1.209000, -0.246400
  1.211000, -0.240000
  1.213000, -0.233400
  1.215000, -0.226800
  1.217000, -0.220300
  1.219000, -0.213700
  1.221000, -0.207100
  1.223000, -0.200500
  1.225000, -0.193800
  1.227000, -0.187300
  1.229000, -0.180700
  1.231000, -0.174000
  1.233000, -0.167400
  1.235000, -0.160800
  1.237000, -0.154200
  1.239000, -0.147700
  1.241000, -0.141200
  1.243000, -0.134700
  1.245000, -0.128300
  1.247000, -0.122000
  1.249000, -0.115700
  1.251000, -0.109700
  1.253000, -0.103800
  1.255000, -0.097900
  1.257000, -0.092000
  1.259000, -0.086300
  1.261000, -0.080800
  1.263000, -0.075500
  1.265000, -0.070100
  1.267000, -0.065000
  1.269000, -0.059900
  1.271000, -0.054900
  1.273000, -0.050100
  1.275000, -0.045300
  1.277000, -0.040700
  1.279000, -0.036200
  1.281000, -0.031800
  1.283000, -0.027700
  1.285000, -0.023600
  1.287000, -0.019700
  1.289000, -0.015900
  1.291000, -0.012000
  1.293000, -0.008300
  1.295000, -0.004700
  1.297000, -0.001000
  1.299000,  0.002600
  1.301000,  0.006200
  1.303000,  0.009700
  1.305000,  0.013200
  1.307000,  0.016700
  1.309000,  0.020100
  1.311000,  0.023500
  1.313000,  0.026900
  1.315000,  0.030500
  1.317000,  0.034100
  1.319000,  0.037900
  1.321000,  0.041800
  1.323000,  0.045700
  1.325000,  0.049700
  1.327000,  0.053800
  1.329000,  0.057900
  1.331000,  0.062300
  1.333000,  0.066800
  1.335000,  0.071400
  1.337000,  0.076300
  1.339000,  0.081200
  1.341000,  0.086300
  1.343000,  0.091700
  1.345000,  0.097300
  1.347000,  0.103100
  1.349000,  0.109000
  1.351000,  0.115100
  1.353000,  0.121300
  1.355000,  0.127900
  1.357000,  0.134700
  1.359000,  0.141400
  1.361000,  0.148200
  1.363000,  0.155500
  1.365000,  0.162700
  1.367000,  0.170000
  1.369000,  0.177500
  1.371000,  0.185200
  1.373000,  0.192900
  1.375000,  0.200700
  1.377000,  0.208700
  1.379000,  0.216400
  1.381000,  0.224200
  1.383000,  0.231900
  1.385000,  0.239300
  1.387000,  0.246700
  1.389000,  0.253900
  1.391000,  0.261000
  1.393000,  0.267900
  1.395000,  0.274300
  1.397000,  0.280200
  1.399000,  0.286100
