# z (nm)   (kJ/mol)
  0.3530    8.02880
  0.3550    7.39540
  0.3570    6.72650
  0.3590    6.04940
  0.3610    5.35230
  0.3630    4.67870
  0.3650    4.02250
  0.3670    3.37650
  0.3690    2.74140
  0.3710    2.12000
  0.3730    1.50850
  0.3750    0.89920
  0.3770    0.29300
  0.3790   -0.29120
  0.3810   -0.85580
  0.3830   -1.40590
  0.3850   -1.93880
  0.3870   -2.46010
  0.3890   -2.96290
  0.3910   -3.44080
  0.3930   -3.89730
  0.3950   -4.33110
  0.3970   -4.74110
  0.3990   -5.12840
  0.4010   -5.49160
  0.4030   -5.83060
  0.4050   -6.14530
  0.4070   -6.43550
  0.4090   -6.70100
  0.4110   -6.94340
  0.4130   -7.16320
  0.4150   -7.35810
  0.4170   -7.52810
  0.4190   -7.67550
  0.4210   -7.80090
  0.4230   -7.90350
  0.4250   -7.98450
  0.4270   -8.04420
  0.4290   -8.08340
  0.4310   -8.10270
  0.4330   -8.10280
  0.4350   -8.08370
  0.4370   -8.04710
  0.4390   -7.99310
  0.4410   -7.92280
  0.4430   -7.83710
  0.4450   -7.73580
  0.4470   -7.61710
  0.4490   -7.48410
  0.4510   -7.34100
  0.4530   -7.19020
  0.4550   -7.03090
  0.4570   -6.86140
  0.4590   -6.68480
  0.4610   -6.49930
  0.4630   -6.30620
  0.4650   -6.10930
  0.4670   -5.90950
  0.4690   -5.70640
  0.4710   -5.50120
  0.4730   -5.29630
  0.4750   -5.09700
  0.4770   -4.90050
  0.4790   -4.70830
  0.4810   -4.52040
  0.4830   -4.33420
  0.4850   -4.15500
  0.4870   -3.98320
  0.4890   -3.81790
  0.4910   -3.65890
  0.4930   -3.50820
  0.4950   -3.36610
  0.4970   -3.23310
  0.4990   -3.10930
  0.5010   -2.99430
  0.5030   -2.88830
  0.5050   -2.79170
  0.5070   -2.70390
  0.5090   -2.62520
  0.5110   -2.55500
  0.5130   -2.49360
  0.5150   -2.44080
  0.5170   -2.39580
  0.5190   -2.35860
  0.5210   -2.32920
  0.5230   -2.30710
  0.5250   -2.29140
  0.5270   -2.28130
  0.5290   -2.27690
  0.5310   -2.27840
  0.5330   -2.28530
  0.5350   -2.29710
  0.5370   -2.31320
  0.5390   -2.33260
  0.5410   -2.35590
  0.5430   -2.38250
  0.5450   -2.41140
  0.5470   -2.44280
  0.5490   -2.47650
  0.5510   -2.51190
  0.5530   -2.54860
  0.5550   -2.58630
  0.5570   -2.62530
  0.5590   -2.66520
  0.5610   -2.70540
  0.5630   -2.74580
  0.5650   -2.78640
  0.5670   -2.82680
  0.5690   -2.86710
  0.5710   -2.90750
  0.5730   -2.94780
  0.5750   -2.98750
  0.5770   -3.02660
  0.5790   -3.06490
  0.5810   -3.10290
  0.5830   -3.14030
  0.5850   -3.17700
  0.5870   -3.21320
  0.5890   -3.24860
  0.5910   -3.28290
  0.5930   -3.31630
  0.5950   -3.34910
  0.5970   -3.38160
  0.5990   -3.41290
  0.6010   -3.44330
  0.6030   -3.47300
  0.6050   -3.50200
  0.6070   -3.53010
  0.6090   -3.55720
  0.6110   -3.58320
  0.6130   -3.60780
  0.6150   -3.63150
  0.6170   -3.65400
  0.6190   -3.67510
  0.6210   -3.69510
  0.6230   -3.71390
  0.6250   -3.73140
  0.6270   -3.74720
  0.6290   -3.76140
  0.6310   -3.77390
  0.6330   -3.78490
  0.6350   -3.79410
  0.6370   -3.80140
  0.6390   -3.80680
  0.6410   -3.81020
  0.6430   -3.81150
  0.6450   -3.81050
  0.6470   -3.80740
  0.6490   -3.80220
  0.6510   -3.79470
  0.6530   -3.78490
  0.6550   -3.77270
  0.6570   -3.75810
  0.6590   -3.74110
  0.6610   -3.72190
  0.6630   -3.70030
  0.6650   -3.67650
  0.6670   -3.65050
  0.6690   -3.62200
  0.6710   -3.59140
  0.6730   -3.55870
  0.6750   -3.52390
  0.6770   -3.48720
  0.6790   -3.44880
  0.6810   -3.40850
  0.6830   -3.36620
  0.6850   -3.32240
  0.6870   -3.27700
  0.6890   -3.23040
  0.6910   -3.18270
  0.6930   -3.13380
  0.6950   -3.08390
  0.6970   -3.03330
  0.6990   -2.98210
  0.7010   -2.93020
  0.7030   -2.87800
  0.7050   -2.82550
  0.7070   -2.77290
  0.7090   -2.72030
  0.7110   -2.66810
  0.7130   -2.61590
  0.7150   -2.56430
  0.7170   -2.51340
  0.7190   -2.46310
  0.7210   -2.41390
  0.7230   -2.36530
  0.7250   -2.31750
  0.7270   -2.27110
  0.7290   -2.22600
  0.7310   -2.18200
  0.7330   -2.13980
  0.7350   -2.09900
  0.7370   -2.05960
  0.7390   -2.02180
  0.7410   -1.98580
  0.7430   -1.95150
  0.7450   -1.91900
  0.7470   -1.88820
  0.7490   -1.85900
  0.7510   -1.83170
  0.7530   -1.80620
  0.7550   -1.78230
  0.7570   -1.76020
  0.7590   -1.73980
  0.7610   -1.72120
  0.7630   -1.70430
  0.7650   -1.68890
  0.7670   -1.67510
  0.7690   -1.66280
  0.7710   -1.65190
  0.7730   -1.64260
  0.7750   -1.63460
  0.7770   -1.62800
  0.7790   -1.62270
  0.7810   -1.61850
  0.7830   -1.61550
  0.7850   -1.61360
  0.7870   -1.61260
  0.7890   -1.61250
  0.7910   -1.61310
  0.7930   -1.61470
  0.7950   -1.61710
  0.7970   -1.61990
  0.7990   -1.62330
  0.8010   -1.62710
  0.8030   -1.63140
  0.8050   -1.63630
  0.8070   -1.64150
  0.8090   -1.64690
  0.8110   -1.65240
  0.8130   -1.65800
  0.8150   -1.66370
  0.8170   -1.66920
  0.8190   -1.67480
  0.8210   -1.68040
  0.8230   -1.68600
  0.8250   -1.69150
  0.8270   -1.69660
  0.8290   -1.70150
  0.8310   -1.70610
  0.8330   -1.71030
  0.8350   -1.71410
  0.8370   -1.71760
  0.8390   -1.72060
  0.8410   -1.72330
  0.8430   -1.72540
  0.8450   -1.72680
  0.8470   -1.72760
  0.8490   -1.72780
  0.8510   -1.72760
  0.8530   -1.72670
  0.8550   -1.72520
  0.8570   -1.72300
  0.8590   -1.72010
  0.8610   -1.71660
  0.8630   -1.71240
  0.8650   -1.70740
  0.8670   -1.70180
  0.8690   -1.69550
  0.8710   -1.68840
  0.8730   -1.68070
  0.8750   -1.67240
  0.8770   -1.66340
  0.8790   -1.65370
  0.8810   -1.64340
  0.8830   -1.63240
  0.8850   -1.62070
  0.8870   -1.60840
  0.8890   -1.59560
  0.8910   -1.58230
  0.8930   -1.56830
  0.8950   -1.55380
  0.8970   -1.53890
  0.8990   -1.52360
  0.9010   -1.50770
  0.9030   -1.49140
  0.9050   -1.47480
  0.9070   -1.45800
  0.9090   -1.44080
  0.9110   -1.42320
  0.9130   -1.40550
  0.9150   -1.38760
  0.9170   -1.36940
  0.9190   -1.35090
  0.9210   -1.33240
  0.9230   -1.31410
  0.9250   -1.29570
  0.9270   -1.27730
  0.9290   -1.25890
  0.9310   -1.24060
  0.9330   -1.22240
  0.9350   -1.20430
  0.9370   -1.18620
  0.9390   -1.16840
  0.9410   -1.15080
  0.9430   -1.13350
  0.9450   -1.11660
  0.9470   -1.09990
  0.9490   -1.08340
  0.9510   -1.06730
  0.9530   -1.05150
  0.9550   -1.03620
  0.9570   -1.02120
  0.9590   -1.00670
  0.9610   -0.99250
  0.9630   -0.97870
  0.9650   -0.96540
  0.9670   -0.95260
  0.9690   -0.94020
  0.9710   -0.92810
  0.9730   -0.91650
  0.9750   -0.90550
  0.9770   -0.89480
  0.9790   -0.88450
  0.9810   -0.87460
  0.9830   -0.86520
  0.9850   -0.85610
  0.9870   -0.84740
  0.9890   -0.83900
  0.9910   -0.83100
  0.9930   -0.82330
  0.9950   -0.81610
  0.9970   -0.80900
  0.9990   -0.80210
  1.0010   -0.79550
  1.0030   -0.78930
  1.0050   -0.78320
  1.0070   -0.77730
  1.0090   -0.77180
  1.0110   -0.76640
  1.0130   -0.76110
  1.0150   -0.75610
  1.0170   -0.75140
  1.0190   -0.74660
  1.0210   -0.74190
  1.0230   -0.73730
  1.0250   -0.73280
  1.0270   -0.72840
  1.0290   -0.72400
  1.0310   -0.71970
  1.0330   -0.71530
  1.0350   -0.71090
  1.0370   -0.70670
  1.0390   -0.70230
  1.0410   -0.69780
  1.0430   -0.69340
  1.0450   -0.68890
  1.0470   -0.68420
  1.0490   -0.67950
  1.0510   -0.67480
  1.0530   -0.67000
  1.0550   -0.66510
  1.0570   -0.66020
  1.0590   -0.65520
  1.0610   -0.65020
  1.0630   -0.64510
  1.0650   -0.64000
  1.0670   -0.63470
  1.0690   -0.62950
  1.0710   -0.62410
  1.0730   -0.61870
  1.0750   -0.61320
  1.0770   -0.60770
  1.0790   -0.60210
  1.0810   -0.59650
  1.0830   -0.59090
  1.0850   -0.58520
  1.0870   -0.57940
  1.0890   -0.57380
  1.0910   -0.56800
  1.0930   -0.56230
  1.0950   -0.55650
  1.0970   -0.55070
  1.0990   -0.54500
  1.1010   -0.53930
  1.1030   -0.53350
  1.1050   -0.52770
  1.1070   -0.52190
  1.1090   -0.51620
  1.1110   -0.51070
  1.1130   -0.50510
  1.1150   -0.49960
  1.1170   -0.49420
  1.1190   -0.48880
  1.1210   -0.48340
  1.1230   -0.47800
  1.1250   -0.47270
  1.1270   -0.46740
  1.1290   -0.46210
  1.1310   -0.45700
  1.1330   -0.45190
  1.1350   -0.44680
  1.1370   -0.44170
  1.1390   -0.43660
  1.1410   -0.43160
  1.1430   -0.42650
  1.1450   -0.42150
  1.1470   -0.41650
  1.1490   -0.41170
  1.1510   -0.40680
  1.1530   -0.40190
  1.1550   -0.39690
  1.1570   -0.39190
  1.1590   -0.38700
  1.1610   -0.38200
  1.1630   -0.37700
  1.1650   -0.37190
  1.1670   -0.36690
  1.1690   -0.36190
  1.1710   -0.35680
  1.1730   -0.35160
  1.1750   -0.34630
  1.1770   -0.34090
  1.1790   -0.33560
  1.1810   -0.33010
  1.1830   -0.32460
  1.1850   -0.31900
  1.1870   -0.31330
  1.1890   -0.30770
  1.1910   -0.30180
  1.1930   -0.29580
  1.1950   -0.28970
  1.1970   -0.28370
  1.1990   -0.27770
  1.2010   -0.27160
  1.2030   -0.26540
  1.2050   -0.25910
  1.2070   -0.25280
  1.2090   -0.24640
  1.2110   -0.24000
  1.2130   -0.23340
  1.2150   -0.22680
  1.2170   -0.22030
  1.2190   -0.21370
  1.2210   -0.20710
  1.2230   -0.20050
  1.2250   -0.19380
  1.2270   -0.18730
  1.2290   -0.18070
  1.2310   -0.17400
  1.2330   -0.16740
  1.2350   -0.16080
  1.2370   -0.15420
  1.2390   -0.14770
  1.2410   -0.14120
  1.2430   -0.13470
  1.2450   -0.12830
  1.2470   -0.12200
  1.2490   -0.11570
  1.2510   -0.10970
  1.2530   -0.10380
  1.2550   -0.09790
  1.2570   -0.09200
  1.2590   -0.08630
  1.2610   -0.08080
  1.2630   -0.07550
  1.2650   -0.07010
  1.2670   -0.06500
  1.2690   -0.05990
  1.2710   -0.05490
  1.2730   -0.05010
  1.2750   -0.04530
  1.2770   -0.04070
  1.2790   -0.03620
  1.2810   -0.03180
  1.2830   -0.02770
  1.2850   -0.02360
  1.2870   -0.01970
  1.2890   -0.01590
  1.2910   -0.01200
  1.2930   -0.00830
  1.2950   -0.00470
  1.2970   -0.00100
  1.2990    0.00260
  1.3010    0.00620
  1.3030    0.00970
  1.3050    0.01320
  1.3070    0.01670
  1.3090    0.02010
  1.3110    0.02350
  1.3130    0.02690
  1.3150    0.03050
  1.3170    0.03410
  1.3190    0.03790
  1.3210    0.04180
  1.3230    0.04570
  1.3250    0.04970
  1.3270    0.05380
  1.3290    0.05790
  1.3310    0.06230
  1.3330    0.06680
  1.3350    0.07140
  1.3370    0.07630
  1.3390    0.08120
  1.3410    0.08630
  1.3430    0.09170
  1.3450    0.09730
  1.3470    0.10310
  1.3490    0.10900
  1.3510    0.11510
  1.3530    0.12130
  1.3550    0.12790
  1.3570    0.13470
  1.3590    0.14140
  1.3610    0.14820
  1.3630    0.15550
  1.3650    0.16270
  1.3670    0.17000
  1.3690    0.17750
  1.3710    0.18520
  1.3730    0.19290
  1.3750    0.20070
  1.3770    0.20870
  1.3790    0.21640
  1.3810    0.22420
  1.3830    0.23190
  1.3850    0.23930
  1.3870    0.24670
  1.3890    0.25390
  1.3910    0.26100
  1.3930    0.26790
  1.3950    0.27430
  1.3970    0.28020
  1.3990    0.28610
