# z (nm)   (kJ/mol)
  0.413000, 13.408200
  0.417000, 13.041800
  0.419000, 12.690000
  0.421000, 12.354000
  0.423000, 11.972600
  0.425000, 11.563700
  0.427000, 11.164000
  0.429000, 10.755900
  0.431000, 10.357200
  0.433000,  9.964500
  0.435000,  9.548200
  0.437000,  9.117300
  0.439000,  8.691800
  0.441000,  8.276600
  0.443000,  7.864700
  0.445000,  7.452500
  0.447000,  7.055200
  0.449000,  6.671900
  0.451000,  6.300800
  0.453000,  5.942700
  0.455000,  5.593100
  0.457000,  5.262900
  0.459000,  4.948500
  0.461000,  4.645600
  0.463000,  4.356100
  0.465000,  4.081200
  0.467000,  3.827000
  0.469000,  3.590200
  0.471000,  3.361800
  0.473000,  3.144800
  0.475000,  2.946400
  0.477000,  2.758000
  0.479000,  2.579300
  0.481000,  2.412900
  0.483000,  2.257300
  0.485000,  2.113000
  0.487000,  1.980300
  0.489000,  1.857500
  0.491000,  1.744500
  0.493000,  1.643000
  0.495000,  1.552000
  0.497000,  1.468800
  0.499000,  1.394100
  0.501000,  1.328500
  0.503000,  1.271800
  0.505000,  1.223400
  0.507000,  1.183100
  0.509000,  1.150500
  0.511000,  1.125900
  0.513000,  1.108600
  0.515000,  1.098300
  0.517000,  1.094200
  0.519000,  1.097100
  0.521000,  1.106800
  0.523000,  1.121900
  0.525000,  1.141900
  0.527000,  1.165300
  0.529000,  1.193400
  0.531000,  1.227900
  0.533000,  1.264600
  0.535000,  1.300400
  0.537000,  1.336800
  0.539000,  1.375700
  0.541000,  1.415200
  0.543000,  1.454400
  0.545000,  1.493300
  0.547000,  1.532700
  0.549000,  1.571800
  0.551000,  1.607900
  0.553000,  1.641200
  0.555000,  1.672800
  0.557000,  1.702300
  0.559000,  1.728700
  0.561000,  1.751900
  0.563000,  1.772000
  0.565000,  1.789700
  0.567000,  1.805400
  0.569000,  1.817100
  0.571000,  1.824400
  0.573000,  1.828700
  0.575000,  1.828200
  0.577000,  1.823400
  0.579000,  1.816700
  0.581000,  1.806600
  0.583000,  1.792300
  0.585000,  1.775100
  0.587000,  1.754200
  0.589000,  1.730200
  0.591000,  1.703300
  0.593000,  1.672900
  0.595000,  1.639900
  0.597000,  1.603900
  0.599000,  1.565600
  0.601000,  1.525700
  0.603000,  1.484300
  0.605000,  1.441300
  0.607000,  1.396600
  0.609000,  1.351400
  0.611000,  1.305100
  0.613000,  1.257700
  0.615000,  1.209700
  0.617000,  1.161600
  0.619000,  1.113500
  0.621000,  1.065500
  0.623000,  1.017400
  0.625000,  0.970000
  0.627000,  0.923800
  0.629000,  0.878700
  0.631000,  0.834600
  0.633000,  0.791900
  0.635000,  0.750800
  0.637000,  0.711400
  0.639000,  0.673400
  0.641000,  0.636900
  0.643000,  0.602500
  0.645000,  0.570500
  0.647000,  0.540100
  0.649000,  0.511600
  0.651000,  0.485500
  0.653000,  0.461400
  0.655000,  0.439800
  0.657000,  0.420400
  0.659000,  0.403000
  0.661000,  0.387800
  0.663000,  0.375300
  0.665000,  0.364500
  0.667000,  0.355300
  0.669000,  0.348600
  0.671000,  0.344600
  0.673000,  0.342400
  0.675000,  0.342300
  0.677000,  0.344300
  0.679000,  0.348500
  0.681000,  0.354900
  0.683000,  0.362700
  0.685000,  0.371900
  0.687000,  0.382600
  0.689000,  0.395100
  0.691000,  0.409600
  0.693000,  0.425700
  0.695000,  0.443400
  0.697000,  0.462200
  0.699000,  0.482100
  0.701000,  0.503200
  0.703000,  0.525300
  0.705000,  0.548300
  0.707000,  0.571600
  0.709000,  0.595700
  0.711000,  0.621100
  0.713000,  0.647500
  0.715000,  0.673900
  0.717000,  0.700000
  0.719000,  0.726500
  0.721000,  0.753000
  0.723000,  0.779400
  0.725000,  0.805900
  0.727000,  0.832400
  0.729000,  0.858800
  0.731000,  0.884600
  0.733000,  0.909700
  0.735000,  0.934000
  0.737000,  0.957500
  0.739000,  0.980000
  0.741000,  1.001500
  0.743000,  1.022300
  0.745000,  1.042000
  0.747000,  1.060400
  0.749000,  1.077600
  0.751000,  1.093500
  0.753000,  1.108200
  0.755000,  1.121500
  0.757000,  1.133100
  0.759000,  1.143300
  0.761000,  1.152200
  0.763000,  1.159400
  0.765000,  1.165200
  0.767000,  1.169500
  0.769000,  1.172200
  0.771000,  1.173100
  0.773000,  1.172700
  0.775000,  1.170900
  0.777000,  1.167500
  0.779000,  1.162700
  0.781000,  1.156700
  0.783000,  1.149300
  0.785000,  1.140700
  0.787000,  1.130800
  0.789000,  1.119600
  0.791000,  1.107700
  0.793000,  1.094800
  0.795000,  1.081000
  0.797000,  1.066500
  0.799000,  1.051100
  0.801000,  1.034900
  0.803000,  1.018200
  0.805000,  1.001000
  0.807000,  0.983400
  0.809000,  0.965800
  0.811000,  0.947900
  0.813000,  0.929700
  0.815000,  0.911400
  0.817000,  0.893100
  0.819000,  0.875000
  0.821000,  0.857100
  0.823000,  0.839500
  0.825000,  0.822000
  0.827000,  0.804500
  0.829000,  0.787700
  0.831000,  0.771300
  0.833000,  0.755300
  0.835000,  0.740100
  0.837000,  0.725700
  0.839000,  0.711800
  0.841000,  0.698700
  0.843000,  0.686100
  0.845000,  0.674400
  0.847000,  0.663500
  0.849000,  0.653400
  0.851000,  0.644200
  0.853000,  0.635900
  0.855000,  0.628400
  0.857000,  0.621900
  0.859000,  0.616200
  0.861000,  0.611200
  0.863000,  0.607100
  0.865000,  0.604100
  0.867000,  0.601800
  0.869000,  0.600200
  0.871000,  0.599400
  0.873000,  0.599500
  0.875000,  0.600400
  0.877000,  0.602100
  0.879000,  0.604200
  0.881000,  0.607100
  0.883000,  0.610400
  0.885000,  0.614400
  0.887000,  0.619000
  0.889000,  0.623900
  0.891000,  0.629400
  0.893000,  0.635500
  0.895000,  0.641800
  0.897000,  0.648200
  0.899000,  0.654900
  0.901000,  0.661600
  0.903000,  0.668700
  0.905000,  0.675800
  0.907000,  0.683000
  0.909000,  0.690200
  0.911000,  0.697500
  0.913000,  0.704700
  0.915000,  0.711700
  0.917000,  0.718500
  0.919000,  0.725300
  0.921000,  0.731900
  0.923000,  0.738100
  0.925000,  0.744000
  0.927000,  0.749600
  0.929000,  0.754800
  0.931000,  0.759800
  0.933000,  0.764200
  0.935000,  0.768200
  0.937000,  0.771700
  0.939000,  0.774800
  0.941000,  0.777400
  0.943000,  0.779500
  0.945000,  0.780900
  0.947000,  0.781700
  0.949000,  0.781900
  0.951000,  0.781700
  0.953000,  0.781000
  0.955000,  0.779800
  0.957000,  0.777900
  0.959000,  0.775500
  0.961000,  0.772500
  0.963000,  0.769100
  0.965000,  0.765000
  0.967000,  0.760500
  0.969000,  0.755500
  0.971000,  0.750000
  0.973000,  0.743900
  0.975000,  0.737200
  0.977000,  0.730200
  0.979000,  0.722800
  0.981000,  0.714900
  0.983000,  0.706500
  0.985000,  0.697800
  0.987000,  0.688600
  0.989000,  0.679100
  0.991000,  0.669400
  0.993000,  0.659500
  0.995000,  0.649300
  0.997000,  0.638700
  0.999000,  0.627900
  1.001000,  0.616800
  1.003000,  0.605600
  1.005000,  0.594300
  1.007000,  0.583000
  1.009000,  0.571500
  1.011000,  0.559900
  1.013000,  0.548100
  1.015000,  0.536400
  1.017000,  0.524700
  1.019000,  0.513100
  1.021000,  0.501500
  1.023000,  0.490000
  1.025000,  0.478400
  1.027000,  0.466800
  1.029000,  0.455100
  1.031000,  0.443700
  1.033000,  0.432600
  1.035000,  0.421600
  1.037000,  0.410700
  1.039000,  0.400000
  1.041000,  0.389400
  1.043000,  0.379000
  1.045000,  0.368900
  1.047000,  0.359000
  1.049000,  0.349300
  1.051000,  0.339800
  1.053000,  0.330600
  1.055000,  0.321700
  1.057000,  0.313100
  1.059000,  0.304700
  1.061000,  0.296700
  1.063000,  0.288900
  1.065000,  0.281300
  1.067000,  0.273900
  1.069000,  0.266900
  1.071000,  0.260100
  1.073000,  0.253600
  1.075000,  0.247400
  1.077000,  0.241600
  1.079000,  0.236100
  1.081000,  0.230800
  1.083000,  0.225900
  1.085000,  0.221200
  1.087000,  0.216900
  1.089000,  0.212800
  1.091000,  0.209000
  1.093000,  0.205500
  1.095000,  0.202200
  1.097000,  0.199300
  1.099000,  0.196700
  1.101000,  0.194500
  1.103000,  0.192500
  1.105000,  0.190800
  1.107000,  0.189300
  1.109000,  0.188000
  1.111000,  0.187000
  1.113000,  0.186300
  1.115000,  0.185900
  1.117000,  0.185600
  1.119000,  0.185500
  1.121000,  0.185700
  1.123000,  0.186100
  1.125000,  0.186800
  1.127000,  0.187600
  1.129000,  0.188500
  1.131000,  0.189600
  1.133000,  0.190800
  1.135000,  0.192200
  1.137000,  0.193700
  1.139000,  0.195400
  1.141000,  0.197100
  1.143000,  0.198900
  1.145000,  0.200700
  1.147000,  0.202600
  1.149000,  0.204500
  1.151000,  0.206400
  1.153000,  0.208300
  1.155000,  0.210300
  1.157000,  0.212300
  1.159000,  0.214200
  1.161000,  0.215900
  1.163000,  0.217600
  1.165000,  0.219200
  1.167000,  0.220700
  1.169000,  0.222000
  1.171000,  0.223200
  1.173000,  0.224400
  1.175000,  0.225300
  1.177000,  0.226100
  1.179000,  0.226700
  1.181000,  0.227100
  1.183000,  0.227400
  1.185000,  0.227500
  1.187000,  0.227300
  1.189000,  0.226700
  1.191000,  0.226000
  1.193000,  0.225200
  1.195000,  0.224100
  1.197000,  0.222800
  1.199000,  0.221000
  1.201000,  0.219100
  1.203000,  0.216900
  1.205000,  0.214300
  1.207000,  0.211400
  1.209000,  0.208100
  1.211000,  0.204800
  1.213000,  0.201200
  1.215000,  0.197200
  1.217000,  0.193000
  1.219000,  0.188600
  1.221000,  0.184000
  1.223000,  0.179000
  1.225000,  0.173800
  1.227000,  0.168500
  1.229000,  0.162900
  1.231000,  0.157200
  1.233000,  0.151400
  1.235000,  0.145200
  1.237000,  0.138800
  1.239000,  0.132300
  1.241000,  0.125600
  1.243000,  0.118700
  1.245000,  0.111600
  1.247000,  0.104400
  1.249000,  0.097100
  1.251000,  0.089900
  1.253000,  0.082700
  1.255000,  0.075600
  1.257000,  0.068300
  1.259000,  0.060900
  1.261000,  0.053400
  1.263000,  0.045900
  1.265000,  0.038700
  1.267000,  0.031500
  1.269000,  0.024200
  1.271000,  0.017000
  1.273000,  0.010000
  1.275000,  0.003200
  1.277000, -0.003500
  1.279000, -0.010100
  1.281000, -0.016700
  1.283000, -0.022900
  1.285000, -0.029000
  1.287000, -0.034900
  1.289000, -0.040700
  1.291000, -0.046400
  1.293000, -0.051900
  1.295000, -0.057200
  1.297000, -0.062200
  1.299000, -0.066900
  1.301000, -0.071400
  1.303000, -0.075800
  1.305000, -0.079800
  1.307000, -0.083500
  1.309000, -0.087100
  1.311000, -0.090600
  1.313000, -0.093700
  1.315000, -0.096700
  1.317000, -0.099400
  1.319000, -0.101900
  1.321000, -0.104000
  1.323000, -0.105900
  1.325000, -0.107600
  1.327000, -0.108900
  1.329000, -0.110100
  1.331000, -0.111200
  1.333000, -0.112000
  1.335000, -0.112600
  1.337000, -0.112900
  1.339000, -0.112900
  1.341000, -0.112600
  1.343000, -0.112300
  1.345000, -0.111800
  1.347000, -0.111100
  1.349000, -0.110100
  1.351000, -0.109100
  1.353000, -0.107800
  1.355000, -0.106200
  1.357000, -0.104400
  1.359000, -0.102500
  1.361000, -0.100500
  1.363000, -0.098300
  1.365000, -0.095900
  1.367000, -0.093300
  1.369000, -0.090500
  1.371000, -0.087600
  1.373000, -0.084500
  1.375000, -0.081200
  1.377000, -0.077900
  1.379000, -0.074200
  1.381000, -0.070500
  1.383000, -0.066800
  1.385000, -0.063200
  1.387000, -0.059500
  1.389000, -0.055800
  1.391000, -0.052100
  1.393000, -0.048600
  1.395000, -0.045200
  1.397000, -0.042000
  1.399000, -0.039200
