# z (nm)   (kJ/mol)
  0.441000, 22.318300
  0.443000, 22.029000
  0.445000, 21.742300
  0.447000, 21.462900
  0.449000, 21.173900
  0.451000, 20.890000
  0.453000, 20.592400
  0.455000, 20.275300
  0.457000, 19.966100
  0.459000, 19.648600
  0.461000, 19.323500
  0.463000, 19.002400
  0.465000, 18.682000
  0.467000, 18.358100
  0.469000, 18.027700
  0.471000, 17.692100
  0.473000, 17.356300
  0.475000, 17.018100
  0.477000, 16.681200
  0.479000, 16.341800
  0.481000, 15.996600
  0.483000, 15.649600
  0.485000, 15.304600
  0.487000, 14.961300
  0.489000, 14.619400
  0.491000, 14.275100
  0.493000, 13.927100
  0.495000, 13.581800
  0.497000, 13.237800
  0.499000, 12.895700
  0.501000, 12.559900
  0.503000, 12.226600
  0.505000, 11.894700
  0.507000, 11.565300
  0.509000, 11.234800
  0.511000, 10.908000
  0.513000, 10.587200
  0.515000, 10.266400
  0.517000,  9.950700
  0.519000,  9.638100
  0.521000,  9.325900
  0.523000,  9.017300
  0.525000,  8.714300
  0.527000,  8.420500
  0.529000,  8.129700
  0.531000,  7.842100
  0.533000,  7.559400
  0.535000,  7.279300
  0.537000,  7.002500
  0.539000,  6.735300
  0.541000,  6.473800
  0.543000,  6.213700
  0.545000,  5.958100
  0.547000,  5.709500
  0.549000,  5.467300
  0.551000,  5.227600
  0.553000,  4.993600
  0.555000,  4.766200
  0.557000,  4.544200
  0.559000,  4.325600
  0.561000,  4.115200
  0.563000,  3.912200
  0.565000,  3.711500
  0.567000,  3.516600
  0.569000,  3.328400
  0.571000,  3.146000
  0.573000,  2.968200
  0.575000,  2.796200
  0.577000,  2.629700
  0.579000,  2.468300
  0.581000,  2.313000
  0.583000,  2.162100
  0.585000,  2.016300
  0.587000,  1.876600
  0.589000,  1.743600
  0.591000,  1.616400
  0.593000,  1.494400
  0.595000,  1.377900
  0.597000,  1.266300
  0.599000,  1.159600
  0.601000,  1.058000
  0.603000,  0.961400
  0.605000,  0.869700
  0.607000,  0.783100
  0.609000,  0.701300
  0.611000,  0.623800
  0.613000,  0.551100
  0.615000,  0.482900
  0.617000,  0.418900
  0.619000,  0.359100
  0.621000,  0.303400
  0.623000,  0.252100
  0.625000,  0.205500
  0.627000,  0.162400
  0.629000,  0.122800
  0.631000,  0.087000
  0.633000,  0.054800
  0.635000,  0.026200
  0.637000,  0.001300
  0.639000, -0.020500
  0.641000, -0.039200
  0.643000, -0.055200
  0.645000, -0.067800
  0.647000, -0.077200
  0.649000, -0.083800
  0.651000, -0.087800
  0.653000, -0.089500
  0.655000, -0.088900
  0.657000, -0.086300
  0.659000, -0.081500
  0.661000, -0.074200
  0.663000, -0.064600
  0.665000, -0.052900
  0.667000, -0.039500
  0.669000, -0.024400
  0.671000, -0.007600
  0.673000,  0.010700
  0.675000,  0.030300
  0.677000,  0.050900
  0.679000,  0.072800
  0.681000,  0.095800
  0.683000,  0.119900
  0.685000,  0.145000
  0.687000,  0.170500
  0.689000,  0.196400
  0.691000,  0.222900
  0.693000,  0.249900
  0.695000,  0.277000
  0.697000,  0.304000
  0.699000,  0.331200
  0.701000,  0.358300
  0.703000,  0.385300
  0.705000,  0.412100
  0.707000,  0.438300
  0.709000,  0.463600
  0.711000,  0.488400
  0.713000,  0.512400
  0.715000,  0.535500
  0.717000,  0.557500
  0.719000,  0.578300
  0.721000,  0.597900
  0.723000,  0.616300
  0.725000,  0.633400
  0.727000,  0.649000
  0.729000,  0.663000
  0.731000,  0.675500
  0.733000,  0.686400
  0.735000,  0.695700
  0.737000,  0.703100
  0.739000,  0.708800
  0.741000,  0.712800
  0.743000,  0.714900
  0.745000,  0.715100
  0.747000,  0.713700
  0.749000,  0.710700
  0.751000,  0.705800
  0.753000,  0.699100
  0.755000,  0.690800
  0.757000,  0.680900
  0.759000,  0.669500
  0.761000,  0.656800
  0.763000,  0.642500
  0.765000,  0.627100
  0.767000,  0.610000
  0.769000,  0.591600
  0.771000,  0.572200
  0.773000,  0.551800
  0.775000,  0.530300
  0.777000,  0.508100
  0.779000,  0.485200
  0.781000,  0.461600
  0.783000,  0.437600
  0.785000,  0.413200
  0.787000,  0.388500
  0.789000,  0.363600
  0.791000,  0.338300
  0.793000,  0.312900
  0.795000,  0.287900
  0.797000,  0.263300
  0.799000,  0.239100
  0.801000,  0.215300
  0.803000,  0.192200
  0.805000,  0.169600
  0.807000,  0.147700
  0.809000,  0.126600
  0.811000,  0.106700
  0.813000,  0.087600
  0.815000,  0.069400
  0.817000,  0.052400
  0.819000,  0.036500
  0.821000,  0.021900
  0.823000,  0.008400
  0.825000, -0.003800
  0.827000, -0.014800
  0.829000, -0.024300
  0.831000, -0.032400
  0.833000, -0.039100
  0.835000, -0.044500
  0.837000, -0.048600
  0.839000, -0.051200
  0.841000, -0.052600
  0.843000, -0.052700
  0.845000, -0.051400
  0.847000, -0.048900
  0.849000, -0.045000
  0.851000, -0.039800
  0.853000, -0.033200
  0.855000, -0.025600
  0.857000, -0.016900
  0.859000, -0.007000
  0.861000,  0.003500
  0.863000,  0.015100
  0.865000,  0.027800
  0.867000,  0.041000
  0.869000,  0.054900
  0.871000,  0.069500
  0.873000,  0.084700
  0.875000,  0.100200
  0.877000,  0.116000
  0.879000,  0.132600
  0.881000,  0.149500
  0.883000,  0.166600
  0.885000,  0.183800
  0.887000,  0.201100
  0.889000,  0.218200
  0.891000,  0.235300
  0.893000,  0.252500
  0.895000,  0.269500
  0.897000,  0.286100
  0.899000,  0.302300
  0.901000,  0.318100
  0.903000,  0.333600
  0.905000,  0.348600
  0.907000,  0.363000
  0.909000,  0.377000
  0.911000,  0.390400
  0.913000,  0.403200
  0.915000,  0.415300
  0.917000,  0.426600
  0.919000,  0.437200
  0.921000,  0.447000
  0.923000,  0.456100
  0.925000,  0.464400
  0.927000,  0.472000
  0.929000,  0.478700
  0.931000,  0.484500
  0.933000,  0.489600
  0.935000,  0.493900
  0.937000,  0.497400
  0.939000,  0.500100
  0.941000,  0.502000
  0.943000,  0.502900
  0.945000,  0.503200
  0.947000,  0.502800
  0.949000,  0.501800
  0.951000,  0.500100
  0.953000,  0.497700
  0.955000,  0.494700
  0.957000,  0.491200
  0.959000,  0.487000
  0.961000,  0.482400
  0.963000,  0.477200
  0.965000,  0.471700
  0.967000,  0.465800
  0.969000,  0.459300
  0.971000,  0.452600
  0.973000,  0.445500
  0.975000,  0.437900
  0.977000,  0.430100
  0.979000,  0.422000
  0.981000,  0.413700
  0.983000,  0.405200
  0.985000,  0.396600
  0.987000,  0.387900
  0.989000,  0.379100
  0.991000,  0.370300
  0.993000,  0.361200
  0.995000,  0.352000
  0.997000,  0.342900
  0.999000,  0.333900
  1.001000,  0.324900
  1.003000,  0.316000
  1.005000,  0.307300
  1.007000,  0.298700
  1.009000,  0.290100
  1.011000,  0.281500
  1.013000,  0.273200
  1.015000,  0.264800
  1.017000,  0.256700
  1.019000,  0.248800
  1.021000,  0.240900
  1.023000,  0.233200
  1.025000,  0.225900
  1.027000,  0.218700
  1.029000,  0.211500
  1.031000,  0.204500
  1.033000,  0.197900
  1.035000,  0.191400
  1.037000,  0.184900
  1.039000,  0.178900
  1.041000,  0.173000
  1.043000,  0.167400
  1.045000,  0.161800
  1.047000,  0.156500
  1.049000,  0.151400
  1.051000,  0.146600
  1.053000,  0.141800
  1.055000,  0.137200
  1.057000,  0.132900
  1.059000,  0.128900
  1.061000,  0.125000
  1.063000,  0.121200
  1.065000,  0.117800
  1.067000,  0.114500
  1.069000,  0.111500
  1.071000,  0.108400
  1.073000,  0.105700
  1.075000,  0.103000
  1.077000,  0.100500
  1.079000,  0.098300
  1.081000,  0.096200
  1.083000,  0.094300
  1.085000,  0.092400
  1.087000,  0.090500
  1.089000,  0.088800
  1.091000,  0.087200
  1.093000,  0.085700
  1.095000,  0.084400
  1.097000,  0.083300
  1.099000,  0.082200
  1.101000,  0.081000
  1.103000,  0.080000
  1.105000,  0.079200
  1.107000,  0.078300
  1.109000,  0.077500
  1.111000,  0.076800
  1.113000,  0.076100
  1.115000,  0.075600
  1.117000,  0.075100
  1.119000,  0.074600
  1.121000,  0.074100
  1.123000,  0.073600
  1.125000,  0.073000
  1.127000,  0.072300
  1.129000,  0.071700
  1.131000,  0.071100
  1.133000,  0.070600
  1.135000,  0.070000
  1.137000,  0.069200
  1.139000,  0.068600
  1.141000,  0.067900
  1.143000,  0.067200
  1.145000,  0.066500
  1.147000,  0.065700
  1.149000,  0.064800
  1.151000,  0.064000
  1.153000,  0.063300
  1.155000,  0.062600
  1.157000,  0.061600
  1.159000,  0.060500
  1.161000,  0.059400
  1.163000,  0.058300
  1.165000,  0.057200
  1.167000,  0.056000
  1.169000,  0.054800
  1.171000,  0.053500
  1.173000,  0.052200
  1.175000,  0.051000
  1.177000,  0.049700
  1.179000,  0.048200
  1.181000,  0.046900
  1.183000,  0.045600
  1.185000,  0.044100
  1.187000,  0.042500
  1.189000,  0.041100
  1.191000,  0.039700
  1.193000,  0.038300
  1.195000,  0.036700
  1.197000,  0.035000
  1.199000,  0.033500
  1.201000,  0.032000
  1.203000,  0.030500
  1.205000,  0.029000
  1.207000,  0.027500
  1.209000,  0.026100
  1.211000,  0.024500
  1.213000,  0.022900
  1.215000,  0.021500
  1.217000,  0.020100
  1.219000,  0.018600
  1.221000,  0.017100
  1.223000,  0.015600
  1.225000,  0.014200
  1.227000,  0.012800
  1.229000,  0.011400
  1.231000,  0.009900
  1.233000,  0.008500
  1.235000,  0.007100
  1.237000,  0.005900
  1.239000,  0.004800
  1.241000,  0.003600
  1.243000,  0.002500
  1.245000,  0.001300
  1.247000,  0.000200
  1.249000, -0.000900
  1.251000, -0.001900
  1.253000, -0.002800
  1.255000, -0.003700
  1.257000, -0.004700
  1.259000, -0.005600
  1.261000, -0.006300
  1.263000, -0.007000
  1.265000, -0.007700
  1.267000, -0.008300
  1.269000, -0.009000
  1.271000, -0.009700
  1.273000, -0.010200
  1.275000, -0.010700
  1.277000, -0.011200
  1.279000, -0.011700
  1.281000, -0.012100
  1.283000, -0.012400
  1.285000, -0.012800
  1.287000, -0.013200
  1.289000, -0.013500
  1.291000, -0.013800
  1.293000, -0.014000
  1.295000, -0.014200
  1.297000, -0.014500
  1.299000, -0.014800
  1.301000, -0.015000
  1.303000, -0.015300
  1.305000, -0.015400
  1.307000, -0.015500
  1.309000, -0.015600
  1.311000, -0.015600
  1.313000, -0.015700
  1.315000, -0.015800
  1.317000, -0.015900
  1.319000, -0.016200
  1.321000, -0.016400
  1.323000, -0.016300
  1.325000, -0.016300
  1.327000, -0.016300
  1.329000, -0.016200
  1.331000, -0.016200
  1.333000, -0.016100
  1.335000, -0.015900
  1.337000, -0.015500
  1.339000, -0.015100
  1.341000, -0.014700
  1.343000, -0.014300
  1.345000, -0.013800
  1.347000, -0.013200
  1.349000, -0.012600
  1.351000, -0.011700
  1.353000, -0.010800
  1.355000, -0.009800
  1.357000, -0.008600
  1.359000, -0.007400
  1.361000, -0.005900
  1.363000, -0.004300
  1.365000, -0.002600
  1.367000, -0.000600
  1.369000,  0.001300
  1.371000,  0.003400
  1.373000,  0.005700
  1.375000,  0.008000
  1.377000,  0.010500
  1.379000,  0.013000
  1.381000,  0.015800
  1.383000,  0.018800
  1.385000,  0.021700
  1.387000,  0.024700
  1.389000,  0.027500
  1.391000,  0.030400
  1.393000,  0.033300
  1.395000,  0.036200
  1.397000,  0.038800
  1.399000,  0.040900
