# z (nm)   (kJ/mol)
  0.409000, 12.999200
  0.411000, 12.480100
  0.415000, 11.311400
  0.417000, 10.756200
  0.419000, 10.183000
  0.421000,  9.595200
  0.423000,  9.003800
  0.425000,  8.411100
  0.427000,  7.820600
  0.429000,  7.236300
  0.431000,  6.648300
  0.433000,  6.065100
  0.435000,  5.496700
  0.437000,  4.929400
  0.439000,  4.365700
  0.441000,  3.814900
  0.443000,  3.271500
  0.445000,  2.736000
  0.447000,  2.213200
  0.449000,  1.702700
  0.451000,  1.202500
  0.453000,  0.715900
  0.455000,  0.246700
  0.457000, -0.207800
  0.459000, -0.649500
  0.461000, -1.075400
  0.463000, -1.485200
  0.465000, -1.883500
  0.467000, -2.266800
  0.469000, -2.633800
  0.471000, -2.985400
  0.473000, -3.320600
  0.475000, -3.641100
  0.477000, -3.948300
  0.479000, -4.241600
  0.481000, -4.519300
  0.483000, -4.782600
  0.485000, -5.032000
  0.487000, -5.266900
  0.489000, -5.487700
  0.491000, -5.696700
  0.493000, -5.893500
  0.495000, -6.077500
  0.497000, -6.249100
  0.499000, -6.408500
  0.501000, -6.555900
  0.503000, -6.691000
  0.505000, -6.814700
  0.507000, -6.927400
  0.509000, -7.029200
  0.511000, -7.121700
  0.513000, -7.204300
  0.515000, -7.276800
  0.517000, -7.338500
  0.519000, -7.390300
  0.521000, -7.434000
  0.523000, -7.468200
  0.525000, -7.493300
  0.527000, -7.510100
  0.529000, -7.519100
  0.531000, -7.522200
  0.533000, -7.518200
  0.535000, -7.507100
  0.537000, -7.490800
  0.539000, -7.468900
  0.541000, -7.442100
  0.543000, -7.411400
  0.545000, -7.375900
  0.547000, -7.335900
  0.549000, -7.292400
  0.551000, -7.244900
  0.553000, -7.195000
  0.555000, -7.143600
  0.557000, -7.089900
  0.559000, -7.034400
  0.561000, -6.976700
  0.563000, -6.916400
  0.565000, -6.855000
  0.567000, -6.792400
  0.569000, -6.727900
  0.571000, -6.662100
  0.573000, -6.595500
  0.575000, -6.528300
  0.577000, -6.460500
  0.579000, -6.391800
  0.581000, -6.322600
  0.583000, -6.252400
  0.585000, -6.181100
  0.587000, -6.109800
  0.589000, -6.038000
  0.591000, -5.965600
  0.593000, -5.892500
  0.595000, -5.819300
  0.597000, -5.746200
  0.599000, -5.672900
  0.601000, -5.599600
  0.603000, -5.526400
  0.605000, -5.452600
  0.607000, -5.378800
  0.609000, -5.305100
  0.611000, -5.231600
  0.613000, -5.158600
  0.615000, -5.086100
  0.617000, -5.014500
  0.619000, -4.943600
  0.621000, -4.872600
  0.623000, -4.801600
  0.625000, -4.731700
  0.627000, -4.663000
  0.629000, -4.595300
  0.631000, -4.528900
  0.633000, -4.463900
  0.635000, -4.400200
  0.637000, -4.338000
  0.639000, -4.277600
  0.641000, -4.218800
  0.643000, -4.161300
  0.645000, -4.105800
  0.647000, -4.052400
  0.649000, -4.001000
  0.651000, -3.951400
  0.653000, -3.903500
  0.655000, -3.857300
  0.657000, -3.813900
  0.659000, -3.772900
  0.661000, -3.734000
  0.663000, -3.697000
  0.665000, -3.662100
  0.667000, -3.629900
  0.669000, -3.600200
  0.671000, -3.572000
  0.673000, -3.545700
  0.675000, -3.521300
  0.677000, -3.499300
  0.679000, -3.479400
  0.681000, -3.461100
  0.683000, -3.444600
  0.685000, -3.429900
  0.687000, -3.417000
  0.689000, -3.405600
  0.691000, -3.395700
  0.693000, -3.387200
  0.695000, -3.380100
  0.697000, -3.374400
  0.699000, -3.369900
  0.701000, -3.366600
  0.703000, -3.364100
  0.705000, -3.362100
  0.707000, -3.361200
  0.709000, -3.360900
  0.711000, -3.360900
  0.713000, -3.361600
  0.715000, -3.362700
  0.717000, -3.364300
  0.719000, -3.366100
  0.721000, -3.367900
  0.723000, -3.369800
  0.725000, -3.372100
  0.727000, -3.374200
  0.729000, -3.376200
  0.731000, -3.378100
  0.733000, -3.379800
  0.735000, -3.381300
  0.737000, -3.382500
  0.739000, -3.383400
  0.741000, -3.383900
  0.743000, -3.384000
  0.745000, -3.383600
  0.747000, -3.382500
  0.749000, -3.380800
  0.751000, -3.378600
  0.753000, -3.375900
  0.755000, -3.372500
  0.757000, -3.368500
  0.759000, -3.363700
  0.761000, -3.358200
  0.763000, -3.352300
  0.765000, -3.345500
  0.767000, -3.337800
  0.769000, -3.329400
  0.771000, -3.320400
  0.773000, -3.310500
  0.775000, -3.299700
  0.777000, -3.288100
  0.779000, -3.275700
  0.781000, -3.262700
  0.783000, -3.248900
  0.785000, -3.234100
  0.787000, -3.218300
  0.789000, -3.201900
  0.791000, -3.184600
  0.793000, -3.166400
  0.795000, -3.147300
  0.797000, -3.127100
  0.799000, -3.106100
  0.801000, -3.084400
  0.803000, -3.061900
  0.805000, -3.038600
  0.807000, -3.014400
  0.809000, -2.989400
  0.811000, -2.963700
  0.813000, -2.937200
  0.815000, -2.910200
  0.817000, -2.882500
  0.819000, -2.854000
  0.821000, -2.824900
  0.823000, -2.795100
  0.825000, -2.765100
  0.827000, -2.734300
  0.829000, -2.703000
  0.831000, -2.671300
  0.833000, -2.639300
  0.835000, -2.607100
  0.837000, -2.574500
  0.839000, -2.541500
  0.841000, -2.508300
  0.843000, -2.474900
  0.845000, -2.441400
  0.847000, -2.407800
  0.849000, -2.374200
  0.851000, -2.340600
  0.853000, -2.307100
  0.855000, -2.274100
  0.857000, -2.241300
  0.859000, -2.208800
  0.861000, -2.176500
  0.863000, -2.144500
  0.865000, -2.113100
  0.867000, -2.082300
  0.869000, -2.052000
  0.871000, -2.022200
  0.873000, -1.992900
  0.875000, -1.964300
  0.877000, -1.936400
  0.879000, -1.909100
  0.881000, -1.882600
  0.883000, -1.856900
  0.885000, -1.831700
  0.887000, -1.807500
  0.889000, -1.784300
  0.891000, -1.761900
  0.893000, -1.740400
  0.895000, -1.719500
  0.897000, -1.699400
  0.899000, -1.680300
  0.901000, -1.661900
  0.903000, -1.644300
  0.905000, -1.627600
  0.907000, -1.611700
  0.909000, -1.596600
  0.911000, -1.582200
  0.913000, -1.568700
  0.915000, -1.555900
  0.917000, -1.544000
  0.919000, -1.532600
  0.921000, -1.522000
  0.923000, -1.511800
  0.925000, -1.502200
  0.927000, -1.493200
  0.929000, -1.484600
  0.931000, -1.476600
  0.933000, -1.469000
  0.935000, -1.461800
  0.937000, -1.454900
  0.939000, -1.448500
  0.941000, -1.442300
  0.943000, -1.436500
  0.945000, -1.430900
  0.947000, -1.425500
  0.949000, -1.420200
  0.951000, -1.414900
  0.953000, -1.409600
  0.955000, -1.404300
  0.957000, -1.399100
  0.959000, -1.393900
  0.961000, -1.388600
  0.963000, -1.383200
  0.965000, -1.377800
  0.967000, -1.372300
  0.969000, -1.366700
  0.971000, -1.360700
  0.973000, -1.354600
  0.975000, -1.348200
  0.977000, -1.341700
  0.979000, -1.335000
  0.981000, -1.327900
  0.983000, -1.320600
  0.985000, -1.313200
  0.987000, -1.305300
  0.989000, -1.297300
  0.991000, -1.288900
  0.993000, -1.280100
  0.995000, -1.271200
  0.997000, -1.262100
  0.999000, -1.252500
  1.001000, -1.242700
  1.003000, -1.232700
  1.005000, -1.222400
  1.007000, -1.211800
  1.009000, -1.201000
  1.011000, -1.190000
  1.013000, -1.178700
  1.015000, -1.167400
  1.017000, -1.156000
  1.019000, -1.144400
  1.021000, -1.132500
  1.023000, -1.120600
  1.025000, -1.108600
  1.027000, -1.096400
  1.029000, -1.083900
  1.031000, -1.071500
  1.033000, -1.059100
  1.035000, -1.046500
  1.037000, -1.033900
  1.039000, -1.021100
  1.041000, -1.008500
  1.043000, -0.995700
  1.045000, -0.982900
  1.047000, -0.970000
  1.049000, -0.957300
  1.051000, -0.944600
  1.053000, -0.931900
  1.055000, -0.919400
  1.057000, -0.906900
  1.059000, -0.894400
  1.061000, -0.882000
  1.063000, -0.869600
  1.065000, -0.857400
  1.067000, -0.845200
  1.069000, -0.833200
  1.071000, -0.821400
  1.073000, -0.809700
  1.075000, -0.798100
  1.077000, -0.786600
  1.079000, -0.775300
  1.081000, -0.764100
  1.083000, -0.753000
  1.085000, -0.742000
  1.087000, -0.731100
  1.089000, -0.720400
  1.091000, -0.709800
  1.093000, -0.699500
  1.095000, -0.689300
  1.097000, -0.679300
  1.099000, -0.669500
  1.101000, -0.659800
  1.103000, -0.650200
  1.105000, -0.640900
  1.107000, -0.631800
  1.109000, -0.622800
  1.111000, -0.613800
  1.113000, -0.605000
  1.115000, -0.596400
  1.117000, -0.588000
  1.119000, -0.579700
  1.121000, -0.571500
  1.123000, -0.563500
  1.125000, -0.555500
  1.127000, -0.547700
  1.129000, -0.540000
  1.131000, -0.532300
  1.133000, -0.524800
  1.135000, -0.517300
  1.137000, -0.509900
  1.139000, -0.502500
  1.141000, -0.495300
  1.143000, -0.488200
  1.145000, -0.481100
  1.147000, -0.474100
  1.149000, -0.467100
  1.151000, -0.460000
  1.153000, -0.453000
  1.155000, -0.446100
  1.157000, -0.439200
  1.159000, -0.432200
  1.161000, -0.425400
  1.163000, -0.418700
  1.165000, -0.411900
  1.167000, -0.405000
  1.169000, -0.398200
  1.171000, -0.391200
  1.173000, -0.384100
  1.175000, -0.377100
  1.177000, -0.369900
  1.179000, -0.362800
  1.181000, -0.355700
  1.183000, -0.348500
  1.185000, -0.341400
  1.187000, -0.334300
  1.189000, -0.327100
  1.191000, -0.319800
  1.193000, -0.312500
  1.195000, -0.305200
  1.197000, -0.298000
  1.199000, -0.290800
  1.201000, -0.283500
  1.203000, -0.276100
  1.205000, -0.268700
  1.207000, -0.261400
  1.209000, -0.254100
  1.211000, -0.246800
  1.213000, -0.239500
  1.215000, -0.232300
  1.217000, -0.225100
  1.219000, -0.217800
  1.221000, -0.210500
  1.223000, -0.203300
  1.225000, -0.196100
  1.227000, -0.189100
  1.229000, -0.182100
  1.231000, -0.175000
  1.233000, -0.168000
  1.235000, -0.161200
  1.237000, -0.154300
  1.239000, -0.147600
  1.241000, -0.140800
  1.243000, -0.134100
  1.245000, -0.127400
  1.247000, -0.120800
  1.249000, -0.114300
  1.251000, -0.107800
  1.253000, -0.101400
  1.255000, -0.095100
  1.257000, -0.088900
  1.259000, -0.082600
  1.261000, -0.076500
  1.263000, -0.070400
  1.265000, -0.064400
  1.267000, -0.058500
  1.269000, -0.052700
  1.271000, -0.046900
  1.273000, -0.041200
  1.275000, -0.035500
  1.277000, -0.029900
  1.279000, -0.024500
  1.281000, -0.019200
  1.283000, -0.013900
  1.285000, -0.008800
  1.287000, -0.003700
  1.289000,  0.001200
  1.291000,  0.006100
  1.293000,  0.010800
  1.295000,  0.015400
  1.297000,  0.019900
  1.299000,  0.024200
  1.301000,  0.028500
  1.303000,  0.032600
  1.305000,  0.036600
  1.307000,  0.040400
  1.309000,  0.044200
  1.311000,  0.048100
  1.313000,  0.051800
  1.315000,  0.055600
  1.317000,  0.059200
  1.319000,  0.062600
  1.321000,  0.065900
  1.323000,  0.069300
  1.325000,  0.072500
  1.327000,  0.075800
  1.329000,  0.079100
  1.331000,  0.082300
  1.333000,  0.085500
  1.335000,  0.088700
  1.337000,  0.091900
  1.339000,  0.095200
  1.341000,  0.098500
  1.343000,  0.101900
  1.345000,  0.105300
  1.347000,  0.108800
  1.349000,  0.112400
  1.351000,  0.116200
  1.353000,  0.120100
  1.355000,  0.124100
  1.357000,  0.128300
  1.359000,  0.132600
  1.361000,  0.137100
  1.363000,  0.141600
  1.365000,  0.146300
  1.367000,  0.151100
  1.369000,  0.156100
  1.371000,  0.161200
  1.373000,  0.166500
  1.375000,  0.171900
  1.377000,  0.177300
  1.379000,  0.182700
  1.381000,  0.188400
  1.383000,  0.194000
  1.385000,  0.199600
  1.387000,  0.205200
  1.389000,  0.210700
  1.391000,  0.216200
  1.393000,  0.221700
  1.395000,  0.227000
  1.397000,  0.232000
  1.399000,  0.236700
