# z (nm)   (kJ/mol)
  0.351000, 14.924800
  0.353000, 14.539000
  0.355000, 14.091500
  0.357000, 13.572200
  0.359000, 13.112900
  0.361000, 12.653100
  0.363000, 12.149500
  0.365000, 11.660000
  0.367000, 11.194900
  0.369000, 10.725700
  0.371000, 10.261300
  0.373000,  9.814000
  0.375000,  9.364000
  0.377000,  8.917900
  0.379000,  8.481500
  0.381000,  8.048700
  0.383000,  7.631500
  0.385000,  7.222900
  0.387000,  6.821900
  0.389000,  6.436900
  0.391000,  6.068800
  0.393000,  5.718200
  0.395000,  5.379500
  0.397000,  5.053800
  0.399000,  4.744100
  0.401000,  4.449400
  0.403000,  4.170800
  0.405000,  3.907800
  0.407000,  3.658900
  0.409000,  3.423300
  0.411000,  3.202200
  0.413000,  2.995200
  0.415000,  2.802600
  0.417000,  2.623400
  0.419000,  2.455500
  0.421000,  2.300200
  0.423000,  2.156600
  0.425000,  2.024600
  0.427000,  1.904500
  0.429000,  1.796000
  0.431000,  1.697900
  0.433000,  1.608900
  0.435000,  1.529500
  0.437000,  1.459700
  0.439000,  1.398400
  0.441000,  1.345400
  0.443000,  1.300200
  0.445000,  1.261800
  0.447000,  1.230000
  0.449000,  1.203800
  0.451000,  1.183200
  0.453000,  1.167700
  0.455000,  1.155900
  0.457000,  1.148400
  0.459000,  1.146300
  0.461000,  1.146700
  0.463000,  1.149400
  0.465000,  1.154600
  0.467000,  1.160900
  0.469000,  1.169100
  0.471000,  1.176400
  0.473000,  1.183200
  0.475000,  1.191300
  0.477000,  1.198700
  0.479000,  1.204000
  0.481000,  1.208100
  0.483000,  1.210300
  0.485000,  1.210300
  0.487000,  1.208900
  0.489000,  1.204500
  0.491000,  1.197300
  0.493000,  1.187500
  0.495000,  1.174600
  0.497000,  1.158700
  0.499000,  1.139800
  0.501000,  1.117800
  0.503000,  1.092900
  0.505000,  1.065200
  0.507000,  1.034800
  0.509000,  1.001500
  0.511000,  0.965700
  0.513000,  0.927900
  0.515000,  0.887900
  0.517000,  0.845700
  0.519000,  0.801800
  0.521000,  0.756400
  0.523000,  0.709700
  0.525000,  0.662000
  0.527000,  0.613700
  0.529000,  0.564900
  0.531000,  0.515600
  0.533000,  0.466100
  0.535000,  0.416800
  0.537000,  0.367900
  0.539000,  0.319600
  0.541000,  0.271800
  0.543000,  0.224600
  0.545000,  0.178800
  0.547000,  0.134400
  0.549000,  0.091600
  0.551000,  0.050200
  0.553000,  0.010600
  0.555000, -0.027200
  0.557000, -0.063200
  0.559000, -0.097400
  0.561000, -0.129300
  0.563000, -0.159000
  0.565000, -0.186500
  0.567000, -0.211800
  0.569000, -0.235000
  0.571000, -0.255900
  0.573000, -0.274500
  0.575000, -0.290800
  0.577000, -0.305000
  0.579000, -0.316900
  0.581000, -0.326600
  0.583000, -0.334000
  0.585000, -0.339400
  0.587000, -0.342800
  0.589000, -0.344500
  0.591000, -0.344400
  0.593000, -0.342700
  0.595000, -0.339200
  0.597000, -0.333800
  0.599000, -0.326800
  0.601000, -0.318600
  0.603000, -0.309200
  0.605000, -0.298500
  0.607000, -0.286500
  0.609000, -0.273400
  0.611000, -0.259400
  0.613000, -0.244600
  0.615000, -0.228700
  0.617000, -0.212000
  0.619000, -0.194800
  0.621000, -0.177000
  0.623000, -0.158700
  0.625000, -0.139900
  0.627000, -0.120600
  0.629000, -0.101100
  0.631000, -0.081200
  0.633000, -0.061100
  0.635000, -0.041100
  0.637000, -0.021200
  0.639000, -0.001200
  0.641000,  0.018600
  0.643000,  0.038200
  0.645000,  0.057600
  0.647000,  0.076800
  0.649000,  0.095700
  0.651000,  0.114100
  0.653000,  0.132300
  0.655000,  0.149900
  0.657000,  0.166800
  0.659000,  0.183200
  0.661000,  0.199000
  0.663000,  0.213900
  0.665000,  0.228200
  0.667000,  0.241600
  0.669000,  0.254300
  0.671000,  0.266000
  0.673000,  0.276900
  0.675000,  0.287000
  0.677000,  0.296100
  0.679000,  0.304400
  0.681000,  0.311800
  0.683000,  0.318100
  0.685000,  0.323600
  0.687000,  0.328200
  0.689000,  0.331700
  0.691000,  0.334200
  0.693000,  0.335700
  0.695000,  0.336200
  0.697000,  0.335800
  0.699000,  0.334400
  0.701000,  0.332100
  0.703000,  0.329000
  0.705000,  0.325000
  0.707000,  0.320100
  0.709000,  0.314500
  0.711000,  0.308100
  0.713000,  0.300700
  0.715000,  0.292700
  0.717000,  0.284300
  0.719000,  0.275000
  0.721000,  0.265000
  0.723000,  0.254600
  0.725000,  0.243900
  0.727000,  0.232800
  0.729000,  0.221400
  0.731000,  0.209600
  0.733000,  0.197300
  0.735000,  0.184800
  0.737000,  0.172200
  0.739000,  0.159500
  0.741000,  0.146900
  0.743000,  0.134200
  0.745000,  0.121600
  0.747000,  0.109000
  0.749000,  0.096700
  0.751000,  0.084500
  0.753000,  0.072600
  0.755000,  0.061100
  0.757000,  0.050000
  0.759000,  0.039200
  0.761000,  0.028800
  0.763000,  0.018800
  0.765000,  0.009300
  0.767000,  0.000500
  0.769000, -0.007900
  0.771000, -0.015700
  0.773000, -0.023000
  0.775000, -0.029700
  0.777000, -0.035800
  0.779000, -0.041400
  0.781000, -0.046500
  0.783000, -0.050900
  0.785000, -0.054600
  0.787000, -0.057900
  0.789000, -0.060600
  0.791000, -0.062800
  0.793000, -0.064400
  0.795000, -0.065500
  0.797000, -0.066200
  0.799000, -0.066400
  0.801000, -0.066200
  0.803000, -0.065400
  0.805000, -0.064300
  0.807000, -0.062800
  0.809000, -0.060900
  0.811000, -0.058700
  0.813000, -0.056200
  0.815000, -0.053500
  0.817000, -0.050500
  0.819000, -0.047300
  0.821000, -0.044000
  0.823000, -0.040400
  0.825000, -0.036800
  0.827000, -0.032900
  0.829000, -0.029000
  0.831000, -0.025000
  0.833000, -0.020800
  0.835000, -0.016700
  0.837000, -0.012500
  0.839000, -0.008300
  0.841000, -0.004000
  0.843000,  0.000100
  0.845000,  0.004200
  0.847000,  0.008200
  0.849000,  0.012200
  0.851000,  0.016200
  0.853000,  0.020100
  0.855000,  0.024000
  0.857000,  0.027800
  0.859000,  0.031400
  0.861000,  0.034900
  0.863000,  0.038300
  0.865000,  0.041600
  0.867000,  0.044900
  0.869000,  0.048000
  0.871000,  0.051000
  0.873000,  0.053900
  0.875000,  0.056600
  0.877000,  0.059200
  0.879000,  0.061700
  0.881000,  0.064100
  0.883000,  0.066300
  0.885000,  0.068400
  0.887000,  0.070500
  0.889000,  0.072400
  0.891000,  0.074100
  0.893000,  0.075700
  0.895000,  0.077200
  0.897000,  0.078600
  0.899000,  0.079800
  0.901000,  0.080800
  0.903000,  0.081800
  0.905000,  0.082700
  0.907000,  0.083300
  0.909000,  0.083800
  0.911000,  0.084000
  0.913000,  0.084200
  0.915000,  0.084300
  0.917000,  0.084200
  0.919000,  0.084000
  0.921000,  0.083600
  0.923000,  0.083100
  0.925000,  0.082500
  0.927000,  0.081700
  0.929000,  0.080800
  0.931000,  0.079800
  0.933000,  0.078600
  0.935000,  0.077200
  0.937000,  0.075800
  0.939000,  0.074200
  0.941000,  0.072500
  0.943000,  0.070700
  0.945000,  0.068800
  0.947000,  0.066800
  0.949000,  0.064700
  0.951000,  0.062500
  0.953000,  0.060200
  0.955000,  0.057800
  0.957000,  0.055400
  0.959000,  0.052900
  0.961000,  0.050400
  0.963000,  0.047800
  0.965000,  0.045200
  0.967000,  0.042700
  0.969000,  0.040000
  0.971000,  0.037300
  0.973000,  0.034800
  0.975000,  0.032200
  0.977000,  0.029700
  0.979000,  0.027300
  0.981000,  0.024800
  0.983000,  0.022500
  0.985000,  0.020200
  0.987000,  0.017900
  0.989000,  0.015800
  0.991000,  0.013800
  0.993000,  0.011900
  0.995000,  0.010100
  0.997000,  0.008300
  0.999000,  0.006700
  1.001000,  0.005200
  1.003000,  0.003900
  1.005000,  0.002700
  1.007000,  0.001500
  1.009000,  0.000500
  1.011000, -0.000400
  1.013000, -0.001200
  1.015000, -0.001900
  1.017000, -0.002500
  1.019000, -0.002800
  1.021000, -0.003100
  1.023000, -0.003200
  1.025000, -0.003300
  1.027000, -0.003300
  1.029000, -0.003000
  1.031000, -0.002800
  1.033000, -0.002500
  1.035000, -0.002000
  1.037000, -0.001500
  1.039000, -0.001000
  1.041000, -0.000400
  1.043000,  0.000300
  1.045000,  0.001200
  1.047000,  0.002100
  1.049000,  0.003100
  1.051000,  0.004200
  1.053000,  0.005300
  1.055000,  0.006400
  1.057000,  0.007600
  1.059000,  0.008800
  1.061000,  0.010000
  1.063000,  0.011400
  1.065000,  0.012700
  1.067000,  0.014000
  1.069000,  0.015400
  1.071000,  0.016900
  1.073000,  0.018300
  1.075000,  0.019700
  1.077000,  0.021000
  1.079000,  0.022400
  1.081000,  0.023800
  1.083000,  0.025100
  1.085000,  0.026500
  1.087000,  0.027900
  1.089000,  0.029300
  1.091000,  0.030600
  1.093000,  0.032000
  1.095000,  0.033300
  1.097000,  0.034600
  1.099000,  0.035800
  1.101000,  0.037100
  1.103000,  0.038400
  1.105000,  0.039700
  1.107000,  0.040800
  1.109000,  0.041900
  1.111000,  0.043000
  1.113000,  0.044100
  1.115000,  0.045100
  1.117000,  0.046000
  1.119000,  0.046900
  1.121000,  0.047800
  1.123000,  0.048500
  1.125000,  0.049300
  1.127000,  0.050100
  1.129000,  0.050700
  1.131000,  0.051400
  1.133000,  0.052000
  1.135000,  0.052600
  1.137000,  0.053000
  1.139000,  0.053400
  1.141000,  0.053800
  1.143000,  0.054100
  1.145000,  0.054400
  1.147000,  0.054600
  1.149000,  0.054700
  1.151000,  0.054800
  1.153000,  0.054900
  1.155000,  0.054800
  1.157000,  0.054700
  1.159000,  0.054600
  1.161000,  0.054400
  1.163000,  0.054200
  1.165000,  0.053900
  1.167000,  0.053600
  1.169000,  0.053100
  1.171000,  0.052600
  1.173000,  0.052100
  1.175000,  0.051600
  1.177000,  0.051000
  1.179000,  0.050400
  1.181000,  0.049800
  1.183000,  0.049100
  1.185000,  0.048300
  1.187000,  0.047400
  1.189000,  0.046500
  1.191000,  0.045600
  1.193000,  0.044600
  1.195000,  0.043600
  1.197000,  0.042500
  1.199000,  0.041500
  1.201000,  0.040500
  1.203000,  0.039500
  1.205000,  0.038500
  1.207000,  0.037500
  1.209000,  0.036400
  1.211000,  0.035200
  1.213000,  0.034100
  1.215000,  0.033100
  1.217000,  0.032000
  1.219000,  0.030800
  1.221000,  0.029700
  1.223000,  0.028800
  1.225000,  0.027800
  1.227000,  0.026800
  1.229000,  0.025800
  1.231000,  0.024800
  1.233000,  0.023700
  1.235000,  0.022800
  1.237000,  0.021900
  1.239000,  0.021000
  1.241000,  0.020000
  1.243000,  0.019100
  1.245000,  0.018100
  1.247000,  0.017200
  1.249000,  0.016300
  1.251000,  0.015400
  1.253000,  0.014500
  1.255000,  0.013600
  1.257000,  0.012700
  1.259000,  0.011900
  1.261000,  0.011000
  1.263000,  0.010200
  1.265000,  0.009200
  1.267000,  0.008300
  1.269000,  0.007300
  1.271000,  0.006200
  1.273000,  0.005100
  1.275000,  0.003900
  1.277000,  0.002800
  1.279000,  0.001800
  1.281000,  0.000600
  1.283000, -0.000500
  1.285000, -0.001700
  1.287000, -0.002900
  1.289000, -0.004200
  1.291000, -0.005400
  1.293000, -0.006800
  1.295000, -0.008200
  1.297000, -0.009600
  1.299000, -0.011100
  1.301000, -0.012500
  1.303000, -0.014000
  1.305000, -0.015400
  1.307000, -0.016800
  1.309000, -0.018200
  1.311000, -0.019600
  1.313000, -0.021000
  1.315000, -0.022400
  1.317000, -0.023800
  1.319000, -0.025100
  1.321000, -0.026400
  1.323000, -0.027500
  1.325000, -0.028600
  1.327000, -0.029500
  1.329000, -0.030300
  1.331000, -0.031000
  1.333000, -0.031600
  1.335000, -0.032000
  1.337000, -0.032300
  1.339000, -0.032600
  1.341000, -0.032700
  1.343000, -0.032600
  1.345000, -0.032300
  1.347000, -0.031900
  1.349000, -0.031200
  1.351000, -0.030500
  1.353000, -0.029600
  1.355000, -0.028500
  1.357000, -0.027200
  1.359000, -0.025700
  1.361000, -0.024100
  1.363000, -0.022200
  1.365000, -0.020100
  1.367000, -0.017900
  1.369000, -0.015600
  1.371000, -0.013100
  1.373000, -0.010500
  1.375000, -0.007700
  1.377000, -0.004900
  1.379000, -0.001900
  1.381000,  0.001100
  1.383000,  0.004100
  1.385000,  0.007100
  1.387000,  0.010100
  1.389000,  0.012900
  1.391000,  0.015600
  1.393000,  0.018400
  1.395000,  0.020800
  1.397000,  0.022800
  1.399000,  0.024600
