# z (nm)   (kJ/mol)
  0.417000, 27.447800
  0.421000, 26.724300
  0.423000, 26.266600
  0.425000, 25.807200
  0.427000, 25.340000
  0.429000, 24.882500
  0.431000, 24.433500
  0.433000, 23.970300
  0.435000, 23.492700
  0.437000, 23.015900
  0.439000, 22.543200
  0.441000, 22.066800
  0.443000, 21.584000
  0.445000, 21.101600
  0.447000, 20.618700
  0.449000, 20.128900
  0.451000, 19.638200
  0.453000, 19.152100
  0.455000, 18.676700
  0.457000, 18.202600
  0.459000, 17.724200
  0.461000, 17.245600
  0.463000, 16.773600
  0.465000, 16.307100
  0.467000, 15.840700
  0.469000, 15.379500
  0.471000, 14.928100
  0.473000, 14.483000
  0.475000, 14.047600
  0.477000, 13.618600
  0.479000, 13.197000
  0.481000, 12.786000
  0.483000, 12.375900
  0.485000, 11.973100
  0.487000, 11.581300
  0.489000, 11.193700
  0.491000, 10.810500
  0.493000, 10.435600
  0.495000, 10.069400
  0.497000,  9.710900
  0.499000,  9.360300
  0.501000,  9.015900
  0.503000,  8.677000
  0.505000,  8.347400
  0.507000,  8.025600
  0.509000,  7.712700
  0.511000,  7.407400
  0.513000,  7.107600
  0.515000,  6.815800
  0.517000,  6.528600
  0.519000,  6.246300
  0.521000,  5.972700
  0.523000,  5.707400
  0.525000,  5.449000
  0.527000,  5.196900
  0.529000,  4.952100
  0.531000,  4.714400
  0.533000,  4.484400
  0.535000,  4.261700
  0.537000,  4.045400
  0.539000,  3.835900
  0.541000,  3.633100
  0.543000,  3.436700
  0.545000,  3.247100
  0.547000,  3.064700
  0.549000,  2.888800
  0.551000,  2.719100
  0.553000,  2.556300
  0.555000,  2.399900
  0.557000,  2.249400
  0.559000,  2.105900
  0.561000,  1.969700
  0.563000,  1.838500
  0.565000,  1.712100
  0.567000,  1.592500
  0.569000,  1.479800
  0.571000,  1.373700
  0.573000,  1.272800
  0.575000,  1.176400
  0.577000,  1.085700
  0.579000,  1.000400
  0.581000,  0.920000
  0.583000,  0.843000
  0.585000,  0.770200
  0.587000,  0.703000
  0.589000,  0.640500
  0.591000,  0.581900
  0.593000,  0.526700
  0.595000,  0.475200
  0.597000,  0.427600
  0.599000,  0.383700
  0.601000,  0.343400
  0.603000,  0.306500
  0.605000,  0.272900
  0.607000,  0.242300
  0.609000,  0.215000
  0.611000,  0.191100
  0.613000,  0.170200
  0.615000,  0.152300
  0.617000,  0.136700
  0.619000,  0.123200
  0.621000,  0.112300
  0.623000,  0.103500
  0.625000,  0.097100
  0.627000,  0.092900
  0.629000,  0.091200
  0.631000,  0.092100
  0.633000,  0.094800
  0.635000,  0.099300
  0.637000,  0.105700
  0.639000,  0.114100
  0.641000,  0.124200
  0.643000,  0.136000
  0.645000,  0.149000
  0.647000,  0.163600
  0.649000,  0.179700
  0.651000,  0.197000
  0.653000,  0.215400
  0.655000,  0.235000
  0.657000,  0.255800
  0.659000,  0.277600
  0.661000,  0.299800
  0.663000,  0.322900
  0.665000,  0.346800
  0.667000,  0.371100
  0.669000,  0.395900
  0.671000,  0.420700
  0.673000,  0.445800
  0.675000,  0.470800
  0.677000,  0.496000
  0.679000,  0.521200
  0.681000,  0.546300
  0.683000,  0.571000
  0.685000,  0.595100
  0.687000,  0.618700
  0.689000,  0.641300
  0.691000,  0.663300
  0.693000,  0.684400
  0.695000,  0.704200
  0.697000,  0.722700
  0.699000,  0.740300
  0.701000,  0.756900
  0.703000,  0.772000
  0.705000,  0.785800
  0.707000,  0.797900
  0.709000,  0.808000
  0.711000,  0.816500
  0.713000,  0.823600
  0.715000,  0.828900
  0.717000,  0.832400
  0.719000,  0.834300
  0.721000,  0.834400
  0.723000,  0.832200
  0.725000,  0.828000
  0.727000,  0.822300
  0.729000,  0.814900
  0.731000,  0.805600
  0.733000,  0.794500
  0.735000,  0.781900
  0.737000,  0.767900
  0.739000,  0.752000
  0.741000,  0.734300
  0.743000,  0.715500
  0.745000,  0.695500
  0.747000,  0.674200
  0.749000,  0.651400
  0.751000,  0.627700
  0.753000,  0.602900
  0.755000,  0.577000
  0.757000,  0.550400
  0.759000,  0.523200
  0.761000,  0.495700
  0.763000,  0.467700
  0.765000,  0.439200
  0.767000,  0.410400
  0.769000,  0.381700
  0.771000,  0.353000
  0.773000,  0.324600
  0.775000,  0.296300
  0.777000,  0.268400
  0.779000,  0.241000
  0.781000,  0.214000
  0.783000,  0.187600
  0.785000,  0.162000
  0.787000,  0.137200
  0.789000,  0.113400
  0.791000,  0.090500
  0.793000,  0.068700
  0.795000,  0.047900
  0.797000,  0.028400
  0.799000,  0.010200
  0.801000, -0.006800
  0.803000, -0.022500
  0.805000, -0.036800
  0.807000, -0.049800
  0.809000, -0.061300
  0.811000, -0.071500
  0.813000, -0.080100
  0.815000, -0.087100
  0.817000, -0.092800
  0.819000, -0.097100
  0.821000, -0.100100
  0.823000, -0.101800
  0.825000, -0.102100
  0.827000, -0.101000
  0.829000, -0.098800
  0.831000, -0.095300
  0.833000, -0.090700
  0.835000, -0.085200
  0.837000, -0.078500
  0.839000, -0.070700
  0.841000, -0.062000
  0.843000, -0.052400
  0.845000, -0.041900
  0.847000, -0.030700
  0.849000, -0.019100
  0.851000, -0.006900
  0.853000,  0.006200
  0.855000,  0.019600
  0.857000,  0.033500
  0.859000,  0.047600
  0.861000,  0.062000
  0.863000,  0.076800
  0.865000,  0.091900
  0.867000,  0.107000
  0.869000,  0.121900
  0.871000,  0.136800
  0.873000,  0.151500
  0.875000,  0.166000
  0.877000,  0.180400
  0.879000,  0.194500
  0.881000,  0.208300
  0.883000,  0.221800
  0.885000,  0.234900
  0.887000,  0.247500
  0.889000,  0.259700
  0.891000,  0.271300
  0.893000,  0.282400
  0.895000,  0.292800
  0.897000,  0.302400
  0.899000,  0.311500
  0.901000,  0.320000
  0.903000,  0.327900
  0.905000,  0.335000
  0.907000,  0.341500
  0.909000,  0.347200
  0.911000,  0.352200
  0.913000,  0.356400
  0.915000,  0.359900
  0.917000,  0.362600
  0.919000,  0.364700
  0.921000,  0.366000
  0.923000,  0.366600
  0.925000,  0.366800
  0.927000,  0.366400
  0.929000,  0.365100
  0.931000,  0.363000
  0.933000,  0.360300
  0.935000,  0.357200
  0.937000,  0.353600
  0.939000,  0.349400
  0.941000,  0.344600
  0.943000,  0.339300
  0.945000,  0.333500
  0.947000,  0.327300
  0.949000,  0.320800
  0.951000,  0.313900
  0.953000,  0.306500
  0.955000,  0.298800
  0.957000,  0.290700
  0.959000,  0.282300
  0.961000,  0.273700
  0.963000,  0.264800
  0.965000,  0.255700
  0.967000,  0.246500
  0.969000,  0.237000
  0.971000,  0.227400
  0.973000,  0.217700
  0.975000,  0.207900
  0.977000,  0.198200
  0.979000,  0.188300
  0.981000,  0.178400
  0.983000,  0.168400
  0.985000,  0.158500
  0.987000,  0.148600
  0.989000,  0.138900
  0.991000,  0.129200
  0.993000,  0.119700
  0.995000,  0.110400
  0.997000,  0.101100
  0.999000,  0.092000
  1.001000,  0.083200
  1.003000,  0.074600
  1.005000,  0.066100
  1.007000,  0.057900
  1.009000,  0.049800
  1.011000,  0.041900
  1.013000,  0.034300
  1.015000,  0.026900
  1.017000,  0.019800
  1.019000,  0.013000
  1.021000,  0.006500
  1.023000,  0.000100
  1.025000, -0.005900
  1.027000, -0.011800
  1.029000, -0.017400
  1.031000, -0.022500
  1.033000, -0.027400
  1.035000, -0.032000
  1.037000, -0.036200
  1.039000, -0.040200
  1.041000, -0.044000
  1.043000, -0.047500
  1.045000, -0.050600
  1.047000, -0.053500
  1.049000, -0.056200
  1.051000, -0.058800
  1.053000, -0.061000
  1.055000, -0.063200
  1.057000, -0.065100
  1.059000, -0.066600
  1.061000, -0.067800
  1.063000, -0.068900
  1.065000, -0.069800
  1.067000, -0.070500
  1.069000, -0.071000
  1.071000, -0.071200
  1.073000, -0.071300
  1.075000, -0.071300
  1.077000, -0.071200
  1.079000, -0.071000
  1.081000, -0.070600
  1.083000, -0.070100
  1.085000, -0.069700
  1.087000, -0.069100
  1.089000, -0.068400
  1.091000, -0.067500
  1.093000, -0.066700
  1.095000, -0.065900
  1.097000, -0.064900
  1.099000, -0.064000
  1.101000, -0.063000
  1.103000, -0.061900
  1.105000, -0.060900
  1.107000, -0.059800
  1.109000, -0.058800
  1.111000, -0.057800
  1.113000, -0.056900
  1.115000, -0.056100
  1.117000, -0.055100
  1.119000, -0.054100
  1.121000, -0.053400
  1.123000, -0.052600
  1.125000, -0.051800
  1.127000, -0.051200
  1.129000, -0.050700
  1.131000, -0.050300
  1.133000, -0.050000
  1.135000, -0.049700
  1.137000, -0.049600
  1.139000, -0.049400
  1.141000, -0.049300
  1.143000, -0.049400
  1.145000, -0.049600
  1.147000, -0.049800
  1.149000, -0.049900
  1.151000, -0.050100
  1.153000, -0.050400
  1.155000, -0.050700
  1.157000, -0.051200
  1.159000, -0.051600
  1.161000, -0.052000
  1.163000, -0.052500
  1.165000, -0.053100
  1.167000, -0.053700
  1.169000, -0.054400
  1.171000, -0.055100
  1.173000, -0.055700
  1.175000, -0.056300
  1.177000, -0.056800
  1.179000, -0.057500
  1.181000, -0.057800
  1.183000, -0.058100
  1.185000, -0.058700
  1.187000, -0.059300
  1.189000, -0.059800
  1.191000, -0.060300
  1.193000, -0.060700
  1.195000, -0.061200
  1.197000, -0.061700
  1.199000, -0.061900
  1.201000, -0.062200
  1.203000, -0.062300
  1.205000, -0.062300
  1.207000, -0.062200
  1.209000, -0.062000
  1.211000, -0.061900
  1.213000, -0.061600
  1.215000, -0.061200
  1.217000, -0.060600
  1.219000, -0.059900
  1.221000, -0.059100
  1.223000, -0.058200
  1.225000, -0.057100
  1.227000, -0.056000
  1.229000, -0.054800
  1.231000, -0.053300
  1.233000, -0.051700
  1.235000, -0.050000
  1.237000, -0.048200
  1.239000, -0.046300
  1.241000, -0.044400
  1.243000, -0.042400
  1.245000, -0.040300
  1.247000, -0.038100
  1.249000, -0.035800
  1.251000, -0.033400
  1.253000, -0.030900
  1.255000, -0.028300
  1.257000, -0.025700
  1.259000, -0.023100
  1.261000, -0.020500
  1.263000, -0.017700
  1.265000, -0.015100
  1.267000, -0.012400
  1.269000, -0.009700
  1.271000, -0.006900
  1.273000, -0.004300
  1.275000, -0.001700
  1.277000,  0.000800
  1.279000,  0.003100
  1.281000,  0.005300
  1.283000,  0.007500
  1.285000,  0.009700
  1.287000,  0.011700
  1.289000,  0.013500
  1.291000,  0.015100
  1.293000,  0.016600
  1.295000,  0.017900
  1.297000,  0.019000
  1.299000,  0.019900
  1.301000,  0.020700
  1.303000,  0.021300
  1.305000,  0.021600
  1.307000,  0.021700
  1.309000,  0.021600
  1.311000,  0.021500
  1.313000,  0.021100
  1.315000,  0.020700
  1.317000,  0.020100
  1.319000,  0.019400
  1.321000,  0.018500
  1.323000,  0.017600
  1.325000,  0.016600
  1.327000,  0.015500
  1.329000,  0.014200
  1.331000,  0.012900
  1.333000,  0.011700
  1.335000,  0.010500
  1.337000,  0.009400
  1.339000,  0.008300
  1.341000,  0.007300
  1.343000,  0.006500
  1.345000,  0.005900
  1.347000,  0.005500
  1.349000,  0.005300
  1.351000,  0.005500
  1.353000,  0.006000
  1.355000,  0.006600
  1.357000,  0.007600
  1.359000,  0.009100
  1.361000,  0.010700
  1.363000,  0.012800
  1.365000,  0.015500
  1.367000,  0.018600
  1.369000,  0.022200
  1.371000,  0.026200
  1.373000,  0.030500
  1.375000,  0.035200
  1.377000,  0.040400
  1.379000,  0.046000
  1.381000,  0.052100
  1.383000,  0.058700
  1.385000,  0.065800
  1.387000,  0.073200
  1.389000,  0.081200
  1.391000,  0.090000
  1.393000,  0.098800
  1.395000,  0.107500
  1.397000,  0.116400
  1.399000,  0.125100
