# z (nm)   (kJ/mol)
  0.0430    9.81100
  0.0450    9.43300
  0.0470    9.01300
  0.0490    8.59400
  0.0510    8.19200
  0.0530    7.75800
  0.0550    7.32900
  0.0570    6.89000
  0.0590    6.44600
  0.0610    6.00200
  0.0630    5.55800
  0.0650    5.10900
  0.0670    4.66300
  0.0690    4.21800
  0.0710    3.78300
  0.0730    3.35300
  0.0750    2.91800
  0.0770    2.49300
  0.0790    2.07700
  0.0810    1.66100
  0.0830    1.25200
  0.0850    0.85400
  0.0870    0.46900
  0.0890    0.08900
  0.0910   -0.28600
  0.0930   -0.64900
  0.0950   -1.00200
  0.0970   -1.34700
  0.0990   -1.68600
  0.1010   -2.01300
  0.1030   -2.32600
  0.1050   -2.62900
  0.1070   -2.92300
  0.1090   -3.20700
  0.1110   -3.48100
  0.1130   -3.74300
  0.1150   -3.99400
  0.1170   -4.23200
  0.1190   -4.45900
  0.1210   -4.67500
  0.1230   -4.87900
  0.1250   -5.07100
  0.1270   -5.25200
  0.1290   -5.42100
  0.1310   -5.57800
  0.1330   -5.72500
  0.1350   -5.86100
  0.1370   -5.98600
  0.1390   -6.10000
  0.1410   -6.20300
  0.1430   -6.29700
  0.1450   -6.38000
  0.1470   -6.45300
  0.1490   -6.51700
  0.1510   -6.57100
  0.1530   -6.61600
  0.1550   -6.65200
  0.1570   -6.68000
  0.1590   -6.69900
  0.1610   -6.71000
  0.1630   -6.71500
  0.1650   -6.71300
  0.1670   -6.70500
  0.1690   -6.69100
  0.1710   -6.67200
  0.1730   -6.64700
  0.1750   -6.61800
  0.1770   -6.58200
  0.1790   -6.54200
  0.1810   -6.49700
  0.1830   -6.45100
  0.1850   -6.40200
  0.1870   -6.35100
  0.1890   -6.29700
  0.1910   -6.24000
  0.1930   -6.18100
  0.1950   -6.12000
  0.1970   -6.05800
  0.1990   -5.99400
  0.2010   -5.92900
  0.2030   -5.86400
  0.2050   -5.79700
  0.2070   -5.73000
  0.2090   -5.66300
  0.2110   -5.59500
  0.2130   -5.52700
  0.2150   -5.45900
  0.2170   -5.39000
  0.2190   -5.32100
  0.2210   -5.25100
  0.2230   -5.18100
  0.2250   -5.11100
  0.2270   -5.04100
  0.2290   -4.97000
  0.2310   -4.89900
  0.2330   -4.82700
  0.2350   -4.75500
  0.2370   -4.68300
  0.2390   -4.60900
  0.2410   -4.53400
  0.2430   -4.45900
  0.2450   -4.38300
  0.2470   -4.30600
  0.2490   -4.22800
  0.2510   -4.14800
  0.2530   -4.06800
  0.2550   -3.98600
  0.2570   -3.90300
  0.2590   -3.81800
  0.2610   -3.73200
  0.2630   -3.64400
  0.2650   -3.55500
  0.2670   -3.46500
  0.2690   -3.37200
  0.2710   -3.27900
  0.2730   -3.18300
  0.2750   -3.08600
  0.2770   -2.98800
  0.2790   -2.88700
  0.2810   -2.78600
  0.2830   -2.68300
  0.2850   -2.57800
  0.2870   -2.47200
  0.2890   -2.36400
  0.2910   -2.25500
  0.2930   -2.14500
  0.2950   -2.03400
  0.2970   -1.92200
  0.2990   -1.80900
  0.3010   -1.69400
  0.3030   -1.57900
  0.3050   -1.46300
  0.3070   -1.34700
  0.3090   -1.22900
  0.3110   -1.11200
  0.3130   -0.99300
  0.3150   -0.87400
  0.3170   -0.75600
  0.3190   -0.63700
  0.3210   -0.51900
  0.3230   -0.40100
  0.3250   -0.28200
  0.3270   -0.16500
  0.3290   -0.04800
  0.3310    0.06800
  0.3330    0.18400
  0.3350    0.29800
  0.3370    0.41200
  0.3390    0.52400
  0.3410    0.63300
  0.3430    0.74200
  0.3450    0.84900
  0.3470    0.95500
  0.3490    1.05900
  0.3510    1.16000
  0.3530    1.26000
  0.3550    1.35700
  0.3570    1.45100
  0.3590    1.54300
  0.3610    1.63200
  0.3630    1.71900
  0.3650    1.80300
  0.3670    1.88300
  0.3690    1.96000
  0.3710    2.03400
  0.3730    2.10500
  0.3750    2.17200
  0.3770    2.23600
  0.3790    2.29800
  0.3810    2.35500
  0.3830    2.40800
  0.3850    2.45800
  0.3870    2.50400
  0.3890    2.54600
  0.3910    2.58500
  0.3930    2.61900
  0.3950    2.64900
  0.3970    2.67600
  0.3990    2.69900
  0.4010    2.71800
  0.4030    2.73300
  0.4050    2.74400
  0.4070    2.75200
  0.4090    2.75500
  0.4110    2.75500
  0.4130    2.75100
  0.4150    2.74300
  0.4170    2.73100
  0.4190    2.71600
  0.4210    2.69700
  0.4230    2.67400
  0.4250    2.64900
  0.4270    2.62000
  0.4290    2.58900
  0.4310    2.55400
  0.4330    2.51600
  0.4350    2.47400
  0.4370    2.43000
  0.4390    2.38300
  0.4410    2.33400
  0.4430    2.28300
  0.4450    2.22900
  0.4470    2.17300
  0.4490    2.11500
  0.4510    2.05500
  0.4530    1.99400
  0.4550    1.93000
  0.4570    1.86700
  0.4590    1.80200
  0.4610    1.73600
  0.4630    1.67000
  0.4650    1.60300
  0.4670    1.53500
  0.4690    1.46600
  0.4710    1.39600
  0.4730    1.32700
  0.4750    1.25700
  0.4770    1.18800
  0.4790    1.11900
  0.4810    1.05100
  0.4830    0.98300
  0.4850    0.91600
  0.4870    0.84800
  0.4890    0.78200
  0.4910    0.71600
  0.4930    0.65200
  0.4950    0.58900
  0.4970    0.52700
  0.4990    0.46600
  0.5010    0.40600
  0.5030    0.34900
  0.5050    0.29200
  0.5070    0.23700
  0.5090    0.18400
  0.5110    0.13300
  0.5130    0.08400
  0.5150    0.03600
  0.5170   -0.01000
  0.5190   -0.05400
  0.5210   -0.09600
  0.5230   -0.13600
  0.5250   -0.17500
  0.5270   -0.21100
  0.5290   -0.24600
  0.5310   -0.27800
  0.5330   -0.30900
  0.5350   -0.33700
  0.5370   -0.36400
  0.5390   -0.38800
  0.5410   -0.41100
  0.5430   -0.43200
  0.5450   -0.45000
  0.5470   -0.46700
  0.5490   -0.48200
  0.5510   -0.49600
  0.5530   -0.50700
  0.5550   -0.51700
  0.5570   -0.52500
  0.5590   -0.53100
  0.5610   -0.53600
  0.5630   -0.53900
  0.5650   -0.54100
  0.5670   -0.54100
  0.5690   -0.54000
  0.5710   -0.53700
  0.5730   -0.53300
  0.5750   -0.52700
  0.5770   -0.52000
  0.5790   -0.51200
  0.5810   -0.50200
  0.5830   -0.49100
  0.5850   -0.47900
  0.5870   -0.46600
  0.5890   -0.45200
  0.5910   -0.43800
  0.5930   -0.42200
  0.5950   -0.40400
  0.5970   -0.38600
  0.5990   -0.36700
  0.6010   -0.34700
  0.6030   -0.32700
  0.6050   -0.30600
  0.6070   -0.28400
  0.6090   -0.26200
  0.6110   -0.23900
  0.6130   -0.21500
  0.6150   -0.19000
  0.6170   -0.16600
  0.6190   -0.14100
  0.6210   -0.11500
  0.6230   -0.08900
  0.6250   -0.06300
  0.6270   -0.03600
  0.6290   -0.00900
  0.6310    0.01800
  0.6330    0.04500
  0.6350    0.07200
  0.6370    0.09900
  0.6390    0.12600
  0.6410    0.15300
  0.6430    0.18000
  0.6450    0.20700
  0.6470    0.23300
  0.6490    0.25900
  0.6510    0.28600
  0.6530    0.31100
  0.6550    0.33700
  0.6570    0.36200
  0.6590    0.38600
  0.6610    0.41100
  0.6630    0.43400
  0.6650    0.45700
  0.6670    0.48000
  0.6690    0.50100
  0.6710    0.52300
  0.6730    0.54300
  0.6750    0.56300
  0.6770    0.58100
  0.6790    0.59900
  0.6810    0.61700
  0.6830    0.63300
  0.6850    0.64800
  0.6870    0.66300
  0.6890    0.67700
  0.6910    0.68900
  0.6930    0.70100
  0.6950    0.71200
  0.6970    0.72200
  0.6990    0.73100
  0.7010    0.73900
  0.7030    0.74500
  0.7050    0.75100
  0.7070    0.75600
  0.7090    0.76000
  0.7110    0.76300
  0.7130    0.76500
  0.7150    0.76600
  0.7170    0.76600
  0.7190    0.76500
  0.7210    0.76300
  0.7230    0.76000
  0.7250    0.75600
  0.7270    0.75200
  0.7290    0.74600
  0.7310    0.74000
  0.7330    0.73300
  0.7350    0.72500
  0.7370    0.71600
  0.7390    0.70700
  0.7410    0.69700
  0.7430    0.68600
  0.7450    0.67500
  0.7470    0.66300
  0.7490    0.65000
  0.7510    0.63700
  0.7530    0.62400
  0.7550    0.60900
  0.7570    0.59500
  0.7590    0.58000
  0.7610    0.56500
  0.7630    0.54900
  0.7650    0.53400
  0.7670    0.51800
  0.7690    0.50100
  0.7710    0.48500
  0.7730    0.46800
  0.7750    0.45100
  0.7770    0.43400
  0.7790    0.41800
  0.7810    0.40100
  0.7830    0.38400
  0.7850    0.36700
  0.7870    0.35000
  0.7890    0.33400
  0.7910    0.31700
  0.7930    0.30100
  0.7950    0.28500
  0.7970    0.26800
  0.7990    0.25200
  0.8010    0.23700
  0.8030    0.22100
  0.8050    0.20600
  0.8070    0.19100
  0.8090    0.17600
  0.8110    0.16200
  0.8130    0.14800
  0.8150    0.13400
  0.8170    0.12000
  0.8190    0.10700
  0.8210    0.09400
  0.8230    0.08200
  0.8250    0.07000
  0.8270    0.05800
  0.8290    0.04700
  0.8310    0.03600
  0.8330    0.02500
  0.8350    0.01600
  0.8370    0.00600
  0.8390   -0.00300
  0.8410   -0.01200
  0.8430   -0.02000
  0.8450   -0.02800
  0.8470   -0.03500
  0.8490   -0.04200
  0.8510   -0.04900
  0.8530   -0.05500
  0.8550   -0.06000
  0.8570   -0.06500
  0.8590   -0.07000
  0.8610   -0.07400
  0.8630   -0.07800
  0.8650   -0.08100
  0.8670   -0.08400
  0.8690   -0.08600
  0.8710   -0.08800
  0.8730   -0.08900
  0.8750   -0.09000
  0.8770   -0.09100
  0.8790   -0.09100
  0.8810   -0.09100
  0.8830   -0.09000
  0.8850   -0.08800
  0.8870   -0.08700
  0.8890   -0.08500
  0.8910   -0.08200
  0.8930   -0.07900
  0.8950   -0.07600
  0.8970   -0.07200
  0.8990   -0.06800
  0.9010   -0.06400
  0.9030   -0.05900
  0.9050   -0.05400
  0.9070   -0.04900
  0.9090   -0.04300
  0.9110   -0.03800
  0.9130   -0.03200
  0.9150   -0.02500
  0.9170   -0.01900
  0.9190   -0.01200
  0.9210   -0.00500
  0.9230    0.00200
  0.9250    0.00900
  0.9270    0.01600
  0.9290    0.02400
  0.9310    0.03100
  0.9330    0.03800
  0.9350    0.04600
  0.9370    0.05300
  0.9390    0.06100
  0.9410    0.06800
  0.9430    0.07600
  0.9450    0.08300
  0.9470    0.09100
  0.9490    0.09800
  0.9510    0.10500
  0.9530    0.11300
  0.9550    0.12000
  0.9570    0.12700
  0.9590    0.13400
  0.9610    0.14100
  0.9630    0.14700
  0.9650    0.15400
  0.9670    0.16000
  0.9690    0.16600
  0.9710    0.17100
  0.9730    0.17700
  0.9750    0.18300
  0.9770    0.18800
  0.9790    0.19300
  0.9810    0.19800
  0.9830    0.20300
  0.9850    0.20700
  0.9870    0.21100
  0.9890    0.21500
  0.9910    0.21900
  0.9930    0.22200
  0.9950    0.22600
  0.9970    0.22900
  0.9990    0.23100
  1.0010    0.23400
  1.0030    0.23600
  1.0050    0.23800
  1.0070    0.24000
  1.0090    0.24200
  1.0110    0.24300
  1.0130    0.24400
  1.0150    0.24500
  1.0170    0.24600
  1.0190    0.24600
  1.0210    0.24600
  1.0230    0.24600
  1.0250    0.24600
  1.0270    0.24600
  1.0290    0.24500
  1.0310    0.24400
  1.0330    0.24200
  1.0350    0.24100
  1.0370    0.23900
  1.0390    0.23700
  1.0410    0.23500
  1.0430    0.23200
  1.0450    0.23000
  1.0470    0.22700
  1.0490    0.22400
  1.0510    0.22100
  1.0530    0.21800
  1.0550    0.21400
  1.0570    0.21000
  1.0590    0.20600
  1.0610    0.20200
  1.0630    0.19800
  1.0650    0.19300
  1.0670    0.18900
  1.0690    0.18400
  1.0710    0.17900
  1.0730    0.17400
  1.0750    0.17000
  1.0770    0.16500
  1.0790    0.15900
  1.0810    0.15400
  1.0830    0.14900
  1.0850    0.14300
  1.0870    0.13800
  1.0890    0.13200
  1.0910    0.12700
  1.0930    0.12100
  1.0950    0.11600
  1.0970    0.11000
  1.0990    0.10500
  1.1010    0.10000
  1.1030    0.09400
  1.1050    0.08900
  1.1070    0.08400
  1.1090    0.07900
  1.1110    0.07400
  1.1130    0.06900
  1.1150    0.06500
  1.1170    0.06000
  1.1190    0.05600
  1.1210    0.05100
  1.1230    0.04700
  1.1250    0.04300
  1.1270    0.03900
  1.1290    0.03600
  1.1310    0.03200
  1.1330    0.02900
  1.1350    0.02600
  1.1370    0.02300
  1.1390    0.02000
  1.1410    0.01800
  1.1430    0.01500
  1.1450    0.01300
  1.1470    0.01100
  1.1490    0.00900
  1.1510    0.00800
  1.1530    0.00600
  1.1550    0.00400
  1.1570    0.00300
  1.1590    0.00200
  1.1610    0.00100
  1.1630   -0.00100
  1.1650   -0.00100
  1.1670   -0.00200
  1.1690   -0.00300
  1.1710   -0.00400
  1.1730   -0.00400
  1.1750   -0.00500
  1.1770   -0.00600
  1.1790   -0.00600
  1.1810   -0.00700
  1.1830   -0.00800
  1.1850   -0.00800
  1.1870   -0.00900
  1.1890   -0.01000
  1.1910   -0.01000
  1.1930   -0.01100
  1.1950   -0.01200
  1.1970   -0.01300
  1.1990   -0.01300
  1.2010   -0.01400
  1.2030   -0.01500
  1.2050   -0.01600
  1.2070   -0.01700
  1.2090   -0.01800
  1.2110   -0.01900
  1.2130   -0.02000
  1.2150   -0.02100
  1.2170   -0.02100
  1.2190   -0.02200
  1.2210   -0.02300
  1.2230   -0.02400
  1.2250   -0.02500
  1.2270   -0.02600
  1.2290   -0.02700
  1.2310   -0.02700
  1.2330   -0.02800
  1.2350   -0.02800
  1.2370   -0.02900
  1.2390   -0.02900
  1.2410   -0.02900
  1.2430   -0.03000
  1.2450   -0.03000
  1.2470   -0.02900
  1.2490   -0.02900
  1.2510   -0.02900
  1.2530   -0.02900
  1.2550   -0.02800
  1.2570   -0.02700
  1.2590   -0.02600
  1.2610   -0.02500
  1.2630   -0.02400
  1.2650   -0.02300
  1.2670   -0.02100
  1.2690   -0.02000
  1.2710   -0.01800
  1.2730   -0.01600
  1.2750   -0.01400
  1.2770   -0.01200
  1.2790   -0.01100
  1.2810   -0.00900
  1.2830   -0.00700
  1.2850   -0.00500
  1.2870   -0.00300
  1.2890   -0.00100
  1.2910    0.00200
  1.2930    0.00400
  1.2950    0.00600
  1.2970    0.00800
  1.2990    0.01000
  1.3010    0.01100
  1.3030    0.01300
  1.3050    0.01500
  1.3070    0.01600
  1.3090    0.01700
  1.3110    0.01900
  1.3130    0.02000
  1.3150    0.02100
  1.3170    0.02200
  1.3190    0.02300
  1.3210    0.02400
  1.3230    0.02400
  1.3250    0.02500
  1.3270    0.02500
  1.3290    0.02500
  1.3310    0.02500
  1.3330    0.02500
  1.3350    0.02500
  1.3370    0.02500
  1.3390    0.02400
  1.3410    0.02400
  1.3430    0.02400
  1.3450    0.02300
  1.3470    0.02300
  1.3490    0.02200
  1.3510    0.02200
  1.3530    0.02100
  1.3550    0.02000
  1.3570    0.02000
  1.3590    0.01900
  1.3610    0.01800
  1.3630    0.01800
  1.3650    0.01700
  1.3670    0.01700
  1.3690    0.01600
  1.3710    0.01600
  1.3730    0.01500
  1.3750    0.01500
  1.3770    0.01500
  1.3790    0.01400
  1.3810    0.01400
  1.3830    0.01400
  1.3850    0.01300
  1.3870    0.01300
  1.3890    0.01300
  1.3910    0.01200
  1.3930    0.01200
  1.3950    0.01100
  1.3970    0.01000
  1.3990    0.00900
