# z (nm)   (kJ/mol)
  0.0990   -2.64000
  0.1010   -3.43500
  0.1030   -4.19700
  0.1050   -4.95700
  0.1070   -5.69200
  0.1090   -6.42300
  0.1110   -7.16400
  0.1130   -7.91600
  0.1150   -8.65100
  0.1170   -9.35800
  0.1190  -10.06000
  0.1210  -10.75900
  0.1230  -11.44700
  0.1250  -12.12200
  0.1270  -12.77800
  0.1290  -13.41900
  0.1310  -14.04100
  0.1330  -14.64400
  0.1350  -15.22900
  0.1370  -15.79300
  0.1390  -16.33200
  0.1410  -16.84800
  0.1430  -17.34200
  0.1450  -17.81400
  0.1470  -18.26000
  0.1490  -18.68200
  0.1510  -19.07900
  0.1530  -19.45000
  0.1550  -19.79700
  0.1570  -20.12000
  0.1590  -20.41600
  0.1610  -20.68500
  0.1630  -20.93000
  0.1650  -21.14900
  0.1670  -21.34300
  0.1690  -21.51300
  0.1710  -21.65700
  0.1730  -21.77600
  0.1750  -21.87100
  0.1770  -21.94200
  0.1790  -21.99000
  0.1810  -22.01700
  0.1830  -22.02200
  0.1850  -22.00400
  0.1870  -21.96600
  0.1890  -21.91000
  0.1910  -21.83500
  0.1930  -21.74200
  0.1950  -21.63500
  0.1970  -21.51200
  0.1990  -21.37500
  0.2010  -21.22600
  0.2030  -21.06600
  0.2050  -20.89500
  0.2070  -20.71300
  0.2090  -20.52200
  0.2110  -20.32500
  0.2130  -20.12000
  0.2150  -19.90800
  0.2170  -19.69300
  0.2190  -19.47500
  0.2210  -19.25400
  0.2230  -19.02900
  0.2250  -18.80400
  0.2270  -18.57700
  0.2290  -18.35000
  0.2310  -18.12400
  0.2330  -17.89800
  0.2350  -17.67500
  0.2370  -17.45300
  0.2390  -17.23300
  0.2410  -17.01600
  0.2430  -16.80100
  0.2450  -16.59000
  0.2470  -16.38200
  0.2490  -16.17700
  0.2510  -15.97500
  0.2530  -15.77600
  0.2550  -15.58100
  0.2570  -15.38800
  0.2590  -15.19800
  0.2610  -15.01100
  0.2630  -14.82800
  0.2650  -14.64600
  0.2670  -14.46800
  0.2690  -14.29100
  0.2710  -14.11600
  0.2730  -13.94300
  0.2750  -13.77200
  0.2770  -13.60200
  0.2790  -13.43400
  0.2810  -13.26800
  0.2830  -13.10200
  0.2850  -12.93700
  0.2870  -12.77100
  0.2890  -12.60700
  0.2910  -12.44300
  0.2930  -12.27900
  0.2950  -12.11600
  0.2970  -11.95200
  0.2990  -11.78900
  0.3010  -11.62600
  0.3030  -11.46300
  0.3050  -11.29900
  0.3070  -11.13500
  0.3090  -10.97100
  0.3110  -10.80600
  0.3130  -10.64100
  0.3150  -10.47600
  0.3170  -10.31000
  0.3190  -10.14400
  0.3210   -9.97800
  0.3230   -9.81200
  0.3250   -9.64600
  0.3270   -9.48000
  0.3290   -9.31400
  0.3310   -9.14800
  0.3330   -8.98300
  0.3350   -8.81800
  0.3370   -8.65300
  0.3390   -8.49000
  0.3410   -8.32600
  0.3430   -8.16400
  0.3450   -8.00200
  0.3470   -7.84000
  0.3490   -7.68000
  0.3510   -7.52100
  0.3530   -7.36200
  0.3550   -7.20500
  0.3570   -7.04800
  0.3590   -6.89300
  0.3610   -6.73900
  0.3630   -6.58600
  0.3650   -6.43400
  0.3670   -6.28300
  0.3690   -6.13400
  0.3710   -5.98600
  0.3730   -5.83900
  0.3750   -5.69400
  0.3770   -5.55000
  0.3790   -5.40700
  0.3810   -5.26500
  0.3830   -5.12500
  0.3850   -4.98600
  0.3870   -4.84800
  0.3890   -4.71100
  0.3910   -4.57500
  0.3930   -4.44100
  0.3950   -4.30800
  0.3970   -4.17700
  0.3990   -4.04600
  0.4010   -3.91600
  0.4030   -3.78800
  0.4050   -3.66000
  0.4070   -3.53400
  0.4090   -3.40900
  0.4110   -3.28500
  0.4130   -3.16200
  0.4150   -3.04100
  0.4170   -2.92200
  0.4190   -2.80300
  0.4210   -2.68400
  0.4230   -2.56800
  0.4250   -2.45300
  0.4270   -2.33800
  0.4290   -2.22500
  0.4310   -2.11300
  0.4330   -2.00300
  0.4350   -1.89400
  0.4370   -1.78700
  0.4390   -1.68200
  0.4410   -1.57800
  0.4430   -1.47600
  0.4450   -1.37500
  0.4470   -1.27500
  0.4490   -1.17800
  0.4510   -1.08300
  0.4530   -0.99000
  0.4550   -0.90000
  0.4570   -0.81100
  0.4590   -0.72500
  0.4610   -0.64000
  0.4630   -0.55900
  0.4650   -0.48100
  0.4670   -0.40500
  0.4690   -0.33200
  0.4710   -0.26300
  0.4730   -0.19600
  0.4750   -0.13200
  0.4770   -0.07000
  0.4790   -0.01100
  0.4810    0.04500
  0.4830    0.09700
  0.4850    0.14600
  0.4870    0.19100
  0.4890    0.23300
  0.4910    0.27100
  0.4930    0.30600
  0.4950    0.33700
  0.4970    0.36400
  0.4990    0.38900
  0.5010    0.41000
  0.5030    0.42700
  0.5050    0.44100
  0.5070    0.45200
  0.5090    0.46000
  0.5110    0.46500
  0.5130    0.46600
  0.5150    0.46400
  0.5170    0.46000
  0.5190    0.45300
  0.5210    0.44300
  0.5230    0.43000
  0.5250    0.41500
  0.5270    0.39800
  0.5290    0.37800
  0.5310    0.35600
  0.5330    0.33300
  0.5350    0.30700
  0.5370    0.28100
  0.5390    0.25200
  0.5410    0.22300
  0.5430    0.19200
  0.5450    0.16000
  0.5470    0.12700
  0.5490    0.09300
  0.5510    0.05900
  0.5530    0.02500
  0.5550   -0.01000
  0.5570   -0.04500
  0.5590   -0.08000
  0.5610   -0.11500
  0.5630   -0.14900
  0.5650   -0.18400
  0.5670   -0.21700
  0.5690   -0.25100
  0.5710   -0.28300
  0.5730   -0.31500
  0.5750   -0.34600
  0.5770   -0.37700
  0.5790   -0.40600
  0.5810   -0.43400
  0.5830   -0.46200
  0.5850   -0.48800
  0.5870   -0.51200
  0.5890   -0.53600
  0.5910   -0.55800
  0.5930   -0.57900
  0.5950   -0.59900
  0.5970   -0.61700
  0.5990   -0.63300
  0.6010   -0.64800
  0.6030   -0.66200
  0.6050   -0.67400
  0.6070   -0.68500
  0.6090   -0.69400
  0.6110   -0.70200
  0.6130   -0.70800
  0.6150   -0.71400
  0.6170   -0.71700
  0.6190   -0.72000
  0.6210   -0.72100
  0.6230   -0.72100
  0.6250   -0.72000
  0.6270   -0.71700
  0.6290   -0.71400
  0.6310   -0.70900
  0.6330   -0.70300
  0.6350   -0.69700
  0.6370   -0.69000
  0.6390   -0.68100
  0.6410   -0.67200
  0.6430   -0.66200
  0.6450   -0.65100
  0.6470   -0.63900
  0.6490   -0.62700
  0.6510   -0.61400
  0.6530   -0.60100
  0.6550   -0.58700
  0.6570   -0.57300
  0.6590   -0.55800
  0.6610   -0.54200
  0.6630   -0.52700
  0.6650   -0.51100
  0.6670   -0.49400
  0.6690   -0.47800
  0.6710   -0.46200
  0.6730   -0.44500
  0.6750   -0.42800
  0.6770   -0.41000
  0.6790   -0.39300
  0.6810   -0.37600
  0.6830   -0.35800
  0.6850   -0.34100
  0.6870   -0.32300
  0.6890   -0.30600
  0.6910   -0.28800
  0.6930   -0.27100
  0.6950   -0.25300
  0.6970   -0.23600
  0.6990   -0.21900
  0.7010   -0.20200
  0.7030   -0.18500
  0.7050   -0.16800
  0.7070   -0.15100
  0.7090   -0.13400
  0.7110   -0.11800
  0.7130   -0.10200
  0.7150   -0.08600
  0.7170   -0.07000
  0.7190   -0.05500
  0.7210   -0.03900
  0.7230   -0.02400
  0.7250   -0.00900
  0.7270    0.00600
  0.7290    0.02100
  0.7310    0.03500
  0.7330    0.04900
  0.7350    0.06300
  0.7370    0.07700
  0.7390    0.09000
  0.7410    0.10300
  0.7430    0.11600
  0.7450    0.12800
  0.7470    0.14000
  0.7490    0.15200
  0.7510    0.16300
  0.7530    0.17400
  0.7550    0.18500
  0.7570    0.19500
  0.7590    0.20500
  0.7610    0.21500
  0.7630    0.22400
  0.7650    0.23300
  0.7670    0.24100
  0.7690    0.24900
  0.7710    0.25700
  0.7730    0.26400
  0.7750    0.27100
  0.7770    0.27700
  0.7790    0.28300
  0.7810    0.28800
  0.7830    0.29300
  0.7850    0.29800
  0.7870    0.30200
  0.7890    0.30500
  0.7910    0.30900
  0.7930    0.31100
  0.7950    0.31300
  0.7970    0.31500
  0.7990    0.31600
  0.8010    0.31700
  0.8030    0.31700
  0.8050    0.31700
  0.8070    0.31600
  0.8090    0.31500
  0.8110    0.31300
  0.8130    0.31100
  0.8150    0.30900
  0.8170    0.30600
  0.8190    0.30200
  0.8210    0.29900
  0.8230    0.29500
  0.8250    0.29000
  0.8270    0.28500
  0.8290    0.28000
  0.8310    0.27400
  0.8330    0.26800
  0.8350    0.26100
  0.8370    0.25500
  0.8390    0.24800
  0.8410    0.24000
  0.8430    0.23300
  0.8450    0.22500
  0.8470    0.21700
  0.8490    0.20800
  0.8510    0.20000
  0.8530    0.19100
  0.8550    0.18200
  0.8570    0.17300
  0.8590    0.16400
  0.8610    0.15500
  0.8630    0.14600
  0.8650    0.13600
  0.8670    0.12700
  0.8690    0.11700
  0.8710    0.10800
  0.8730    0.09900
  0.8750    0.09000
  0.8770    0.08000
  0.8790    0.07100
  0.8810    0.06200
  0.8830    0.05200
  0.8850    0.04400
  0.8870    0.03500
  0.8890    0.02600
  0.8910    0.01800
  0.8930    0.01000
  0.8950    0.00200
  0.8970   -0.00600
  0.8990   -0.01300
  0.9010   -0.02000
  0.9030   -0.02700
  0.9050   -0.03400
  0.9070   -0.04000
  0.9090   -0.04600
  0.9110   -0.05200
  0.9130   -0.05700
  0.9150   -0.06200
  0.9170   -0.06600
  0.9190   -0.07100
  0.9210   -0.07400
  0.9230   -0.07800
  0.9250   -0.08100
  0.9270   -0.08400
  0.9290   -0.08700
  0.9310   -0.08900
  0.9330   -0.09100
  0.9350   -0.09200
  0.9370   -0.09400
  0.9390   -0.09400
  0.9410   -0.09500
  0.9430   -0.09500
  0.9450   -0.09500
  0.9470   -0.09500
  0.9490   -0.09500
  0.9510   -0.09400
  0.9530   -0.09300
  0.9550   -0.09200
  0.9570   -0.09000
  0.9590   -0.08900
  0.9610   -0.08700
  0.9630   -0.08500
  0.9650   -0.08200
  0.9670   -0.08000
  0.9690   -0.07700
  0.9710   -0.07500
  0.9730   -0.07200
  0.9750   -0.06900
  0.9770   -0.06600
  0.9790   -0.06300
  0.9810   -0.06000
  0.9830   -0.05700
  0.9850   -0.05400
  0.9870   -0.05100
  0.9890   -0.04700
  0.9910   -0.04400
  0.9930   -0.04100
  0.9950   -0.03700
  0.9970   -0.03400
  0.9990   -0.03100
  1.0010   -0.02800
  1.0030   -0.02400
  1.0050   -0.02100
  1.0070   -0.01800
  1.0090   -0.01500
  1.0110   -0.01200
  1.0130   -0.00900
  1.0150   -0.00600
  1.0170   -0.00300
  1.0190    0.00000
  1.0210    0.00300
  1.0230    0.00500
  1.0250    0.00800
  1.0270    0.01100
  1.0290    0.01300
  1.0310    0.01600
  1.0330    0.01800
  1.0350    0.02100
  1.0370    0.02300
  1.0390    0.02500
  1.0410    0.02700
  1.0430    0.03000
  1.0450    0.03200
  1.0470    0.03400
  1.0490    0.03600
  1.0510    0.03800
  1.0530    0.04000
  1.0550    0.04200
  1.0570    0.04400
  1.0590    0.04600
  1.0610    0.04800
  1.0630    0.04900
  1.0650    0.05100
  1.0670    0.05200
  1.0690    0.05400
  1.0710    0.05500
  1.0730    0.05700
  1.0750    0.05800
  1.0770    0.05900
  1.0790    0.06000
  1.0810    0.06200
  1.0830    0.06300
  1.0850    0.06400
  1.0870    0.06400
  1.0890    0.06500
  1.0910    0.06600
  1.0930    0.06600
  1.0950    0.06700
  1.0970    0.06800
  1.0990    0.06800
  1.1010    0.06800
  1.1030    0.06800
  1.1050    0.06800
  1.1070    0.06800
  1.1090    0.06800
  1.1110    0.06800
  1.1130    0.06800
  1.1150    0.06800
  1.1170    0.06700
  1.1190    0.06700
  1.1210    0.06600
  1.1230    0.06600
  1.1250    0.06500
  1.1270    0.06500
  1.1290    0.06400
  1.1310    0.06300
  1.1330    0.06200
  1.1350    0.06200
  1.1370    0.06100
  1.1390    0.06000
  1.1410    0.05900
  1.1430    0.05800
  1.1450    0.05600
  1.1470    0.05500
  1.1490    0.05400
  1.1510    0.05300
  1.1530    0.05200
  1.1550    0.05100
  1.1570    0.05000
  1.1590    0.04900
  1.1610    0.04700
  1.1630    0.04600
  1.1650    0.04400
  1.1670    0.04300
  1.1690    0.04200
  1.1710    0.04000
  1.1730    0.03900
  1.1750    0.03700
  1.1770    0.03600
  1.1790    0.03500
  1.1810    0.03300
  1.1830    0.03200
  1.1850    0.03000
  1.1870    0.02900
  1.1890    0.02700
  1.1910    0.02600
  1.1930    0.02400
  1.1950    0.02300
  1.1970    0.02100
  1.1990    0.02000
  1.2010    0.01800
  1.2030    0.01600
  1.2050    0.01500
  1.2070    0.01400
  1.2090    0.01200
  1.2110    0.01000
  1.2130    0.00900
  1.2150    0.00700
  1.2170    0.00600
  1.2190    0.00400
  1.2210    0.00300
  1.2230    0.00200
  1.2250    0.00000
  1.2270   -0.00100
  1.2290   -0.00300
  1.2310   -0.00400
  1.2330   -0.00600
  1.2350   -0.00700
  1.2370   -0.00800
  1.2390   -0.00900
  1.2410   -0.01100
  1.2430   -0.01200
  1.2450   -0.01300
  1.2470   -0.01400
  1.2490   -0.01500
  1.2510   -0.01600
  1.2530   -0.01700
  1.2550   -0.01900
  1.2570   -0.02000
  1.2590   -0.02100
  1.2610   -0.02200
  1.2630   -0.02300
  1.2650   -0.02400
  1.2670   -0.02400
  1.2690   -0.02500
  1.2710   -0.02600
  1.2730   -0.02700
  1.2750   -0.02700
  1.2770   -0.02800
  1.2790   -0.02800
  1.2810   -0.02900
  1.2830   -0.02900
  1.2850   -0.02900
  1.2870   -0.02900
  1.2890   -0.02900
  1.2910   -0.03000
  1.2930   -0.03000
  1.2950   -0.03000
  1.2970   -0.03000
  1.2990   -0.02900
  1.3010   -0.02900
  1.3030   -0.02900
  1.3050   -0.02800
  1.3070   -0.02800
  1.3090   -0.02700
  1.3110   -0.02600
  1.3130   -0.02500
  1.3150   -0.02500
  1.3170   -0.02400
  1.3190   -0.02200
  1.3210   -0.02100
  1.3230   -0.02000
  1.3250   -0.01800
  1.3270   -0.01700
  1.3290   -0.01500
  1.3310   -0.01300
  1.3330   -0.01200
  1.3350   -0.01000
  1.3370   -0.00800
  1.3390   -0.00600
  1.3410   -0.00300
  1.3430   -0.00100
  1.3450    0.00100
  1.3470    0.00400
  1.3490    0.00600
  1.3510    0.00900
  1.3530    0.01200
  1.3550    0.01400
  1.3570    0.01700
  1.3590    0.02000
  1.3610    0.02300
  1.3630    0.02600
  1.3650    0.02900
  1.3670    0.03200
  1.3690    0.03500
  1.3710    0.03800
  1.3730    0.04100
  1.3750    0.04400
  1.3770    0.04600
  1.3790    0.04900
  1.3810    0.05100
  1.3830    0.05400
  1.3850    0.05700
  1.3870    0.05900
  1.3890    0.06100
  1.3910    0.06300
  1.3930    0.06500
  1.3950    0.06600
  1.3970    0.06800
  1.3990    0.06800
