# z (nm)   (kJ/mol)
  0.0970  -12.30800
  0.0990  -13.23000
  0.1010  -14.13800
  0.1030  -15.03000
  0.1050  -15.93000
  0.1070  -16.80300
  0.1090  -17.65400
  0.1110  -18.48600
  0.1130  -19.30300
  0.1150  -20.10300
  0.1170  -20.88100
  0.1190  -21.63200
  0.1210  -22.35900
  0.1230  -23.06500
  0.1250  -23.73900
  0.1270  -24.38400
  0.1290  -24.99600
  0.1310  -25.57400
  0.1330  -26.12200
  0.1350  -26.63900
  0.1370  -27.12200
  0.1390  -27.57100
  0.1410  -27.98400
  0.1430  -28.36100
  0.1450  -28.70400
  0.1470  -29.01100
  0.1490  -29.28100
  0.1510  -29.51600
  0.1530  -29.71500
  0.1550  -29.87700
  0.1570  -30.00500
  0.1590  -30.09800
  0.1610  -30.15700
  0.1630  -30.18100
  0.1650  -30.17300
  0.1670  -30.13200
  0.1690  -30.06100
  0.1710  -29.96100
  0.1730  -29.83200
  0.1750  -29.67800
  0.1770  -29.49800
  0.1790  -29.29100
  0.1810  -29.06200
  0.1830  -28.81300
  0.1850  -28.54600
  0.1870  -28.26000
  0.1890  -27.96000
  0.1910  -27.64800
  0.1930  -27.32400
  0.1950  -26.98900
  0.1970  -26.64700
  0.1990  -26.29800
  0.2010  -25.94300
  0.2030  -25.58400
  0.2050  -25.22500
  0.2070  -24.86500
  0.2090  -24.50800
  0.2110  -24.15300
  0.2130  -23.80200
  0.2150  -23.45500
  0.2170  -23.11400
  0.2190  -22.77900
  0.2210  -22.45100
  0.2230  -22.13200
  0.2250  -21.82100
  0.2270  -21.51900
  0.2290  -21.22600
  0.2310  -20.94200
  0.2330  -20.66900
  0.2350  -20.40500
  0.2370  -20.15100
  0.2390  -19.90700
  0.2410  -19.67200
  0.2430  -19.44700
  0.2450  -19.23100
  0.2470  -19.02500
  0.2490  -18.82700
  0.2510  -18.63700
  0.2530  -18.45600
  0.2550  -18.28200
  0.2570  -18.11400
  0.2590  -17.95300
  0.2610  -17.79800
  0.2630  -17.64700
  0.2650  -17.50300
  0.2670  -17.36200
  0.2690  -17.22700
  0.2710  -17.09400
  0.2730  -16.96400
  0.2750  -16.83700
  0.2770  -16.71200
  0.2790  -16.58900
  0.2810  -16.46700
  0.2830  -16.34700
  0.2850  -16.22700
  0.2870  -16.10700
  0.2890  -15.98700
  0.2910  -15.86600
  0.2930  -15.74400
  0.2950  -15.62100
  0.2970  -15.49700
  0.2990  -15.37200
  0.3010  -15.24400
  0.3030  -15.11500
  0.3050  -14.98500
  0.3070  -14.85200
  0.3090  -14.71700
  0.3110  -14.58100
  0.3130  -14.44300
  0.3150  -14.30200
  0.3170  -14.16000
  0.3190  -14.01600
  0.3210  -13.87000
  0.3230  -13.72300
  0.3250  -13.57300
  0.3270  -13.42300
  0.3290  -13.27100
  0.3310  -13.11800
  0.3330  -12.96300
  0.3350  -12.80700
  0.3370  -12.65000
  0.3390  -12.49200
  0.3410  -12.33300
  0.3430  -12.17400
  0.3450  -12.01400
  0.3470  -11.85300
  0.3490  -11.69300
  0.3510  -11.53200
  0.3530  -11.37000
  0.3550  -11.20900
  0.3570  -11.04700
  0.3590  -10.88600
  0.3610  -10.72500
  0.3630  -10.56400
  0.3650  -10.40400
  0.3670  -10.24400
  0.3690  -10.08500
  0.3710   -9.92600
  0.3730   -9.76800
  0.3750   -9.61100
  0.3770   -9.45400
  0.3790   -9.29800
  0.3810   -9.14400
  0.3830   -8.99000
  0.3850   -8.83800
  0.3870   -8.68500
  0.3890   -8.53400
  0.3910   -8.38500
  0.3930   -8.23600
  0.3950   -8.08800
  0.3970   -7.94000
  0.3990   -7.79400
  0.4010   -7.64900
  0.4030   -7.50500
  0.4050   -7.36200
  0.4070   -7.22000
  0.4090   -7.08000
  0.4110   -6.94100
  0.4130   -6.80300
  0.4150   -6.66600
  0.4170   -6.53000
  0.4190   -6.39500
  0.4210   -6.26100
  0.4230   -6.12800
  0.4250   -5.99600
  0.4270   -5.86700
  0.4290   -5.74000
  0.4310   -5.61300
  0.4330   -5.48700
  0.4350   -5.36400
  0.4370   -5.24100
  0.4390   -5.11900
  0.4410   -4.99700
  0.4430   -4.87800
  0.4450   -4.75900
  0.4470   -4.64200
  0.4490   -4.52700
  0.4510   -4.41200
  0.4530   -4.29900
  0.4550   -4.18800
  0.4570   -4.07800
  0.4590   -3.97000
  0.4610   -3.86200
  0.4630   -3.75700
  0.4650   -3.65300
  0.4670   -3.55100
  0.4690   -3.45200
  0.4710   -3.35400
  0.4730   -3.25900
  0.4750   -3.16400
  0.4770   -3.07100
  0.4790   -2.98000
  0.4810   -2.89200
  0.4830   -2.80400
  0.4850   -2.71900
  0.4870   -2.63700
  0.4890   -2.55700
  0.4910   -2.47800
  0.4930   -2.40200
  0.4950   -2.32900
  0.4970   -2.25700
  0.4990   -2.18800
  0.5010   -2.12000
  0.5030   -2.05500
  0.5050   -1.99200
  0.5070   -1.93100
  0.5090   -1.87300
  0.5110   -1.81700
  0.5130   -1.76200
  0.5150   -1.71100
  0.5170   -1.66100
  0.5190   -1.61300
  0.5210   -1.56800
  0.5230   -1.52400
  0.5250   -1.48300
  0.5270   -1.44500
  0.5290   -1.40800
  0.5310   -1.37400
  0.5330   -1.34100
  0.5350   -1.31100
  0.5370   -1.28300
  0.5390   -1.25700
  0.5410   -1.23200
  0.5430   -1.21000
  0.5450   -1.19000
  0.5470   -1.17100
  0.5490   -1.15400
  0.5510   -1.13900
  0.5530   -1.12500
  0.5550   -1.11300
  0.5570   -1.10300
  0.5590   -1.09400
  0.5610   -1.08600
  0.5630   -1.08000
  0.5650   -1.07500
  0.5670   -1.07100
  0.5690   -1.06800
  0.5710   -1.06600
  0.5730   -1.06500
  0.5750   -1.06600
  0.5770   -1.06700
  0.5790   -1.06900
  0.5810   -1.07200
  0.5830   -1.07500
  0.5850   -1.08000
  0.5870   -1.08400
  0.5890   -1.08900
  0.5910   -1.09400
  0.5930   -1.10000
  0.5950   -1.10600
  0.5970   -1.11200
  0.5990   -1.11800
  0.6010   -1.12500
  0.6030   -1.13100
  0.6050   -1.13700
  0.6070   -1.14300
  0.6090   -1.15000
  0.6110   -1.15600
  0.6130   -1.16100
  0.6150   -1.16700
  0.6170   -1.17200
  0.6190   -1.17700
  0.6210   -1.18200
  0.6230   -1.18700
  0.6250   -1.19100
  0.6270   -1.19400
  0.6290   -1.19800
  0.6310   -1.20100
  0.6330   -1.20300
  0.6350   -1.20500
  0.6370   -1.20700
  0.6390   -1.20700
  0.6410   -1.20800
  0.6430   -1.20800
  0.6450   -1.20700
  0.6470   -1.20700
  0.6490   -1.20500
  0.6510   -1.20300
  0.6530   -1.20000
  0.6550   -1.19700
  0.6570   -1.19400
  0.6590   -1.19000
  0.6610   -1.18500
  0.6630   -1.18000
  0.6650   -1.17400
  0.6670   -1.16800
  0.6690   -1.16200
  0.6710   -1.15500
  0.6730   -1.14700
  0.6750   -1.14000
  0.6770   -1.13200
  0.6790   -1.12300
  0.6810   -1.11400
  0.6830   -1.10400
  0.6850   -1.09400
  0.6870   -1.08400
  0.6890   -1.07400
  0.6910   -1.06300
  0.6930   -1.05200
  0.6950   -1.04100
  0.6970   -1.02900
  0.6990   -1.01700
  0.7010   -1.00500
  0.7030   -0.99200
  0.7050   -0.97900
  0.7070   -0.96600
  0.7090   -0.95300
  0.7110   -0.93900
  0.7130   -0.92500
  0.7150   -0.91100
  0.7170   -0.89700
  0.7190   -0.88300
  0.7210   -0.86800
  0.7230   -0.85400
  0.7250   -0.83900
  0.7270   -0.82400
  0.7290   -0.80900
  0.7310   -0.79400
  0.7330   -0.77900
  0.7350   -0.76400
  0.7370   -0.74900
  0.7390   -0.73300
  0.7410   -0.71800
  0.7430   -0.70300
  0.7450   -0.68700
  0.7470   -0.67100
  0.7490   -0.65600
  0.7510   -0.64100
  0.7530   -0.62600
  0.7550   -0.61100
  0.7570   -0.59500
  0.7590   -0.58000
  0.7610   -0.56500
  0.7630   -0.55100
  0.7650   -0.53600
  0.7670   -0.52100
  0.7690   -0.50700
  0.7710   -0.49300
  0.7730   -0.47900
  0.7750   -0.46500
  0.7770   -0.45200
  0.7790   -0.43900
  0.7810   -0.42600
  0.7830   -0.41300
  0.7850   -0.40000
  0.7870   -0.38700
  0.7890   -0.37500
  0.7910   -0.36300
  0.7930   -0.35100
  0.7950   -0.33900
  0.7970   -0.32800
  0.7990   -0.31700
  0.8010   -0.30600
  0.8030   -0.29600
  0.8050   -0.28500
  0.8070   -0.27500
  0.8090   -0.26500
  0.8110   -0.25500
  0.8130   -0.24600
  0.8150   -0.23700
  0.8170   -0.22800
  0.8190   -0.21900
  0.8210   -0.21100
  0.8230   -0.20300
  0.8250   -0.19600
  0.8270   -0.18800
  0.8290   -0.18100
  0.8310   -0.17400
  0.8330   -0.16800
  0.8350   -0.16100
  0.8370   -0.15500
  0.8390   -0.15000
  0.8410   -0.14400
  0.8430   -0.13900
  0.8450   -0.13400
  0.8470   -0.12900
  0.8490   -0.12500
  0.8510   -0.12100
  0.8530   -0.11700
  0.8550   -0.11300
  0.8570   -0.11000
  0.8590   -0.10700
  0.8610   -0.10400
  0.8630   -0.10100
  0.8650   -0.09900
  0.8670   -0.09700
  0.8690   -0.09500
  0.8710   -0.09400
  0.8730   -0.09300
  0.8750   -0.09200
  0.8770   -0.09100
  0.8790   -0.09100
  0.8810   -0.09100
  0.8830   -0.09100
  0.8850   -0.09100
  0.8870   -0.09200
  0.8890   -0.09300
  0.8910   -0.09300
  0.8930   -0.09400
  0.8950   -0.09600
  0.8970   -0.09700
  0.8990   -0.09800
  0.9010   -0.10000
  0.9030   -0.10200
  0.9050   -0.10300
  0.9070   -0.10500
  0.9090   -0.10700
  0.9110   -0.11000
  0.9130   -0.11200
  0.9150   -0.11400
  0.9170   -0.11700
  0.9190   -0.11900
  0.9210   -0.12200
  0.9230   -0.12400
  0.9250   -0.12700
  0.9270   -0.13000
  0.9290   -0.13200
  0.9310   -0.13500
  0.9330   -0.13700
  0.9350   -0.14000
  0.9370   -0.14200
  0.9390   -0.14400
  0.9410   -0.14600
  0.9430   -0.14900
  0.9450   -0.15100
  0.9470   -0.15300
  0.9490   -0.15400
  0.9510   -0.15600
  0.9530   -0.15800
  0.9550   -0.15900
  0.9570   -0.16000
  0.9590   -0.16100
  0.9610   -0.16200
  0.9630   -0.16300
  0.9650   -0.16400
  0.9670   -0.16500
  0.9690   -0.16500
  0.9710   -0.16500
  0.9730   -0.16500
  0.9750   -0.16500
  0.9770   -0.16500
  0.9790   -0.16500
  0.9810   -0.16400
  0.9830   -0.16400
  0.9850   -0.16300
  0.9870   -0.16200
  0.9890   -0.16100
  0.9910   -0.16000
  0.9930   -0.15800
  0.9950   -0.15700
  0.9970   -0.15500
  0.9990   -0.15300
  1.0010   -0.15200
  1.0030   -0.15000
  1.0050   -0.14700
  1.0070   -0.14500
  1.0090   -0.14300
  1.0110   -0.14000
  1.0130   -0.13800
  1.0150   -0.13500
  1.0170   -0.13300
  1.0190   -0.13000
  1.0210   -0.12700
  1.0230   -0.12400
  1.0250   -0.12100
  1.0270   -0.11800
  1.0290   -0.11500
  1.0310   -0.11200
  1.0330   -0.10800
  1.0350   -0.10500
  1.0370   -0.10200
  1.0390   -0.09800
  1.0410   -0.09500
  1.0430   -0.09100
  1.0450   -0.08800
  1.0470   -0.08400
  1.0490   -0.08100
  1.0510   -0.07700
  1.0530   -0.07400
  1.0550   -0.07100
  1.0570   -0.06700
  1.0590   -0.06400
  1.0610   -0.06100
  1.0630   -0.05800
  1.0650   -0.05500
  1.0670   -0.05200
  1.0690   -0.04800
  1.0710   -0.04600
  1.0730   -0.04300
  1.0750   -0.04000
  1.0770   -0.03700
  1.0790   -0.03400
  1.0810   -0.03100
  1.0830   -0.02900
  1.0850   -0.02600
  1.0870   -0.02400
  1.0890   -0.02100
  1.0910   -0.01900
  1.0930   -0.01700
  1.0950   -0.01500
  1.0970   -0.01300
  1.0990   -0.01100
  1.1010   -0.00900
  1.1030   -0.00700
  1.1050   -0.00500
  1.1070   -0.00300
  1.1090   -0.00200
  1.1110    0.00000
  1.1130    0.00100
  1.1150    0.00300
  1.1170    0.00400
  1.1190    0.00600
  1.1210    0.00700
  1.1230    0.00900
  1.1250    0.01000
  1.1270    0.01100
  1.1290    0.01200
  1.1310    0.01400
  1.1330    0.01500
  1.1350    0.01600
  1.1370    0.01700
  1.1390    0.01800
  1.1410    0.02000
  1.1430    0.02100
  1.1450    0.02200
  1.1470    0.02300
  1.1490    0.02400
  1.1510    0.02500
  1.1530    0.02600
  1.1550    0.02800
  1.1570    0.02900
  1.1590    0.03000
  1.1610    0.03100
  1.1630    0.03200
  1.1650    0.03300
  1.1670    0.03400
  1.1690    0.03500
  1.1710    0.03600
  1.1730    0.03700
  1.1750    0.03800
  1.1770    0.03900
  1.1790    0.03900
  1.1810    0.04000
  1.1830    0.04100
  1.1850    0.04100
  1.1870    0.04200
  1.1890    0.04300
  1.1910    0.04300
  1.1930    0.04300
  1.1950    0.04400
  1.1970    0.04400
  1.1990    0.04400
  1.2010    0.04400
  1.2030    0.04300
  1.2050    0.04300
  1.2070    0.04300
  1.2090    0.04200
  1.2110    0.04200
  1.2130    0.04100
  1.2150    0.04000
  1.2170    0.03900
  1.2190    0.03800
  1.2210    0.03700
  1.2230    0.03600
  1.2250    0.03500
  1.2270    0.03400
  1.2290    0.03200
  1.2310    0.03100
  1.2330    0.03000
  1.2350    0.02800
  1.2370    0.02700
  1.2390    0.02500
  1.2410    0.02400
  1.2430    0.02200
  1.2450    0.02000
  1.2470    0.01900
  1.2490    0.01700
  1.2510    0.01500
  1.2530    0.01400
  1.2550    0.01200
  1.2570    0.01100
  1.2590    0.00900
  1.2610    0.00800
  1.2630    0.00600
  1.2650    0.00500
  1.2670    0.00300
  1.2690    0.00200
  1.2710    0.00000
  1.2730   -0.00100
  1.2750   -0.00200
  1.2770   -0.00400
  1.2790   -0.00500
  1.2810   -0.00600
  1.2830   -0.00700
  1.2850   -0.00800
  1.2870   -0.00900
  1.2890   -0.01000
  1.2910   -0.01100
  1.2930   -0.01200
  1.2950   -0.01300
  1.2970   -0.01400
  1.2990   -0.01400
  1.3010   -0.01500
  1.3030   -0.01500
  1.3050   -0.01600
  1.3070   -0.01700
  1.3090   -0.01700
  1.3110   -0.01800
  1.3130   -0.01800
  1.3150   -0.01900
  1.3170   -0.01900
  1.3190   -0.02000
  1.3210   -0.02000
  1.3230   -0.02000
  1.3250   -0.02100
  1.3270   -0.02100
  1.3290   -0.02100
  1.3310   -0.02200
  1.3330   -0.02200
  1.3350   -0.02200
  1.3370   -0.02200
  1.3390   -0.02200
  1.3410   -0.02200
  1.3430   -0.02100
  1.3450   -0.02100
  1.3470   -0.02100
  1.3490   -0.02100
  1.3510   -0.02000
  1.3530   -0.02000
  1.3550   -0.02000
  1.3570   -0.01900
  1.3590   -0.01900
  1.3610   -0.01800
  1.3630   -0.01700
  1.3650   -0.01700
  1.3670   -0.01600
  1.3690   -0.01500
  1.3710   -0.01500
  1.3730   -0.01400
  1.3750   -0.01300
  1.3770   -0.01200
  1.3790   -0.01200
  1.3810   -0.01100
  1.3830   -0.01100
  1.3850   -0.01000
  1.3870   -0.00900
  1.3890   -0.00900
  1.3910   -0.00800
  1.3930   -0.00800
  1.3950   -0.00800
  1.3970   -0.00800
  1.3990   -0.00900
