# z (nm)   (kJ/mol)
  0.0390    6.13800
  0.0410    5.64900
  0.0430    5.15600
  0.0450    4.69800
  0.0470    4.23900
  0.0490    3.74700
  0.0510    3.26100
  0.0530    2.78700
  0.0550    2.30800
  0.0570    1.83000
  0.0590    1.36200
  0.0610    0.90200
  0.0630    0.44300
  0.0650   -0.01200
  0.0670   -0.45700
  0.0690   -0.89800
  0.0710   -1.33200
  0.0730   -1.75600
  0.0750   -2.17200
  0.0770   -2.58000
  0.0790   -2.97600
  0.0810   -3.36000
  0.0830   -3.73600
  0.0850   -4.10300
  0.0870   -4.46000
  0.0890   -4.80700
  0.0910   -5.14200
  0.0930   -5.46400
  0.0950   -5.77600
  0.0970   -6.07500
  0.0990   -6.36100
  0.1010   -6.63900
  0.1030   -6.90600
  0.1050   -7.16000
  0.1070   -7.40200
  0.1090   -7.63400
  0.1110   -7.85500
  0.1130   -8.06300
  0.1150   -8.25900
  0.1170   -8.44400
  0.1190   -8.61800
  0.1210   -8.78000
  0.1230   -8.93100
  0.1250   -9.06900
  0.1270   -9.19600
  0.1290   -9.31300
  0.1310   -9.42000
  0.1330   -9.51400
  0.1350   -9.59800
  0.1370   -9.67200
  0.1390   -9.73800
  0.1410   -9.79500
  0.1430   -9.84000
  0.1450   -9.87600
  0.1470   -9.90600
  0.1490   -9.92600
  0.1510   -9.93800
  0.1530   -9.94300
  0.1550   -9.94100
  0.1570   -9.93200
  0.1590   -9.91600
  0.1610   -9.89200
  0.1630   -9.86400
  0.1650   -9.83100
  0.1670   -9.79100
  0.1690   -9.74700
  0.1710   -9.69800
  0.1730   -9.64600
  0.1750   -9.59100
  0.1770   -9.53300
  0.1790   -9.47000
  0.1810   -9.40300
  0.1830   -9.33400
  0.1850   -9.26200
  0.1870   -9.18800
  0.1890   -9.11200
  0.1910   -9.03400
  0.1930   -8.95300
  0.1950   -8.87200
  0.1970   -8.78800
  0.1990   -8.70300
  0.2010   -8.61700
  0.2030   -8.53000
  0.2050   -8.44100
  0.2070   -8.35200
  0.2090   -8.26100
  0.2110   -8.17000
  0.2130   -8.07800
  0.2150   -7.98500
  0.2170   -7.89100
  0.2190   -7.79700
  0.2210   -7.70300
  0.2230   -7.60800
  0.2250   -7.51300
  0.2270   -7.41700
  0.2290   -7.32100
  0.2310   -7.22400
  0.2330   -7.12700
  0.2350   -7.03000
  0.2370   -6.93200
  0.2390   -6.83500
  0.2410   -6.73700
  0.2430   -6.63900
  0.2450   -6.54100
  0.2470   -6.44300
  0.2490   -6.34500
  0.2510   -6.24700
  0.2530   -6.14900
  0.2550   -6.05100
  0.2570   -5.95300
  0.2590   -5.85500
  0.2610   -5.75800
  0.2630   -5.66100
  0.2650   -5.56400
  0.2670   -5.46700
  0.2690   -5.37100
  0.2710   -5.27500
  0.2730   -5.18100
  0.2750   -5.08600
  0.2770   -4.99200
  0.2790   -4.89900
  0.2810   -4.80600
  0.2830   -4.71300
  0.2850   -4.62200
  0.2870   -4.53000
  0.2890   -4.44000
  0.2910   -4.35000
  0.2930   -4.26100
  0.2950   -4.17300
  0.2970   -4.08600
  0.2990   -3.99900
  0.3010   -3.91200
  0.3030   -3.82700
  0.3050   -3.74200
  0.3070   -3.65700
  0.3090   -3.57300
  0.3110   -3.49000
  0.3130   -3.40800
  0.3150   -3.32600
  0.3170   -3.24400
  0.3190   -3.16300
  0.3210   -3.08300
  0.3230   -3.00400
  0.3250   -2.92500
  0.3270   -2.84600
  0.3290   -2.76800
  0.3310   -2.69100
  0.3330   -2.61400
  0.3350   -2.53700
  0.3370   -2.46100
  0.3390   -2.38600
  0.3410   -2.31200
  0.3430   -2.23800
  0.3450   -2.16400
  0.3470   -2.09100
  0.3490   -2.01900
  0.3510   -1.94700
  0.3530   -1.87600
  0.3550   -1.80600
  0.3570   -1.73600
  0.3590   -1.66700
  0.3610   -1.60000
  0.3630   -1.53300
  0.3650   -1.46700
  0.3670   -1.40200
  0.3690   -1.33800
  0.3710   -1.27500
  0.3730   -1.21300
  0.3750   -1.15200
  0.3770   -1.09300
  0.3790   -1.03500
  0.3810   -0.97800
  0.3830   -0.92300
  0.3850   -0.86900
  0.3870   -0.81700
  0.3890   -0.76600
  0.3910   -0.71700
  0.3930   -0.67000
  0.3950   -0.62500
  0.3970   -0.58100
  0.3990   -0.54000
  0.4010   -0.50000
  0.4030   -0.46200
  0.4050   -0.42700
  0.4070   -0.39300
  0.4090   -0.36200
  0.4110   -0.33200
  0.4130   -0.30500
  0.4150   -0.28000
  0.4170   -0.25700
  0.4190   -0.23700
  0.4210   -0.21800
  0.4230   -0.20200
  0.4250   -0.18800
  0.4270   -0.17600
  0.4290   -0.16600
  0.4310   -0.15800
  0.4330   -0.15300
  0.4350   -0.14900
  0.4370   -0.14800
  0.4390   -0.14800
  0.4410   -0.15000
  0.4430   -0.15500
  0.4450   -0.16100
  0.4470   -0.16800
  0.4490   -0.17700
  0.4510   -0.18700
  0.4530   -0.19900
  0.4550   -0.21300
  0.4570   -0.22700
  0.4590   -0.24300
  0.4610   -0.26000
  0.4630   -0.27800
  0.4650   -0.29700
  0.4670   -0.31700
  0.4690   -0.33700
  0.4710   -0.35800
  0.4730   -0.38000
  0.4750   -0.40100
  0.4770   -0.42400
  0.4790   -0.44600
  0.4810   -0.46800
  0.4830   -0.49100
  0.4850   -0.51400
  0.4870   -0.53600
  0.4890   -0.55900
  0.4910   -0.58100
  0.4930   -0.60400
  0.4950   -0.62500
  0.4970   -0.64700
  0.4990   -0.66800
  0.5010   -0.68900
  0.5030   -0.70800
  0.5050   -0.72700
  0.5070   -0.74600
  0.5090   -0.76300
  0.5110   -0.78000
  0.5130   -0.79600
  0.5150   -0.81100
  0.5170   -0.82500
  0.5190   -0.83800
  0.5210   -0.85100
  0.5230   -0.86300
  0.5250   -0.87300
  0.5270   -0.88300
  0.5290   -0.89200
  0.5310   -0.90000
  0.5330   -0.90700
  0.5350   -0.91400
  0.5370   -0.91900
  0.5390   -0.92400
  0.5410   -0.92700
  0.5430   -0.93000
  0.5450   -0.93200
  0.5470   -0.93300
  0.5490   -0.93300
  0.5510   -0.93200
  0.5530   -0.93000
  0.5550   -0.92800
  0.5570   -0.92500
  0.5590   -0.92100
  0.5610   -0.91700
  0.5630   -0.91200
  0.5650   -0.90600
  0.5670   -0.90000
  0.5690   -0.89300
  0.5710   -0.88500
  0.5730   -0.87700
  0.5750   -0.86800
  0.5770   -0.85900
  0.5790   -0.84900
  0.5810   -0.83900
  0.5830   -0.82900
  0.5850   -0.81800
  0.5870   -0.80600
  0.5890   -0.79400
  0.5910   -0.78200
  0.5930   -0.76900
  0.5950   -0.75600
  0.5970   -0.74300
  0.5990   -0.72900
  0.6010   -0.71600
  0.6030   -0.70100
  0.6050   -0.68700
  0.6070   -0.67200
  0.6090   -0.65700
  0.6110   -0.64200
  0.6130   -0.62700
  0.6150   -0.61100
  0.6170   -0.59600
  0.6190   -0.58000
  0.6210   -0.56400
  0.6230   -0.54900
  0.6250   -0.53300
  0.6270   -0.51700
  0.6290   -0.50100
  0.6310   -0.48500
  0.6330   -0.46900
  0.6350   -0.45300
  0.6370   -0.43600
  0.6390   -0.42000
  0.6410   -0.40400
  0.6430   -0.38900
  0.6450   -0.37300
  0.6470   -0.35800
  0.6490   -0.34200
  0.6510   -0.32700
  0.6530   -0.31200
  0.6550   -0.29700
  0.6570   -0.28200
  0.6590   -0.26800
  0.6610   -0.25300
  0.6630   -0.23900
  0.6650   -0.22500
  0.6670   -0.21200
  0.6690   -0.19900
  0.6710   -0.18600
  0.6730   -0.17300
  0.6750   -0.16100
  0.6770   -0.14900
  0.6790   -0.13700
  0.6810   -0.12500
  0.6830   -0.11400
  0.6850   -0.10300
  0.6870   -0.09300
  0.6890   -0.08300
  0.6910   -0.07300
  0.6930   -0.06400
  0.6950   -0.05500
  0.6970   -0.04600
  0.6990   -0.03800
  0.7010   -0.03000
  0.7030   -0.02200
  0.7050   -0.01500
  0.7070   -0.00800
  0.7090   -0.00200
  0.7110    0.00400
  0.7130    0.01000
  0.7150    0.01500
  0.7170    0.02000
  0.7190    0.02500
  0.7210    0.02900
  0.7230    0.03300
  0.7250    0.03700
  0.7270    0.04000
  0.7290    0.04300
  0.7310    0.04500
  0.7330    0.04700
  0.7350    0.04900
  0.7370    0.05000
  0.7390    0.05100
  0.7410    0.05200
  0.7430    0.05200
  0.7450    0.05200
  0.7470    0.05200
  0.7490    0.05100
  0.7510    0.05000
  0.7530    0.04900
  0.7550    0.04800
  0.7570    0.04600
  0.7590    0.04400
  0.7610    0.04200
  0.7630    0.03900
  0.7650    0.03600
  0.7670    0.03300
  0.7690    0.02900
  0.7710    0.02500
  0.7730    0.02200
  0.7750    0.01800
  0.7770    0.01300
  0.7790    0.00800
  0.7810    0.00400
  0.7830   -0.00100
  0.7850   -0.00600
  0.7870   -0.01100
  0.7890   -0.01700
  0.7910   -0.02200
  0.7930   -0.02800
  0.7950   -0.03400
  0.7970   -0.04000
  0.7990   -0.04600
  0.8010   -0.05100
  0.8030   -0.05700
  0.8050   -0.06300
  0.8070   -0.06900
  0.8090   -0.07400
  0.8110   -0.08000
  0.8130   -0.08500
  0.8150   -0.09100
  0.8170   -0.09600
  0.8190   -0.10100
  0.8210   -0.10600
  0.8230   -0.11100
  0.8250   -0.11600
  0.8270   -0.12000
  0.8290   -0.12500
  0.8310   -0.12900
  0.8330   -0.13300
  0.8350   -0.13700
  0.8370   -0.14100
  0.8390   -0.14400
  0.8410   -0.14800
  0.8430   -0.15100
  0.8450   -0.15400
  0.8470   -0.15600
  0.8490   -0.15900
  0.8510   -0.16100
  0.8530   -0.16300
  0.8550   -0.16500
  0.8570   -0.16700
  0.8590   -0.16800
  0.8610   -0.17000
  0.8630   -0.17100
  0.8650   -0.17200
  0.8670   -0.17200
  0.8690   -0.17300
  0.8710   -0.17300
  0.8730   -0.17300
  0.8750   -0.17400
  0.8770   -0.17300
  0.8790   -0.17300
  0.8810   -0.17300
  0.8830   -0.17300
  0.8850   -0.17200
  0.8870   -0.17100
  0.8890   -0.17100
  0.8910   -0.17000
  0.8930   -0.16900
  0.8950   -0.16800
  0.8970   -0.16700
  0.8990   -0.16500
  0.9010   -0.16400
  0.9030   -0.16300
  0.9050   -0.16100
  0.9070   -0.16000
  0.9090   -0.15800
  0.9110   -0.15700
  0.9130   -0.15500
  0.9150   -0.15300
  0.9170   -0.15100
  0.9190   -0.14900
  0.9210   -0.14700
  0.9230   -0.14500
  0.9250   -0.14300
  0.9270   -0.14100
  0.9290   -0.13900
  0.9310   -0.13700
  0.9330   -0.13500
  0.9350   -0.13300
  0.9370   -0.13100
  0.9390   -0.12800
  0.9410   -0.12600
  0.9430   -0.12300
  0.9450   -0.12100
  0.9470   -0.11800
  0.9490   -0.11600
  0.9510   -0.11300
  0.9530   -0.11100
  0.9550   -0.10800
  0.9570   -0.10500
  0.9590   -0.10300
  0.9610   -0.10000
  0.9630   -0.09700
  0.9650   -0.09500
  0.9670   -0.09200
  0.9690   -0.08900
  0.9710   -0.08700
  0.9730   -0.08400
  0.9750   -0.08100
  0.9770   -0.07900
  0.9790   -0.07700
  0.9810   -0.07400
  0.9830   -0.07100
  0.9850   -0.06900
  0.9870   -0.06700
  0.9890   -0.06500
  0.9910   -0.06300
  0.9930   -0.06100
  0.9950   -0.05900
  0.9970   -0.05700
  0.9990   -0.05500
  1.0010   -0.05400
  1.0030   -0.05200
  1.0050   -0.05100
  1.0070   -0.05000
  1.0090   -0.04900
  1.0110   -0.04800
  1.0130   -0.04700
  1.0150   -0.04600
  1.0170   -0.04600
  1.0190   -0.04500
  1.0210   -0.04500
  1.0230   -0.04500
  1.0250   -0.04500
  1.0270   -0.04500
  1.0290   -0.04500
  1.0310   -0.04500
  1.0330   -0.04600
  1.0350   -0.04700
  1.0370   -0.04700
  1.0390   -0.04800
  1.0410   -0.04900
  1.0430   -0.04900
  1.0450   -0.05000
  1.0470   -0.05200
  1.0490   -0.05300
  1.0510   -0.05400
  1.0530   -0.05500
  1.0550   -0.05600
  1.0570   -0.05700
  1.0590   -0.05900
  1.0610   -0.06000
  1.0630   -0.06200
  1.0650   -0.06300
  1.0670   -0.06400
  1.0690   -0.06600
  1.0710   -0.06700
  1.0730   -0.06800
  1.0750   -0.07000
  1.0770   -0.07100
  1.0790   -0.07200
  1.0810   -0.07400
  1.0830   -0.07500
  1.0850   -0.07600
  1.0870   -0.07800
  1.0890   -0.07900
  1.0910   -0.08000
  1.0930   -0.08100
  1.0950   -0.08300
  1.0970   -0.08400
  1.0990   -0.08500
  1.1010   -0.08600
  1.1030   -0.08700
  1.1050   -0.08900
  1.1070   -0.09000
  1.1090   -0.09100
  1.1110   -0.09200
  1.1130   -0.09300
  1.1150   -0.09400
  1.1170   -0.09500
  1.1190   -0.09600
  1.1210   -0.09700
  1.1230   -0.09800
  1.1250   -0.09900
  1.1270   -0.10000
  1.1290   -0.10100
  1.1310   -0.10200
  1.1330   -0.10300
  1.1350   -0.10400
  1.1370   -0.10400
  1.1390   -0.10500
  1.1410   -0.10600
  1.1430   -0.10600
  1.1450   -0.10700
  1.1470   -0.10800
  1.1490   -0.10800
  1.1510   -0.10900
  1.1530   -0.10900
  1.1550   -0.10900
  1.1570   -0.10900
  1.1590   -0.11000
  1.1610   -0.11000
  1.1630   -0.10900
  1.1650   -0.10900
  1.1670   -0.10900
  1.1690   -0.10800
  1.1710   -0.10800
  1.1730   -0.10700
  1.1750   -0.10700
  1.1770   -0.10600
  1.1790   -0.10500
  1.1810   -0.10400
  1.1830   -0.10200
  1.1850   -0.10100
  1.1870   -0.10000
  1.1890   -0.09800
  1.1910   -0.09700
  1.1930   -0.09500
  1.1950   -0.09300
  1.1970   -0.09100
  1.1990   -0.08900
  1.2010   -0.08700
  1.2030   -0.08500
  1.2050   -0.08300
  1.2070   -0.08000
  1.2090   -0.07800
  1.2110   -0.07600
  1.2130   -0.07300
  1.2150   -0.07000
  1.2170   -0.06800
  1.2190   -0.06500
  1.2210   -0.06200
  1.2230   -0.05900
  1.2250   -0.05700
  1.2270   -0.05400
  1.2290   -0.05100
  1.2310   -0.04900
  1.2330   -0.04600
  1.2350   -0.04400
  1.2370   -0.04100
  1.2390   -0.03900
  1.2410   -0.03600
  1.2430   -0.03400
  1.2450   -0.03200
  1.2470   -0.02900
  1.2490   -0.02700
  1.2510   -0.02500
  1.2530   -0.02300
  1.2550   -0.02100
  1.2570   -0.02000
  1.2590   -0.01800
  1.2610   -0.01600
  1.2630   -0.01500
  1.2650   -0.01300
  1.2670   -0.01200
  1.2690   -0.01000
  1.2710   -0.00900
  1.2730   -0.00800
  1.2750   -0.00700
  1.2770   -0.00600
  1.2790   -0.00500
  1.2810   -0.00400
  1.2830   -0.00300
  1.2850   -0.00200
  1.2870   -0.00100
  1.2890    0.00000
  1.2910    0.00100
  1.2930    0.00100
  1.2950    0.00200
  1.2970    0.00300
  1.2990    0.00400
  1.3010    0.00400
  1.3030    0.00500
  1.3050    0.00600
  1.3070    0.00600
  1.3090    0.00700
  1.3110    0.00800
  1.3130    0.00900
  1.3150    0.00900
  1.3170    0.01000
  1.3190    0.01100
  1.3210    0.01200
  1.3230    0.01300
  1.3250    0.01400
  1.3270    0.01500
  1.3290    0.01600
  1.3310    0.01700
  1.3330    0.01800
  1.3350    0.01900
  1.3370    0.02000
  1.3390    0.02200
  1.3410    0.02400
  1.3430    0.02500
  1.3450    0.02700
  1.3470    0.02900
  1.3490    0.03000
  1.3510    0.03200
  1.3530    0.03400
  1.3550    0.03600
  1.3570    0.03800
  1.3590    0.04000
  1.3610    0.04200
  1.3630    0.04300
  1.3650    0.04500
  1.3670    0.04700
  1.3690    0.05000
  1.3710    0.05200
  1.3730    0.05300
  1.3750    0.05500
  1.3770    0.05700
  1.3790    0.05800
  1.3810    0.06000
  1.3830    0.06200
  1.3850    0.06300
  1.3870    0.06500
  1.3890    0.06600
  1.3910    0.06700
  1.3930    0.06800
  1.3950    0.06800
  1.3970    0.06800
  1.3990    0.06700
