# z (nm)   (kJ/mol)
  0.0670    5.46600
  0.0690    4.89500
  0.0710    4.33100
  0.0730    3.75700
  0.0750    3.16700
  0.0770    2.58300
  0.0790    1.98600
  0.0810    1.38500
  0.0830    0.79000
  0.0850    0.20800
  0.0870   -0.37500
  0.0890   -0.96300
  0.0910   -1.54500
  0.0930   -2.11700
  0.0950   -2.68100
  0.0970   -3.24100
  0.0990   -3.79100
  0.1010   -4.33100
  0.1030   -4.86700
  0.1050   -5.39200
  0.1070   -5.90200
  0.1090   -6.40000
  0.1110   -6.88300
  0.1130   -7.35400
  0.1150   -7.81300
  0.1170   -8.25600
  0.1190   -8.67900
  0.1210   -9.08700
  0.1230   -9.48100
  0.1250   -9.86400
  0.1270  -10.23000
  0.1290  -10.58000
  0.1310  -10.91200
  0.1330  -11.22600
  0.1350  -11.52300
  0.1370  -11.80200
  0.1390  -12.06600
  0.1410  -12.31100
  0.1430  -12.54100
  0.1450  -12.75200
  0.1470  -12.94500
  0.1490  -13.12100
  0.1510  -13.28200
  0.1530  -13.42700
  0.1550  -13.55400
  0.1570  -13.66600
  0.1590  -13.76100
  0.1610  -13.84100
  0.1630  -13.90700
  0.1650  -13.95600
  0.1670  -13.99000
  0.1690  -14.01200
  0.1710  -14.02100
  0.1730  -14.01600
  0.1750  -14.00000
  0.1770  -13.97300
  0.1790  -13.93400
  0.1810  -13.88500
  0.1830  -13.82400
  0.1850  -13.75600
  0.1870  -13.68000
  0.1890  -13.59600
  0.1910  -13.50600
  0.1930  -13.41000
  0.1950  -13.30700
  0.1970  -13.19900
  0.1990  -13.08600
  0.2010  -12.96600
  0.2030  -12.84300
  0.2050  -12.71900
  0.2070  -12.59200
  0.2090  -12.46400
  0.2110  -12.33300
  0.2130  -12.20100
  0.2150  -12.06800
  0.2170  -11.93400
  0.2190  -11.80000
  0.2210  -11.66400
  0.2230  -11.53000
  0.2250  -11.39500
  0.2270  -11.26100
  0.2290  -11.12800
  0.2310  -10.99400
  0.2330  -10.86200
  0.2350  -10.73100
  0.2370  -10.60000
  0.2390  -10.47100
  0.2410  -10.34200
  0.2430  -10.21400
  0.2450  -10.08700
  0.2470   -9.96100
  0.2490   -9.83600
  0.2510   -9.71200
  0.2530   -9.58900
  0.2550   -9.46600
  0.2570   -9.34400
  0.2590   -9.22300
  0.2610   -9.10300
  0.2630   -8.98300
  0.2650   -8.86400
  0.2670   -8.74500
  0.2690   -8.62700
  0.2710   -8.50800
  0.2730   -8.39000
  0.2750   -8.27100
  0.2770   -8.15300
  0.2790   -8.03500
  0.2810   -7.91700
  0.2830   -7.79900
  0.2850   -7.68200
  0.2870   -7.56400
  0.2890   -7.44700
  0.2910   -7.32900
  0.2930   -7.21100
  0.2950   -7.09400
  0.2970   -6.97600
  0.2990   -6.85900
  0.3010   -6.74100
  0.3030   -6.62400
  0.3050   -6.50600
  0.3070   -6.38900
  0.3090   -6.27200
  0.3110   -6.15500
  0.3130   -6.03800
  0.3150   -5.92200
  0.3170   -5.80500
  0.3190   -5.68900
  0.3210   -5.57400
  0.3230   -5.45900
  0.3250   -5.34400
  0.3270   -5.22900
  0.3290   -5.11500
  0.3310   -5.00200
  0.3330   -4.88900
  0.3350   -4.77600
  0.3370   -4.66400
  0.3390   -4.55300
  0.3410   -4.44200
  0.3430   -4.33100
  0.3450   -4.22200
  0.3470   -4.11300
  0.3490   -4.00500
  0.3510   -3.89800
  0.3530   -3.79200
  0.3550   -3.68700
  0.3570   -3.58200
  0.3590   -3.47800
  0.3610   -3.37500
  0.3630   -3.27300
  0.3650   -3.17200
  0.3670   -3.07200
  0.3690   -2.97300
  0.3710   -2.87500
  0.3730   -2.77800
  0.3750   -2.68200
  0.3770   -2.58700
  0.3790   -2.49400
  0.3810   -2.40100
  0.3830   -2.31000
  0.3850   -2.22000
  0.3870   -2.13200
  0.3890   -2.04500
  0.3910   -1.96000
  0.3930   -1.87600
  0.3950   -1.79300
  0.3970   -1.71300
  0.3990   -1.63300
  0.4010   -1.55600
  0.4030   -1.48000
  0.4050   -1.40600
  0.4070   -1.33400
  0.4090   -1.26400
  0.4110   -1.19600
  0.4130   -1.12900
  0.4150   -1.06500
  0.4170   -1.00300
  0.4190   -0.94400
  0.4210   -0.88600
  0.4230   -0.83000
  0.4250   -0.77700
  0.4270   -0.72600
  0.4290   -0.67700
  0.4310   -0.63100
  0.4330   -0.58700
  0.4350   -0.54600
  0.4370   -0.50800
  0.4390   -0.47100
  0.4410   -0.43800
  0.4430   -0.40700
  0.4450   -0.37800
  0.4470   -0.35100
  0.4490   -0.32600
  0.4510   -0.30500
  0.4530   -0.28600
  0.4550   -0.26900
  0.4570   -0.25500
  0.4590   -0.24300
  0.4610   -0.23300
  0.4630   -0.22600
  0.4650   -0.22100
  0.4670   -0.21700
  0.4690   -0.21600
  0.4710   -0.21700
  0.4730   -0.22000
  0.4750   -0.22400
  0.4770   -0.23000
  0.4790   -0.23800
  0.4810   -0.24800
  0.4830   -0.25800
  0.4850   -0.27100
  0.4870   -0.28400
  0.4890   -0.29900
  0.4910   -0.31400
  0.4930   -0.33100
  0.4950   -0.34900
  0.4970   -0.36700
  0.4990   -0.38600
  0.5010   -0.40500
  0.5030   -0.42500
  0.5050   -0.44500
  0.5070   -0.46500
  0.5090   -0.48500
  0.5110   -0.50600
  0.5130   -0.52700
  0.5150   -0.54800
  0.5170   -0.56800
  0.5190   -0.58800
  0.5210   -0.60800
  0.5230   -0.62800
  0.5250   -0.64700
  0.5270   -0.66600
  0.5290   -0.68300
  0.5310   -0.70100
  0.5330   -0.71700
  0.5350   -0.73400
  0.5370   -0.74900
  0.5390   -0.76400
  0.5410   -0.77700
  0.5430   -0.79000
  0.5450   -0.80200
  0.5470   -0.81300
  0.5490   -0.82400
  0.5510   -0.83300
  0.5530   -0.84100
  0.5550   -0.84900
  0.5570   -0.85600
  0.5590   -0.86200
  0.5610   -0.86700
  0.5630   -0.87100
  0.5650   -0.87400
  0.5670   -0.87600
  0.5690   -0.87800
  0.5710   -0.87800
  0.5730   -0.87800
  0.5750   -0.87700
  0.5770   -0.87600
  0.5790   -0.87300
  0.5810   -0.87000
  0.5830   -0.86600
  0.5850   -0.86100
  0.5870   -0.85600
  0.5890   -0.85000
  0.5910   -0.84400
  0.5930   -0.83600
  0.5950   -0.82900
  0.5970   -0.82100
  0.5990   -0.81200
  0.6010   -0.80300
  0.6030   -0.79300
  0.6050   -0.78300
  0.6070   -0.77300
  0.6090   -0.76200
  0.6110   -0.75100
  0.6130   -0.73900
  0.6150   -0.72700
  0.6170   -0.71500
  0.6190   -0.70200
  0.6210   -0.68900
  0.6230   -0.67600
  0.6250   -0.66200
  0.6270   -0.64900
  0.6290   -0.63500
  0.6310   -0.62100
  0.6330   -0.60700
  0.6350   -0.59200
  0.6370   -0.57700
  0.6390   -0.56300
  0.6410   -0.54800
  0.6430   -0.53300
  0.6450   -0.51800
  0.6470   -0.50300
  0.6490   -0.48700
  0.6510   -0.47200
  0.6530   -0.45700
  0.6550   -0.44200
  0.6570   -0.42700
  0.6590   -0.41100
  0.6610   -0.39600
  0.6630   -0.38100
  0.6650   -0.36600
  0.6670   -0.35100
  0.6690   -0.33600
  0.6710   -0.32100
  0.6730   -0.30600
  0.6750   -0.29100
  0.6770   -0.27700
  0.6790   -0.26200
  0.6810   -0.24800
  0.6830   -0.23300
  0.6850   -0.21900
  0.6870   -0.20500
  0.6890   -0.19100
  0.6910   -0.17800
  0.6930   -0.16400
  0.6950   -0.15100
  0.6970   -0.13800
  0.6990   -0.12500
  0.7010   -0.11300
  0.7030   -0.10100
  0.7050   -0.08900
  0.7070   -0.07700
  0.7090   -0.06600
  0.7110   -0.05400
  0.7130   -0.04300
  0.7150   -0.03200
  0.7170   -0.02200
  0.7190   -0.01200
  0.7210   -0.00100
  0.7230    0.00800
  0.7250    0.01800
  0.7270    0.02700
  0.7290    0.03500
  0.7310    0.04400
  0.7330    0.05200
  0.7350    0.06000
  0.7370    0.06700
  0.7390    0.07400
  0.7410    0.08100
  0.7430    0.08700
  0.7450    0.09300
  0.7470    0.09900
  0.7490    0.10500
  0.7510    0.11000
  0.7530    0.11400
  0.7550    0.11900
  0.7570    0.12300
  0.7590    0.12600
  0.7610    0.12900
  0.7630    0.13200
  0.7650    0.13400
  0.7670    0.13700
  0.7690    0.13800
  0.7710    0.13900
  0.7730    0.14000
  0.7750    0.14100
  0.7770    0.14100
  0.7790    0.14000
  0.7810    0.14000
  0.7830    0.13900
  0.7850    0.13700
  0.7870    0.13500
  0.7890    0.13300
  0.7910    0.13100
  0.7930    0.12800
  0.7950    0.12500
  0.7970    0.12200
  0.7990    0.11800
  0.8010    0.11400
  0.8030    0.11000
  0.8050    0.10500
  0.8070    0.10100
  0.8090    0.09600
  0.8110    0.09100
  0.8130    0.08500
  0.8150    0.08000
  0.8170    0.07400
  0.8190    0.06900
  0.8210    0.06300
  0.8230    0.05700
  0.8250    0.05100
  0.8270    0.04500
  0.8290    0.03900
  0.8310    0.03300
  0.8330    0.02700
  0.8350    0.02100
  0.8370    0.01500
  0.8390    0.01000
  0.8410    0.00400
  0.8430   -0.00200
  0.8450   -0.00700
  0.8470   -0.01200
  0.8490   -0.01800
  0.8510   -0.02200
  0.8530   -0.02700
  0.8550   -0.03200
  0.8570   -0.03600
  0.8590   -0.04100
  0.8610   -0.04500
  0.8630   -0.04900
  0.8650   -0.05200
  0.8670   -0.05600
  0.8690   -0.05900
  0.8710   -0.06200
  0.8730   -0.06500
  0.8750   -0.06800
  0.8770   -0.07000
  0.8790   -0.07300
  0.8810   -0.07500
  0.8830   -0.07600
  0.8850   -0.07800
  0.8870   -0.08000
  0.8890   -0.08100
  0.8910   -0.08200
  0.8930   -0.08300
  0.8950   -0.08400
  0.8970   -0.08400
  0.8990   -0.08500
  0.9010   -0.08500
  0.9030   -0.08500
  0.9050   -0.08600
  0.9070   -0.08600
  0.9090   -0.08500
  0.9110   -0.08500
  0.9130   -0.08400
  0.9150   -0.08400
  0.9170   -0.08300
  0.9190   -0.08300
  0.9210   -0.08200
  0.9230   -0.08100
  0.9250   -0.08000
  0.9270   -0.08000
  0.9290   -0.07800
  0.9310   -0.07700
  0.9330   -0.07600
  0.9350   -0.07500
  0.9370   -0.07400
  0.9390   -0.07200
  0.9410   -0.07100
  0.9430   -0.06900
  0.9450   -0.06800
  0.9470   -0.06600
  0.9490   -0.06500
  0.9510   -0.06300
  0.9530   -0.06100
  0.9550   -0.06000
  0.9570   -0.05800
  0.9590   -0.05600
  0.9610   -0.05400
  0.9630   -0.05200
  0.9650   -0.05000
  0.9670   -0.04800
  0.9690   -0.04600
  0.9710   -0.04400
  0.9730   -0.04200
  0.9750   -0.03900
  0.9770   -0.03700
  0.9790   -0.03500
  0.9810   -0.03300
  0.9830   -0.03000
  0.9850   -0.02800
  0.9870   -0.02600
  0.9890   -0.02300
  0.9910   -0.02100
  0.9930   -0.01900
  0.9950   -0.01600
  0.9970   -0.01400
  0.9990   -0.01200
  1.0010   -0.01000
  1.0030   -0.00700
  1.0050   -0.00500
  1.0070   -0.00300
  1.0090    0.00000
  1.0110    0.00200
  1.0130    0.00400
  1.0150    0.00600
  1.0170    0.00800
  1.0190    0.01000
  1.0210    0.01200
  1.0230    0.01400
  1.0250    0.01500
  1.0270    0.01700
  1.0290    0.01900
  1.0310    0.02100
  1.0330    0.02200
  1.0350    0.02400
  1.0370    0.02600
  1.0390    0.02700
  1.0410    0.02900
  1.0430    0.03000
  1.0450    0.03100
  1.0470    0.03200
  1.0490    0.03400
  1.0510    0.03500
  1.0530    0.03600
  1.0550    0.03700
  1.0570    0.03800
  1.0590    0.03800
  1.0610    0.03900
  1.0630    0.04000
  1.0650    0.04100
  1.0670    0.04100
  1.0690    0.04200
  1.0710    0.04200
  1.0730    0.04300
  1.0750    0.04300
  1.0770    0.04300
  1.0790    0.04400
  1.0810    0.04400
  1.0830    0.04400
  1.0850    0.04400
  1.0870    0.04400
  1.0890    0.04400
  1.0910    0.04400
  1.0930    0.04400
  1.0950    0.04400
  1.0970    0.04400
  1.0990    0.04400
  1.1010    0.04400
  1.1030    0.04300
  1.1050    0.04300
  1.1070    0.04300
  1.1090    0.04200
  1.1110    0.04200
  1.1130    0.04100
  1.1150    0.04100
  1.1170    0.04000
  1.1190    0.03900
  1.1210    0.03800
  1.1230    0.03800
  1.1250    0.03700
  1.1270    0.03600
  1.1290    0.03500
  1.1310    0.03400
  1.1330    0.03300
  1.1350    0.03200
  1.1370    0.03100
  1.1390    0.03000
  1.1410    0.02800
  1.1430    0.02700
  1.1450    0.02600
  1.1470    0.02400
  1.1490    0.02300
  1.1510    0.02100
  1.1530    0.02000
  1.1550    0.01800
  1.1570    0.01700
  1.1590    0.01500
  1.1610    0.01400
  1.1630    0.01200
  1.1650    0.01100
  1.1670    0.00900
  1.1690    0.00700
  1.1710    0.00500
  1.1730    0.00400
  1.1750    0.00200
  1.1770    0.00000
  1.1790   -0.00100
  1.1810   -0.00300
  1.1830   -0.00500
  1.1850   -0.00600
  1.1870   -0.00800
  1.1890   -0.00900
  1.1910   -0.01100
  1.1930   -0.01300
  1.1950   -0.01400
  1.1970   -0.01600
  1.1990   -0.01800
  1.2010   -0.01900
  1.2030   -0.02100
  1.2050   -0.02200
  1.2070   -0.02300
  1.2090   -0.02500
  1.2110   -0.02600
  1.2130   -0.02700
  1.2150   -0.02800
  1.2170   -0.02900
  1.2190   -0.03000
  1.2210   -0.03100
  1.2230   -0.03200
  1.2250   -0.03300
  1.2270   -0.03400
  1.2290   -0.03500
  1.2310   -0.03500
  1.2330   -0.03600
  1.2350   -0.03600
  1.2370   -0.03700
  1.2390   -0.03700
  1.2410   -0.03700
  1.2430   -0.03800
  1.2450   -0.03800
  1.2470   -0.03800
  1.2490   -0.03800
  1.2510   -0.03800
  1.2530   -0.03700
  1.2550   -0.03700
  1.2570   -0.03600
  1.2590   -0.03600
  1.2610   -0.03500
  1.2630   -0.03500
  1.2650   -0.03400
  1.2670   -0.03300
  1.2690   -0.03200
  1.2710   -0.03100
  1.2730   -0.03000
  1.2750   -0.02900
  1.2770   -0.02700
  1.2790   -0.02600
  1.2810   -0.02400
  1.2830   -0.02300
  1.2850   -0.02200
  1.2870   -0.02000
  1.2890   -0.01800
  1.2910   -0.01700
  1.2930   -0.01500
  1.2950   -0.01400
  1.2970   -0.01200
  1.2990   -0.01000
  1.3010   -0.00900
  1.3030   -0.00700
  1.3050   -0.00500
  1.3070   -0.00300
  1.3090   -0.00200
  1.3110    0.00000
  1.3130    0.00200
  1.3150    0.00400
  1.3170    0.00500
  1.3190    0.00700
  1.3210    0.00900
  1.3230    0.01000
  1.3250    0.01200
  1.3270    0.01300
  1.3290    0.01500
  1.3310    0.01700
  1.3330    0.01800
  1.3350    0.02000
  1.3370    0.02100
  1.3390    0.02200
  1.3410    0.02400
  1.3430    0.02500
  1.3450    0.02700
  1.3470    0.02800
  1.3490    0.03000
  1.3510    0.03100
  1.3530    0.03300
  1.3550    0.03500
  1.3570    0.03600
  1.3590    0.03800
  1.3610    0.03900
  1.3630    0.04100
  1.3650    0.04200
  1.3670    0.04400
  1.3690    0.04500
  1.3710    0.04700
  1.3730    0.04900
  1.3750    0.05000
  1.3770    0.05100
  1.3790    0.05300
  1.3810    0.05400
  1.3830    0.05500
  1.3850    0.05700
  1.3870    0.05700
  1.3890    0.05800
  1.3910    0.05900
  1.3930    0.05900
  1.3950    0.05900
  1.3970    0.05900
  1.3990    0.05900
