# z (nm)   (kJ/mol)
  0.215000, 16.152900
  0.219000, 15.432900
  0.221000, 15.030200
  0.223000, 14.675800
  0.225000, 14.331100
  0.227000, 13.939900
  0.229000, 13.525100
  0.231000, 13.090800
  0.233000, 12.656100
  0.235000, 12.231000
  0.237000, 11.790200
  0.239000, 11.347200
  0.241000, 10.893200
  0.243000, 10.423500
  0.245000,  9.953600
  0.247000,  9.482100
  0.249000,  9.005200
  0.251000,  8.534700
  0.253000,  8.067400
  0.255000,  7.586700
  0.257000,  7.105300
  0.259000,  6.628800
  0.261000,  6.153100
  0.263000,  5.674700
  0.265000,  5.203200
  0.267000,  4.736000
  0.269000,  4.270800
  0.271000,  3.810200
  0.273000,  3.350100
  0.275000,  2.894600
  0.277000,  2.449400
  0.279000,  2.015700
  0.281000,  1.589500
  0.283000,  1.171100
  0.285000,  0.761400
  0.287000,  0.356100
  0.289000, -0.041900
  0.291000, -0.427600
  0.293000, -0.805200
  0.295000, -1.176000
  0.297000, -1.536000
  0.299000, -1.887700
  0.301000, -2.227400
  0.303000, -2.553200
  0.305000, -2.867000
  0.307000, -3.170200
  0.309000, -3.463500
  0.311000, -3.743000
  0.313000, -4.008700
  0.315000, -4.262300
  0.317000, -4.502700
  0.319000, -4.730900
  0.321000, -4.946800
  0.323000, -5.148200
  0.325000, -5.335300
  0.327000, -5.507500
  0.329000, -5.665400
  0.331000, -5.810400
  0.333000, -5.942000
  0.335000, -6.059700
  0.337000, -6.162800
  0.339000, -6.252900
  0.341000, -6.329200
  0.343000, -6.391500
  0.345000, -6.440500
  0.347000, -6.476300
  0.349000, -6.498600
  0.351000, -6.508200
  0.353000, -6.505400
  0.355000, -6.490200
  0.357000, -6.462300
  0.359000, -6.422900
  0.361000, -6.372600
  0.363000, -6.311300
  0.365000, -6.239800
  0.367000, -6.158100
  0.369000, -6.067100
  0.371000, -5.966400
  0.373000, -5.856600
  0.375000, -5.737900
  0.377000, -5.611100
  0.379000, -5.478000
  0.381000, -5.338200
  0.383000, -5.192100
  0.385000, -5.040800
  0.387000, -4.883900
  0.389000, -4.722100
  0.391000, -4.555100
  0.393000, -4.383700
  0.395000, -4.209800
  0.397000, -4.033200
  0.399000, -3.853900
  0.401000, -3.671900
  0.403000, -3.487900
  0.405000, -3.302900
  0.407000, -3.117400
  0.409000, -2.931000
  0.411000, -2.743800
  0.413000, -2.557300
  0.415000, -2.371300
  0.417000, -2.185500
  0.419000, -2.001000
  0.421000, -1.817300
  0.423000, -1.635200
  0.425000, -1.455000
  0.427000, -1.276600
  0.429000, -1.100400
  0.431000, -0.926100
  0.433000, -0.754300
  0.435000, -0.584800
  0.437000, -0.417600
  0.439000, -0.253100
  0.441000, -0.091700
  0.443000,  0.067100
  0.445000,  0.223000
  0.447000,  0.375600
  0.449000,  0.525000
  0.451000,  0.671200
  0.453000,  0.814200
  0.455000,  0.954000
  0.457000,  1.090300
  0.459000,  1.223300
  0.461000,  1.353300
  0.463000,  1.480000
  0.465000,  1.603100
  0.467000,  1.723200
  0.469000,  1.840300
  0.471000,  1.953700
  0.473000,  2.063700
  0.475000,  2.170400
  0.477000,  2.273300
  0.479000,  2.372800
  0.481000,  2.469300
  0.483000,  2.562600
  0.485000,  2.652700
  0.487000,  2.739200
  0.489000,  2.821700
  0.491000,  2.900800
  0.493000,  2.976400
  0.495000,  3.048600
  0.497000,  3.117600
  0.499000,  3.183000
  0.501000,  3.244900
  0.503000,  3.303100
  0.505000,  3.357100
  0.507000,  3.407500
  0.509000,  3.454600
  0.511000,  3.498400
  0.513000,  3.538400
  0.515000,  3.574500
  0.517000,  3.606600
  0.519000,  3.634200
  0.521000,  3.657800
  0.523000,  3.677600
  0.525000,  3.693600
  0.527000,  3.705800
  0.529000,  3.713900
  0.531000,  3.717600
  0.533000,  3.717800
  0.535000,  3.713700
  0.537000,  3.705200
  0.539000,  3.692700
  0.541000,  3.676000
  0.543000,  3.655000
  0.545000,  3.629900
  0.547000,  3.600800
  0.549000,  3.567800
  0.551000,  3.530700
  0.553000,  3.489800
  0.555000,  3.445000
  0.557000,  3.396100
  0.559000,  3.343400
  0.561000,  3.287200
  0.563000,  3.227300
  0.565000,  3.163600
  0.567000,  3.096800
  0.569000,  3.027000
  0.571000,  2.953400
  0.573000,  2.877200
  0.575000,  2.798200
  0.577000,  2.716000
  0.579000,  2.631900
  0.581000,  2.546200
  0.583000,  2.458200
  0.585000,  2.367600
  0.587000,  2.275200
  0.589000,  2.181600
  0.591000,  2.086700
  0.593000,  1.990500
  0.595000,  1.893500
  0.597000,  1.796400
  0.599000,  1.698200
  0.601000,  1.599000
  0.603000,  1.499900
  0.605000,  1.401300
  0.607000,  1.302800
  0.609000,  1.204500
  0.611000,  1.107300
  0.613000,  1.010600
  0.615000,  0.914400
  0.617000,  0.818900
  0.619000,  0.725000
  0.621000,  0.633500
  0.623000,  0.543700
  0.625000,  0.455400
  0.627000,  0.369100
  0.629000,  0.285400
  0.631000,  0.204300
  0.633000,  0.125200
  0.635000,  0.048700
  0.637000, -0.024800
  0.639000, -0.095400
  0.641000, -0.163100
  0.643000, -0.227700
  0.645000, -0.289300
  0.647000, -0.347600
  0.649000, -0.402900
  0.651000, -0.454900
  0.653000, -0.503600
  0.655000, -0.549000
  0.657000, -0.591100
  0.659000, -0.629800
  0.661000, -0.665400
  0.663000, -0.697600
  0.665000, -0.726600
  0.667000, -0.752500
  0.669000, -0.775100
  0.671000, -0.794500
  0.673000, -0.810800
  0.675000, -0.823900
  0.677000, -0.834300
  0.679000, -0.841700
  0.681000, -0.846100
  0.683000, -0.847800
  0.685000, -0.847000
  0.687000, -0.843500
  0.689000, -0.837300
  0.691000, -0.828600
  0.693000, -0.817700
  0.695000, -0.804800
  0.697000, -0.789600
  0.699000, -0.772200
  0.701000, -0.753300
  0.703000, -0.732600
  0.705000, -0.710100
  0.707000, -0.685900
  0.709000, -0.660500
  0.711000, -0.633600
  0.713000, -0.605300
  0.715000, -0.575600
  0.717000, -0.545000
  0.719000, -0.513600
  0.721000, -0.481300
  0.723000, -0.448500
  0.725000, -0.415000
  0.727000, -0.380700
  0.729000, -0.346000
  0.731000, -0.310900
  0.733000, -0.275400
  0.735000, -0.239600
  0.737000, -0.203500
  0.739000, -0.167500
  0.741000, -0.131100
  0.743000, -0.094400
  0.745000, -0.058000
  0.747000, -0.021900
  0.749000,  0.014000
  0.751000,  0.049500
  0.753000,  0.084800
  0.755000,  0.119700
  0.757000,  0.154300
  0.759000,  0.188600
  0.761000,  0.222200
  0.763000,  0.255200
  0.765000,  0.287900
  0.767000,  0.320200
  0.769000,  0.351700
  0.771000,  0.382500
  0.773000,  0.412600
  0.775000,  0.442100
  0.777000,  0.471000
  0.779000,  0.498900
  0.781000,  0.526100
  0.783000,  0.552600
  0.785000,  0.578000
  0.787000,  0.602600
  0.789000,  0.626200
  0.791000,  0.648900
  0.793000,  0.670800
  0.795000,  0.691700
  0.797000,  0.711600
  0.799000,  0.730600
  0.801000,  0.748600
  0.803000,  0.765400
  0.805000,  0.781100
  0.807000,  0.795700
  0.809000,  0.809300
  0.811000,  0.821900
  0.813000,  0.833600
  0.815000,  0.844000
  0.817000,  0.853400
  0.819000,  0.861800
  0.821000,  0.869000
  0.823000,  0.875100
  0.825000,  0.880200
  0.827000,  0.884000
  0.829000,  0.886600
  0.831000,  0.888100
  0.833000,  0.888400
  0.835000,  0.887600
  0.837000,  0.885700
  0.839000,  0.882600
  0.841000,  0.878500
  0.843000,  0.873400
  0.845000,  0.867200
  0.847000,  0.859800
  0.849000,  0.851300
  0.851000,  0.841800
  0.853000,  0.831200
  0.855000,  0.819700
  0.857000,  0.807300
  0.859000,  0.793800
  0.861000,  0.779500
  0.863000,  0.764200
  0.865000,  0.748000
  0.867000,  0.730900
  0.869000,  0.713000
  0.871000,  0.694400
  0.873000,  0.674800
  0.875000,  0.654700
  0.877000,  0.633900
  0.879000,  0.612500
  0.881000,  0.590400
  0.883000,  0.567500
  0.885000,  0.544300
  0.887000,  0.520700
  0.889000,  0.496600
  0.891000,  0.472100
  0.893000,  0.447600
  0.895000,  0.422600
  0.897000,  0.397200
  0.899000,  0.371700
  0.901000,  0.346200
  0.903000,  0.320800
  0.905000,  0.295600
  0.907000,  0.270300
  0.909000,  0.244900
  0.911000,  0.219700
  0.913000,  0.194800
  0.915000,  0.170200
  0.917000,  0.145700
  0.919000,  0.121600
  0.921000,  0.097900
  0.923000,  0.074600
  0.925000,  0.051500
  0.927000,  0.029000
  0.929000,  0.007100
  0.931000, -0.014300
  0.933000, -0.034800
  0.935000, -0.055000
  0.937000, -0.074700
  0.939000, -0.093700
  0.941000, -0.111900
  0.943000, -0.129200
  0.945000, -0.145700
  0.947000, -0.161500
  0.949000, -0.176600
  0.951000, -0.191000
  0.953000, -0.204700
  0.955000, -0.217300
  0.957000, -0.229000
  0.959000, -0.239900
  0.961000, -0.249900
  0.963000, -0.259300
  0.965000, -0.267900
  0.967000, -0.275700
  0.969000, -0.282600
  0.971000, -0.288600
  0.973000, -0.294000
  0.975000, -0.298600
  0.977000, -0.302300
  0.979000, -0.305200
  0.981000, -0.307400
  0.983000, -0.308900
  0.985000, -0.309700
  0.987000, -0.309700
  0.989000, -0.309000
  0.991000, -0.307700
  0.993000, -0.305800
  0.995000, -0.303200
  0.997000, -0.300000
  0.999000, -0.296200
  1.001000, -0.291800
  1.003000, -0.286800
  1.005000, -0.281400
  1.007000, -0.275500
  1.009000, -0.269200
  1.011000, -0.262500
  1.013000, -0.255400
  1.015000, -0.247800
  1.017000, -0.239900
  1.019000, -0.231700
  1.021000, -0.223200
  1.023000, -0.214400
  1.025000, -0.205400
  1.027000, -0.196200
  1.029000, -0.186900
  1.031000, -0.177200
  1.033000, -0.167500
  1.035000, -0.157700
  1.037000, -0.147800
  1.039000, -0.137800
  1.041000, -0.127800
  1.043000, -0.117800
  1.045000, -0.107900
  1.047000, -0.098100
  1.049000, -0.088400
  1.051000, -0.078900
  1.053000, -0.069400
  1.055000, -0.060000
  1.057000, -0.050600
  1.059000, -0.041400
  1.061000, -0.032300
  1.063000, -0.023500
  1.065000, -0.014900
  1.067000, -0.006700
  1.069000,  0.001400
  1.071000,  0.009300
  1.073000,  0.017000
  1.075000,  0.024300
  1.077000,  0.031300
  1.079000,  0.038000
  1.081000,  0.044500
  1.083000,  0.050700
  1.085000,  0.056500
  1.087000,  0.062100
  1.089000,  0.067500
  1.091000,  0.072600
  1.093000,  0.077300
  1.095000,  0.081800
  1.097000,  0.085900
  1.099000,  0.089800
  1.101000,  0.093300
  1.103000,  0.096600
  1.105000,  0.099600
  1.107000,  0.102400
  1.109000,  0.104800
  1.111000,  0.107100
  1.113000,  0.109100
  1.115000,  0.110900
  1.117000,  0.112500
  1.119000,  0.113700
  1.121000,  0.114800
  1.123000,  0.115800
  1.125000,  0.116500
  1.127000,  0.117000
  1.129000,  0.117400
  1.131000,  0.117700
  1.133000,  0.117800
  1.135000,  0.117700
  1.137000,  0.117500
  1.139000,  0.117200
  1.141000,  0.116600
  1.143000,  0.116000
  1.145000,  0.115200
  1.147000,  0.114400
  1.149000,  0.113400
  1.151000,  0.112300
  1.153000,  0.111300
  1.155000,  0.110100
  1.157000,  0.108800
  1.159000,  0.107500
  1.161000,  0.106100
  1.163000,  0.104600
  1.165000,  0.103100
  1.167000,  0.101500
  1.169000,  0.099800
  1.171000,  0.098200
  1.173000,  0.096500
  1.175000,  0.094700
  1.177000,  0.093000
  1.179000,  0.091300
  1.181000,  0.089500
  1.183000,  0.087700
  1.185000,  0.085800
  1.187000,  0.083800
  1.189000,  0.081800
  1.191000,  0.079600
  1.193000,  0.077500
  1.195000,  0.075300
  1.197000,  0.073200
  1.199000,  0.070900
  1.201000,  0.068500
  1.203000,  0.066100
  1.205000,  0.063600
  1.207000,  0.061400
  1.209000,  0.059200
  1.211000,  0.056900
  1.213000,  0.054500
  1.215000,  0.052100
  1.217000,  0.049700
  1.219000,  0.047200
  1.221000,  0.044600
  1.223000,  0.042000
  1.225000,  0.039500
  1.227000,  0.036900
  1.229000,  0.034300
  1.231000,  0.031600
  1.233000,  0.028800
  1.235000,  0.026000
  1.237000,  0.023200
  1.239000,  0.020400
  1.241000,  0.017600
  1.243000,  0.014900
  1.245000,  0.012000
  1.247000,  0.009100
  1.249000,  0.006200
  1.251000,  0.003300
  1.253000,  0.000500
  1.255000, -0.002300
  1.257000, -0.005200
  1.259000, -0.008100
  1.261000, -0.011000
  1.263000, -0.013900
  1.265000, -0.016700
  1.267000, -0.019600
  1.269000, -0.022400
  1.271000, -0.025100
  1.273000, -0.027800
  1.275000, -0.030400
  1.277000, -0.032900
  1.279000, -0.035300
  1.281000, -0.037600
  1.283000, -0.039900
  1.285000, -0.042100
  1.287000, -0.044200
  1.289000, -0.046200
  1.291000, -0.048200
  1.293000, -0.050100
  1.295000, -0.051900
  1.297000, -0.053600
  1.299000, -0.055100
  1.301000, -0.056500
  1.303000, -0.057600
  1.305000, -0.058500
  1.307000, -0.059300
  1.309000, -0.059900
  1.311000, -0.060500
  1.313000, -0.060800
  1.315000, -0.060900
  1.317000, -0.060800
  1.319000, -0.060500
  1.321000, -0.060000
  1.323000, -0.059300
  1.325000, -0.058300
  1.327000, -0.056900
  1.329000, -0.055500
  1.331000, -0.053800
  1.333000, -0.051800
  1.335000, -0.049500
  1.337000, -0.047000
  1.339000, -0.044300
  1.341000, -0.041400
  1.343000, -0.038200
  1.345000, -0.034600
  1.347000, -0.030800
  1.349000, -0.026800
  1.351000, -0.022600
  1.353000, -0.018200
  1.355000, -0.013500
  1.357000, -0.008600
  1.359000, -0.003500
  1.361000,  0.001700
  1.363000,  0.007200
  1.365000,  0.012800
  1.367000,  0.018600
  1.369000,  0.024400
  1.371000,  0.030400
  1.373000,  0.036500
  1.375000,  0.042700
  1.377000,  0.049000
  1.379000,  0.055100
  1.381000,  0.061300
  1.383000,  0.067200
  1.385000,  0.072900
  1.387000,  0.078700
  1.389000,  0.084300
  1.391000,  0.089800
  1.393000,  0.095000
  1.395000,  0.099700
  1.397000,  0.104100
  1.399000,  0.108300
