# z (nm)   (kJ/mol)
  0.237000,  6.426500
  0.241000,  5.836200
  0.243000,  5.221800
  0.245000,  4.618500
  0.247000,  3.978700
  0.249000,  3.292200
  0.251000,  2.623300
  0.253000,  1.978800
  0.255000,  1.305700
  0.257000,  0.601400
  0.259000, -0.098900
  0.261000, -0.810900
  0.263000, -1.538600
  0.265000, -2.256400
  0.267000, -2.971300
  0.269000, -3.690700
  0.271000, -4.409500
  0.273000, -5.135400
  0.275000, -5.860700
  0.277000, -6.579700
  0.279000, -7.295800
  0.281000, -8.007100
  0.283000, -8.716700
  0.285000, -9.418200
  0.287000,-10.113500
  0.289000,-10.801800
  0.291000,-11.482600
  0.293000,-12.154700
  0.295000,-12.815400
  0.297000,-13.465100
  0.299000,-14.103700
  0.301000,-14.730800
  0.303000,-15.344200
  0.305000,-15.941300
  0.307000,-16.520700
  0.309000,-17.086700
  0.311000,-17.637800
  0.313000,-18.169900
  0.315000,-18.683300
  0.317000,-19.179400
  0.319000,-19.657600
  0.321000,-20.115200
  0.323000,-20.551800
  0.325000,-20.967800
  0.327000,-21.362900
  0.329000,-21.736200
  0.331000,-22.087600
  0.333000,-22.416300
  0.335000,-22.721700
  0.337000,-23.003500
  0.339000,-23.261000
  0.341000,-23.495100
  0.343000,-23.705000
  0.345000,-23.890700
  0.347000,-24.051700
  0.349000,-24.189300
  0.351000,-24.304100
  0.353000,-24.394300
  0.355000,-24.460900
  0.357000,-24.504700
  0.359000,-24.525800
  0.361000,-24.524600
  0.363000,-24.501300
  0.365000,-24.455500
  0.367000,-24.388500
  0.369000,-24.302200
  0.371000,-24.196800
  0.373000,-24.072200
  0.375000,-23.928900
  0.377000,-23.770200
  0.379000,-23.594800
  0.381000,-23.403100
  0.383000,-23.196800
  0.385000,-22.976400
  0.387000,-22.743600
  0.389000,-22.498000
  0.391000,-22.240800
  0.393000,-21.973200
  0.395000,-21.696000
  0.397000,-21.409600
  0.399000,-21.114900
  0.401000,-20.813300
  0.403000,-20.505900
  0.405000,-20.193000
  0.407000,-19.875100
  0.409000,-19.553000
  0.411000,-19.227800
  0.413000,-18.900400
  0.415000,-18.571300
  0.417000,-18.241100
  0.419000,-17.910200
  0.421000,-17.579200
  0.423000,-17.249300
  0.425000,-16.921100
  0.427000,-16.595000
  0.429000,-16.271500
  0.431000,-15.950900
  0.433000,-15.633600
  0.435000,-15.320400
  0.437000,-15.012000
  0.439000,-14.708500
  0.441000,-14.409900
  0.443000,-14.116700
  0.445000,-13.829600
  0.447000,-13.548800
  0.449000,-13.274300
  0.451000,-13.006300
  0.453000,-12.745100
  0.455000,-12.491200
  0.457000,-12.244400
  0.459000,-12.005000
  0.461000,-11.773000
  0.463000,-11.548100
  0.465000,-11.331000
  0.467000,-11.121600
  0.469000,-10.919200
  0.471000,-10.724100
  0.473000,-10.536800
  0.475000,-10.357200
  0.477000,-10.184900
  0.479000,-10.019700
  0.481000, -9.861500
  0.483000, -9.710500
  0.485000, -9.566400
  0.487000, -9.428900
  0.489000, -9.297600
  0.491000, -9.172300
  0.493000, -9.052800
  0.495000, -8.938900
  0.497000, -8.830800
  0.499000, -8.727900
  0.501000, -8.630100
  0.503000, -8.536900
  0.505000, -8.448000
  0.507000, -8.363000
  0.509000, -8.281900
  0.511000, -8.204000
  0.513000, -8.129400
  0.515000, -8.057900
  0.517000, -7.988900
  0.519000, -7.922400
  0.521000, -7.858300
  0.523000, -7.796200
  0.525000, -7.735200
  0.527000, -7.675500
  0.529000, -7.617000
  0.531000, -7.559500
  0.533000, -7.502300
  0.535000, -7.445200
  0.537000, -7.388600
  0.539000, -7.331800
  0.541000, -7.274400
  0.543000, -7.216800
  0.545000, -7.158500
  0.547000, -7.099700
  0.549000, -7.039900
  0.551000, -6.979000
  0.553000, -6.917100
  0.555000, -6.854200
  0.557000, -6.790400
  0.559000, -6.725300
  0.561000, -6.658700
  0.563000, -6.590700
  0.565000, -6.521200
  0.567000, -6.450400
  0.569000, -6.378100
  0.571000, -6.304300
  0.573000, -6.229900
  0.575000, -6.154600
  0.577000, -6.077900
  0.579000, -5.999700
  0.581000, -5.920900
  0.583000, -5.840900
  0.585000, -5.760500
  0.587000, -5.679700
  0.589000, -5.597400
  0.591000, -5.514400
  0.593000, -5.431300
  0.595000, -5.348000
  0.597000, -5.264500
  0.599000, -5.180600
  0.601000, -5.096500
  0.603000, -5.013300
  0.605000, -4.930000
  0.607000, -4.846800
  0.609000, -4.764800
  0.611000, -4.683700
  0.613000, -4.603500
  0.615000, -4.524000
  0.617000, -4.445400
  0.619000, -4.368200
  0.621000, -4.291800
  0.623000, -4.216200
  0.625000, -4.141900
  0.627000, -4.069100
  0.629000, -3.998100
  0.631000, -3.928900
  0.633000, -3.861000
  0.635000, -3.794500
  0.637000, -3.729600
  0.639000, -3.666500
  0.641000, -3.605100
  0.643000, -3.545600
  0.645000, -3.488100
  0.647000, -3.432300
  0.649000, -3.378900
  0.651000, -3.327600
  0.653000, -3.278000
  0.655000, -3.230000
  0.657000, -3.183200
  0.659000, -3.138000
  0.661000, -3.094800
  0.663000, -3.053500
  0.665000, -3.013600
  0.667000, -2.974700
  0.669000, -2.936900
  0.671000, -2.901100
  0.673000, -2.866600
  0.675000, -2.832900
  0.677000, -2.800300
  0.679000, -2.768700
  0.681000, -2.737700
  0.683000, -2.707400
  0.685000, -2.678400
  0.687000, -2.650400
  0.689000, -2.623300
  0.691000, -2.597100
  0.693000, -2.571300
  0.695000, -2.546200
  0.697000, -2.520900
  0.699000, -2.496000
  0.701000, -2.471500
  0.703000, -2.447300
  0.705000, -2.423000
  0.707000, -2.399100
  0.709000, -2.376100
  0.711000, -2.353100
  0.713000, -2.329800
  0.715000, -2.306700
  0.717000, -2.283800
  0.719000, -2.260700
  0.721000, -2.238100
  0.723000, -2.215800
  0.725000, -2.193100
  0.727000, -2.170300
  0.729000, -2.147300
  0.731000, -2.124500
  0.733000, -2.102100
  0.735000, -2.079600
  0.737000, -2.057000
  0.739000, -2.034800
  0.741000, -2.012800
  0.743000, -1.990900
  0.745000, -1.969000
  0.747000, -1.947100
  0.749000, -1.925200
  0.751000, -1.903300
  0.753000, -1.881600
  0.755000, -1.860100
  0.757000, -1.838700
  0.759000, -1.817500
  0.761000, -1.796500
  0.763000, -1.775800
  0.765000, -1.755400
  0.767000, -1.734900
  0.769000, -1.714800
  0.771000, -1.695100
  0.773000, -1.675600
  0.775000, -1.656300
  0.777000, -1.637100
  0.779000, -1.618000
  0.781000, -1.599500
  0.783000, -1.581200
  0.785000, -1.563100
  0.787000, -1.545300
  0.789000, -1.527700
  0.791000, -1.510200
  0.793000, -1.493100
  0.795000, -1.476100
  0.797000, -1.459200
  0.799000, -1.442500
  0.801000, -1.425900
  0.803000, -1.409400
  0.805000, -1.393100
  0.807000, -1.376800
  0.809000, -1.360600
  0.811000, -1.344300
  0.813000, -1.328100
  0.815000, -1.311900
  0.817000, -1.295600
  0.819000, -1.279400
  0.821000, -1.263200
  0.823000, -1.247200
  0.825000, -1.231000
  0.827000, -1.214600
  0.829000, -1.198000
  0.831000, -1.181600
  0.833000, -1.165100
  0.835000, -1.148400
  0.837000, -1.131700
  0.839000, -1.115100
  0.841000, -1.098400
  0.843000, -1.081500
  0.845000, -1.064500
  0.847000, -1.047400
  0.849000, -1.030400
  0.851000, -1.013300
  0.853000, -0.996300
  0.855000, -0.979100
  0.857000, -0.962000
  0.859000, -0.945000
  0.861000, -0.927900
  0.863000, -0.910900
  0.865000, -0.893900
  0.867000, -0.876700
  0.869000, -0.859600
  0.871000, -0.842900
  0.873000, -0.826400
  0.875000, -0.809900
  0.877000, -0.793500
  0.879000, -0.777400
  0.881000, -0.761300
  0.883000, -0.745500
  0.885000, -0.729900
  0.887000, -0.714800
  0.889000, -0.699900
  0.891000, -0.685300
  0.893000, -0.670800
  0.895000, -0.656800
  0.897000, -0.643200
  0.899000, -0.629900
  0.901000, -0.617000
  0.903000, -0.604300
  0.905000, -0.592100
  0.907000, -0.580100
  0.909000, -0.568400
  0.911000, -0.557000
  0.913000, -0.546200
  0.915000, -0.535900
  0.917000, -0.525900
  0.919000, -0.516200
  0.921000, -0.506900
  0.923000, -0.498000
  0.925000, -0.489600
  0.927000, -0.481500
  0.929000, -0.473600
  0.931000, -0.466100
  0.933000, -0.459000
  0.935000, -0.452300
  0.937000, -0.446000
  0.939000, -0.439900
  0.941000, -0.434200
  0.943000, -0.428800
  0.945000, -0.423800
  0.947000, -0.419000
  0.949000, -0.414400
  0.951000, -0.410100
  0.953000, -0.406100
  0.955000, -0.402500
  0.957000, -0.399000
  0.959000, -0.395600
  0.961000, -0.392500
  0.963000, -0.389600
  0.965000, -0.386800
  0.967000, -0.384100
  0.969000, -0.381600
  0.971000, -0.379400
  0.973000, -0.377300
  0.975000, -0.375100
  0.977000, -0.372900
  0.979000, -0.370900
  0.981000, -0.369000
  0.983000, -0.367300
  0.985000, -0.365600
  0.987000, -0.363900
  0.989000, -0.362300
  0.991000, -0.360600
  0.993000, -0.358900
  0.995000, -0.357200
  0.997000, -0.355500
  0.999000, -0.353900
  1.001000, -0.352100
  1.003000, -0.350300
  1.005000, -0.348400
  1.007000, -0.346500
  1.009000, -0.344500
  1.011000, -0.342500
  1.013000, -0.340400
  1.015000, -0.338300
  1.017000, -0.336300
  1.019000, -0.334200
  1.021000, -0.332100
  1.023000, -0.329900
  1.025000, -0.327600
  1.027000, -0.325100
  1.029000, -0.322600
  1.031000, -0.320000
  1.033000, -0.317300
  1.035000, -0.314800
  1.037000, -0.312100
  1.039000, -0.309300
  1.041000, -0.306600
  1.043000, -0.304000
  1.045000, -0.301200
  1.047000, -0.298500
  1.049000, -0.295800
  1.051000, -0.293000
  1.053000, -0.290300
  1.055000, -0.287600
  1.057000, -0.284800
  1.059000, -0.282100
  1.061000, -0.279400
  1.063000, -0.276800
  1.065000, -0.274200
  1.067000, -0.271700
  1.069000, -0.269300
  1.071000, -0.266900
  1.073000, -0.264300
  1.075000, -0.261900
  1.077000, -0.259700
  1.079000, -0.257400
  1.081000, -0.255100
  1.083000, -0.252900
  1.085000, -0.250700
  1.087000, -0.248700
  1.089000, -0.246800
  1.091000, -0.244800
  1.093000, -0.242900
  1.095000, -0.241200
  1.097000, -0.239400
  1.099000, -0.237700
  1.101000, -0.235900
  1.103000, -0.234000
  1.105000, -0.232300
  1.107000, -0.230700
  1.109000, -0.229000
  1.111000, -0.227100
  1.113000, -0.225200
  1.115000, -0.223200
  1.117000, -0.221400
  1.119000, -0.219600
  1.121000, -0.217700
  1.123000, -0.215800
  1.125000, -0.213800
  1.127000, -0.211700
  1.129000, -0.209400
  1.131000, -0.207200
  1.133000, -0.204800
  1.135000, -0.202400
  1.137000, -0.199900
  1.139000, -0.197200
  1.141000, -0.194600
  1.143000, -0.191900
  1.145000, -0.189100
  1.147000, -0.186100
  1.149000, -0.182900
  1.151000, -0.179800
  1.153000, -0.176600
  1.155000, -0.173200
  1.157000, -0.169600
  1.159000, -0.165900
  1.161000, -0.162300
  1.163000, -0.158600
  1.165000, -0.154800
  1.167000, -0.150800
  1.169000, -0.146900
  1.171000, -0.142700
  1.173000, -0.138500
  1.175000, -0.134300
  1.177000, -0.130200
  1.179000, -0.126100
  1.181000, -0.121900
  1.183000, -0.117700
  1.185000, -0.113600
  1.187000, -0.109600
  1.189000, -0.105400
  1.191000, -0.101300
  1.193000, -0.097300
  1.195000, -0.093300
  1.197000, -0.089300
  1.199000, -0.085500
  1.201000, -0.081700
  1.203000, -0.078000
  1.205000, -0.074400
  1.207000, -0.070900
  1.209000, -0.067600
  1.211000, -0.064300
  1.213000, -0.061200
  1.215000, -0.058100
  1.217000, -0.055000
  1.219000, -0.052000
  1.221000, -0.049200
  1.223000, -0.046500
  1.225000, -0.043900
  1.227000, -0.041400
  1.229000, -0.039000
  1.231000, -0.036800
  1.233000, -0.034700
  1.235000, -0.032800
  1.237000, -0.030900
  1.239000, -0.029000
  1.241000, -0.027300
  1.243000, -0.025700
  1.245000, -0.024100
  1.247000, -0.022700
  1.249000, -0.021200
  1.251000, -0.019800
  1.253000, -0.018500
  1.255000, -0.017400
  1.257000, -0.016100
  1.259000, -0.015000
  1.261000, -0.013900
  1.263000, -0.012900
  1.265000, -0.011900
  1.267000, -0.011000
  1.269000, -0.010100
  1.271000, -0.009000
  1.273000, -0.008000
  1.275000, -0.007100
  1.277000, -0.006300
  1.279000, -0.005400
  1.281000, -0.004400
  1.283000, -0.003500
  1.285000, -0.002500
  1.287000, -0.001500
  1.289000, -0.000600
  1.291000,  0.000400
  1.293000,  0.001300
  1.295000,  0.002300
  1.297000,  0.003300
  1.299000,  0.004300
  1.301000,  0.005400
  1.303000,  0.006500
  1.305000,  0.007500
  1.307000,  0.008600
  1.309000,  0.009800
  1.311000,  0.011000
  1.313000,  0.012000
  1.315000,  0.013100
  1.317000,  0.014200
  1.319000,  0.015200
  1.321000,  0.016300
  1.323000,  0.017300
  1.325000,  0.018300
  1.327000,  0.019300
  1.329000,  0.020300
  1.331000,  0.021300
  1.333000,  0.022300
  1.335000,  0.023300
  1.337000,  0.024300
  1.339000,  0.025200
  1.341000,  0.026200
  1.343000,  0.027200
  1.345000,  0.028300
  1.347000,  0.029400
  1.349000,  0.030300
  1.351000,  0.031200
  1.353000,  0.032100
  1.355000,  0.033100
  1.357000,  0.034000
  1.359000,  0.034800
  1.361000,  0.035600
  1.363000,  0.036400
  1.365000,  0.037100
  1.367000,  0.037800
  1.369000,  0.038500
  1.371000,  0.039100
  1.373000,  0.039700
  1.375000,  0.040300
  1.377000,  0.040900
  1.379000,  0.041400
  1.381000,  0.041800
  1.383000,  0.042000
  1.385000,  0.042000
  1.387000,  0.042200
  1.389000,  0.042100
  1.391000,  0.041500
  1.393000,  0.040700
  1.395000,  0.039600
  1.397000,  0.038200
  1.399000,  0.036600
