# z (nm)   (kJ/mol)
  0.2210   11.71870
  0.2230   11.25550
  0.2250   10.78630
  0.2270   10.32000
  0.2290    9.84390
  0.2310    9.36460
  0.2330    8.84870
  0.2350    8.32930
  0.2370    7.81230
  0.2390    7.29430
  0.2410    6.76940
  0.2430    6.22720
  0.2450    5.67520
  0.2470    5.12380
  0.2490    4.56750
  0.2510    4.00540
  0.2530    3.44680
  0.2550    2.88290
  0.2570    2.31460
  0.2590    1.75360
  0.2610    1.18590
  0.2630    0.61340
  0.2650    0.04570
  0.2670   -0.52150
  0.2690   -1.08780
  0.2710   -1.64830
  0.2730   -2.20070
  0.2750   -2.74370
  0.2770   -3.27880
  0.2790   -3.81000
  0.2810   -4.33240
  0.2830   -4.84510
  0.2850   -5.34430
  0.2870   -5.83040
  0.2890   -6.31030
  0.2910   -6.77860
  0.2930   -7.23270
  0.2950   -7.67530
  0.2970   -8.10920
  0.2990   -8.52950
  0.3010   -8.93370
  0.3030   -9.32420
  0.3050   -9.70040
  0.3070  -10.06070
  0.3090  -10.40510
  0.3110  -10.73400
  0.3130  -11.04750
  0.3150  -11.34560
  0.3170  -11.62690
  0.3190  -11.89200
  0.3210  -12.14000
  0.3230  -12.37030
  0.3250  -12.58300
  0.3270  -12.77820
  0.3290  -12.95620
  0.3310  -13.11680
  0.3330  -13.25970
  0.3350  -13.38550
  0.3370  -13.49370
  0.3390  -13.58490
  0.3410  -13.65950
  0.3430  -13.71700
  0.3450  -13.75780
  0.3470  -13.78230
  0.3490  -13.79150
  0.3510  -13.78620
  0.3530  -13.76630
  0.3550  -13.73320
  0.3570  -13.68590
  0.3590  -13.62500
  0.3610  -13.55130
  0.3630  -13.46430
  0.3650  -13.36730
  0.3670  -13.26070
  0.3690  -13.14410
  0.3710  -13.01800
  0.3730  -12.88450
  0.3750  -12.74450
  0.3770  -12.59710
  0.3790  -12.44400
  0.3810  -12.28600
  0.3830  -12.12390
  0.3850  -11.95760
  0.3870  -11.78690
  0.3890  -11.61330
  0.3910  -11.43800
  0.3930  -11.26140
  0.3950  -11.08370
  0.3970  -10.90530
  0.3990  -10.72690
  0.4010  -10.54900
  0.4030  -10.37190
  0.4050  -10.19580
  0.4070  -10.02120
  0.4090   -9.84860
  0.4110   -9.67820
  0.4130   -9.51050
  0.4150   -9.34510
  0.4170   -9.18220
  0.4190   -9.02180
  0.4210   -8.86400
  0.4230   -8.70880
  0.4250   -8.55690
  0.4270   -8.40860
  0.4290   -8.26320
  0.4310   -8.12090
  0.4330   -7.98170
  0.4350   -7.84520
  0.4370   -7.71050
  0.4390   -7.57900
  0.4410   -7.45000
  0.4430   -7.32230
  0.4450   -7.19670
  0.4470   -7.07310
  0.4490   -6.95090
  0.4510   -6.82920
  0.4530   -6.70880
  0.4550   -6.59020
  0.4570   -6.47260
  0.4590   -6.35540
  0.4610   -6.23790
  0.4630   -6.12090
  0.4650   -6.00400
  0.4670   -5.88620
  0.4690   -5.76790
  0.4710   -5.64890
  0.4730   -5.52880
  0.4750   -5.40790
  0.4770   -5.28580
  0.4790   -5.16220
  0.4810   -5.03720
  0.4830   -4.91070
  0.4850   -4.78260
  0.4870   -4.65280
  0.4890   -4.52170
  0.4910   -4.38920
  0.4930   -4.25490
  0.4950   -4.11880
  0.4970   -3.98090
  0.4990   -3.84180
  0.5010   -3.70140
  0.5030   -3.55990
  0.5050   -3.41730
  0.5070   -3.27310
  0.5090   -3.12840
  0.5110   -2.98330
  0.5130   -2.83780
  0.5150   -2.69190
  0.5170   -2.54540
  0.5190   -2.39850
  0.5210   -2.25150
  0.5230   -2.10490
  0.5250   -1.96010
  0.5270   -1.81700
  0.5290   -1.67550
  0.5310   -1.53670
  0.5330   -1.39900
  0.5350   -1.26260
  0.5370   -1.12940
  0.5390   -0.99940
  0.5410   -0.87240
  0.5430   -0.74850
  0.5450   -0.62870
  0.5470   -0.51270
  0.5490   -0.40060
  0.5510   -0.29390
  0.5530   -0.19150
  0.5550   -0.09380
  0.5570   -0.00080
  0.5590    0.08700
  0.5610    0.16890
  0.5630    0.24490
  0.5650    0.31600
  0.5670    0.38200
  0.5690    0.44140
  0.5710    0.49530
  0.5730    0.54340
  0.5750    0.58530
  0.5770    0.62110
  0.5790    0.65090
  0.5810    0.67480
  0.5830    0.69330
  0.5850    0.70610
  0.5870    0.71310
  0.5890    0.71440
  0.5910    0.71030
  0.5930    0.70110
  0.5950    0.68700
  0.5970    0.66810
  0.5990    0.64450
  0.6010    0.61610
  0.6030    0.58360
  0.6050    0.54750
  0.6070    0.50800
  0.6090    0.46460
  0.6110    0.41780
  0.6130    0.36860
  0.6150    0.31620
  0.6170    0.26100
  0.6190    0.20380
  0.6210    0.14470
  0.6230    0.08310
  0.6250    0.02010
  0.6270   -0.04380
  0.6290   -0.10910
  0.6310   -0.17540
  0.6330   -0.24260
  0.6350   -0.31060
  0.6370   -0.37930
  0.6390   -0.44730
  0.6410   -0.51400
  0.6430   -0.58020
  0.6450   -0.64610
  0.6470   -0.71110
  0.6490   -0.77570
  0.6510   -0.83930
  0.6530   -0.90120
  0.6550   -0.96190
  0.6570   -1.02120
  0.6590   -1.07860
  0.6610   -1.13420
  0.6630   -1.18810
  0.6650   -1.23920
  0.6670   -1.28790
  0.6690   -1.33480
  0.6710   -1.37960
  0.6730   -1.42260
  0.6750   -1.46320
  0.6770   -1.50130
  0.6790   -1.53700
  0.6810   -1.57030
  0.6830   -1.60120
  0.6850   -1.62960
  0.6870   -1.65540
  0.6890   -1.67870
  0.6910   -1.69970
  0.6930   -1.71840
  0.6950   -1.73470
  0.6970   -1.74860
  0.6990   -1.76030
  0.7010   -1.76960
  0.7030   -1.77670
  0.7050   -1.78140
  0.7070   -1.78410
  0.7090   -1.78480
  0.7110   -1.78340
  0.7130   -1.77990
  0.7150   -1.77430
  0.7170   -1.76710
  0.7190   -1.75830
  0.7210   -1.74760
  0.7230   -1.73530
  0.7250   -1.72150
  0.7270   -1.70600
  0.7290   -1.68910
  0.7310   -1.67090
  0.7330   -1.65130
  0.7350   -1.63050
  0.7370   -1.60830
  0.7390   -1.58520
  0.7410   -1.56140
  0.7430   -1.53630
  0.7450   -1.51020
  0.7470   -1.48330
  0.7490   -1.45570
  0.7510   -1.42730
  0.7530   -1.39810
  0.7550   -1.36810
  0.7570   -1.33770
  0.7590   -1.30690
  0.7610   -1.27560
  0.7630   -1.24370
  0.7650   -1.21160
  0.7670   -1.17940
  0.7690   -1.14680
  0.7710   -1.11400
  0.7730   -1.08070
  0.7750   -1.04720
  0.7770   -1.01360
  0.7790   -0.97990
  0.7810   -0.94600
  0.7830   -0.91210
  0.7850   -0.87870
  0.7870   -0.84530
  0.7890   -0.81170
  0.7910   -0.77820
  0.7930   -0.74500
  0.7950   -0.71190
  0.7970   -0.67920
  0.7990   -0.64680
  0.8010   -0.61440
  0.8030   -0.58210
  0.8050   -0.55050
  0.8070   -0.51930
  0.8090   -0.48840
  0.8110   -0.45790
  0.8130   -0.42790
  0.8150   -0.39850
  0.8170   -0.36970
  0.8190   -0.34140
  0.8210   -0.31380
  0.8230   -0.28650
  0.8250   -0.25990
  0.8270   -0.23400
  0.8290   -0.20890
  0.8310   -0.18440
  0.8330   -0.16060
  0.8350   -0.13750
  0.8370   -0.11530
  0.8390   -0.09390
  0.8410   -0.07320
  0.8430   -0.05320
  0.8450   -0.03420
  0.8470   -0.01600
  0.8490    0.00150
  0.8510    0.01810
  0.8530    0.03370
  0.8550    0.04840
  0.8570    0.06220
  0.8590    0.07500
  0.8610    0.08710
  0.8630    0.09810
  0.8650    0.10830
  0.8670    0.11760
  0.8690    0.12590
  0.8710    0.13330
  0.8730    0.13980
  0.8750    0.14550
  0.8770    0.15030
  0.8790    0.15410
  0.8810    0.15710
  0.8830    0.15940
  0.8850    0.16080
  0.8870    0.16130
  0.8890    0.16090
  0.8910    0.15970
  0.8930    0.15780
  0.8950    0.15520
  0.8970    0.15190
  0.8990    0.14770
  0.9010    0.14290
  0.9030    0.13740
  0.9050    0.13120
  0.9070    0.12450
  0.9090    0.11730
  0.9110    0.10960
  0.9130    0.10130
  0.9150    0.09230
  0.9170    0.08300
  0.9190    0.07330
  0.9210    0.06310
  0.9230    0.05240
  0.9250    0.04120
  0.9270    0.03000
  0.9290    0.01860
  0.9310    0.00700
  0.9330   -0.00490
  0.9350   -0.01720
  0.9370   -0.02970
  0.9390   -0.04230
  0.9410   -0.05490
  0.9430   -0.06740
  0.9450   -0.08010
  0.9470   -0.09290
  0.9490   -0.10570
  0.9510   -0.11850
  0.9530   -0.13120
  0.9550   -0.14370
  0.9570   -0.15600
  0.9590   -0.16820
  0.9610   -0.18010
  0.9630   -0.19190
  0.9650   -0.20360
  0.9670   -0.21510
  0.9690   -0.22630
  0.9710   -0.23710
  0.9730   -0.24770
  0.9750   -0.25790
  0.9770   -0.26780
  0.9790   -0.27740
  0.9810   -0.28670
  0.9830   -0.29570
  0.9850   -0.30420
  0.9870   -0.31250
  0.9890   -0.32040
  0.9910   -0.32770
  0.9930   -0.33450
  0.9950   -0.34090
  0.9970   -0.34700
  0.9990   -0.35260
  1.0010   -0.35790
  1.0030   -0.36270
  1.0050   -0.36700
  1.0070   -0.37090
  1.0090   -0.37440
  1.0110   -0.37740
  1.0130   -0.38000
  1.0150   -0.38210
  1.0170   -0.38380
  1.0190   -0.38510
  1.0210   -0.38590
  1.0230   -0.38640
  1.0250   -0.38630
  1.0270   -0.38600
  1.0290   -0.38530
  1.0310   -0.38430
  1.0330   -0.38300
  1.0350   -0.38130
  1.0370   -0.37920
  1.0390   -0.37670
  1.0410   -0.37390
  1.0430   -0.37090
  1.0450   -0.36770
  1.0470   -0.36400
  1.0490   -0.36000
  1.0510   -0.35590
  1.0530   -0.35140
  1.0550   -0.34670
  1.0570   -0.34190
  1.0590   -0.33690
  1.0610   -0.33160
  1.0630   -0.32620
  1.0650   -0.32060
  1.0670   -0.31470
  1.0690   -0.30870
  1.0710   -0.30260
  1.0730   -0.29640
  1.0750   -0.29010
  1.0770   -0.28360
  1.0790   -0.27710
  1.0810   -0.27040
  1.0830   -0.26360
  1.0850   -0.25670
  1.0870   -0.24970
  1.0890   -0.24270
  1.0910   -0.23570
  1.0930   -0.22870
  1.0950   -0.22170
  1.0970   -0.21460
  1.0990   -0.20750
  1.1010   -0.20030
  1.1030   -0.19320
  1.1050   -0.18610
  1.1070   -0.17900
  1.1090   -0.17190
  1.1110   -0.16470
  1.1130   -0.15770
  1.1150   -0.15060
  1.1170   -0.14360
  1.1190   -0.13680
  1.1210   -0.13000
  1.1230   -0.12320
  1.1250   -0.11660
  1.1270   -0.11000
  1.1290   -0.10340
  1.1310   -0.09700
  1.1330   -0.09080
  1.1350   -0.08440
  1.1370   -0.07820
  1.1390   -0.07220
  1.1410   -0.06620
  1.1430   -0.06030
  1.1450   -0.05440
  1.1470   -0.04870
  1.1490   -0.04310
  1.1510   -0.03770
  1.1530   -0.03220
  1.1550   -0.02680
  1.1570   -0.02150
  1.1590   -0.01640
  1.1610   -0.01140
  1.1630   -0.00650
  1.1650   -0.00160
  1.1670    0.00320
  1.1690    0.00800
  1.1710    0.01250
  1.1730    0.01680
  1.1750    0.02110
  1.1770    0.02530
  1.1790    0.02940
  1.1810    0.03340
  1.1830    0.03730
  1.1850    0.04080
  1.1870    0.04420
  1.1890    0.04740
  1.1910    0.05060
  1.1930    0.05360
  1.1950    0.05630
  1.1970    0.05880
  1.1990    0.06130
  1.2010    0.06360
  1.2030    0.06570
  1.2050    0.06780
  1.2070    0.06960
  1.2090    0.07120
  1.2110    0.07250
  1.2130    0.07370
  1.2150    0.07470
  1.2170    0.07540
  1.2190    0.07590
  1.2210    0.07630
  1.2230    0.07650
  1.2250    0.07640
  1.2270    0.07610
  1.2290    0.07570
  1.2310    0.07510
  1.2330    0.07410
  1.2350    0.07290
  1.2370    0.07160
  1.2390    0.07010
  1.2410    0.06830
  1.2430    0.06630
  1.2450    0.06420
  1.2470    0.06210
  1.2490    0.05970
  1.2510    0.05720
  1.2530    0.05470
  1.2550    0.05200
  1.2570    0.04920
  1.2590    0.04620
  1.2610    0.04310
  1.2630    0.03990
  1.2650    0.03650
  1.2670    0.03300
  1.2690    0.02960
  1.2710    0.02630
  1.2730    0.02310
  1.2750    0.01960
  1.2770    0.01610
  1.2790    0.01270
  1.2810    0.00910
  1.2830    0.00550
  1.2850    0.00200
  1.2870   -0.00140
  1.2890   -0.00480
  1.2910   -0.00830
  1.2930   -0.01160
  1.2950   -0.01490
  1.2970   -0.01810
  1.2990   -0.02140
  1.3010   -0.02440
  1.3030   -0.02740
  1.3050   -0.03030
  1.3070   -0.03310
  1.3090   -0.03600
  1.3110   -0.03870
  1.3130   -0.04120
  1.3150   -0.04360
  1.3170   -0.04580
  1.3190   -0.04800
  1.3210   -0.05010
  1.3230   -0.05200
  1.3250   -0.05370
  1.3270   -0.05520
  1.3290   -0.05660
  1.3310   -0.05780
  1.3330   -0.05890
  1.3350   -0.05990
  1.3370   -0.06070
  1.3390   -0.06120
  1.3410   -0.06140
  1.3430   -0.06150
  1.3450   -0.06150
  1.3470   -0.06140
  1.3490   -0.06110
  1.3510   -0.06050
  1.3530   -0.05980
  1.3550   -0.05910
  1.3570   -0.05820
  1.3590   -0.05720
  1.3610   -0.05610
  1.3630   -0.05480
  1.3650   -0.05320
  1.3670   -0.05140
  1.3690   -0.04960
  1.3710   -0.04770
  1.3730   -0.04560
  1.3750   -0.04350
  1.3770   -0.04130
  1.3790   -0.03900
  1.3810   -0.03690
  1.3830   -0.03460
  1.3850   -0.03230
  1.3870   -0.03010
  1.3890   -0.02790
  1.3910   -0.02590
  1.3930   -0.02400
  1.3950   -0.02200
  1.3970   -0.02030
  1.3990   -0.01940
