# z (nm)   (kJ/mol)
  0.221000, 11.718700
  0.223000, 11.255500
  0.225000, 10.786300
  0.227000, 10.320000
  0.229000,  9.843900
  0.231000,  9.364600
  0.233000,  8.848700
  0.235000,  8.329300
  0.237000,  7.812300
  0.239000,  7.294300
  0.241000,  6.769400
  0.243000,  6.227200
  0.245000,  5.675200
  0.247000,  5.123800
  0.249000,  4.567500
  0.251000,  4.005400
  0.253000,  3.446800
  0.255000,  2.882900
  0.257000,  2.314600
  0.259000,  1.753600
  0.261000,  1.185900
  0.263000,  0.613400
  0.265000,  0.045700
  0.267000, -0.521500
  0.269000, -1.087800
  0.271000, -1.648300
  0.273000, -2.200700
  0.275000, -2.743700
  0.277000, -3.278800
  0.279000, -3.810000
  0.281000, -4.332400
  0.283000, -4.845100
  0.285000, -5.344300
  0.287000, -5.830400
  0.289000, -6.310300
  0.291000, -6.778600
  0.293000, -7.232700
  0.295000, -7.675300
  0.297000, -8.109200
  0.299000, -8.529500
  0.301000, -8.933700
  0.303000, -9.324200
  0.305000, -9.700400
  0.307000,-10.060700
  0.309000,-10.405100
  0.311000,-10.734000
  0.313000,-11.047500
  0.315000,-11.345600
  0.317000,-11.626900
  0.319000,-11.892000
  0.321000,-12.140000
  0.323000,-12.370300
  0.325000,-12.583000
  0.327000,-12.778200
  0.329000,-12.956200
  0.331000,-13.116800
  0.333000,-13.259700
  0.335000,-13.385500
  0.337000,-13.493700
  0.339000,-13.584900
  0.341000,-13.659500
  0.343000,-13.717000
  0.345000,-13.757800
  0.347000,-13.782300
  0.349000,-13.791500
  0.351000,-13.786200
  0.353000,-13.766300
  0.355000,-13.733200
  0.357000,-13.685900
  0.359000,-13.625000
  0.361000,-13.551300
  0.363000,-13.464300
  0.365000,-13.367300
  0.367000,-13.260700
  0.369000,-13.144100
  0.371000,-13.018000
  0.373000,-12.884500
  0.375000,-12.744500
  0.377000,-12.597100
  0.379000,-12.444000
  0.381000,-12.286000
  0.383000,-12.123900
  0.385000,-11.957600
  0.387000,-11.786900
  0.389000,-11.613300
  0.391000,-11.438000
  0.393000,-11.261400
  0.395000,-11.083700
  0.397000,-10.905300
  0.399000,-10.726900
  0.401000,-10.549000
  0.403000,-10.371900
  0.405000,-10.195800
  0.407000,-10.021200
  0.409000, -9.848600
  0.411000, -9.678200
  0.413000, -9.510500
  0.415000, -9.345100
  0.417000, -9.182200
  0.419000, -9.021800
  0.421000, -8.864000
  0.423000, -8.708800
  0.425000, -8.556900
  0.427000, -8.408600
  0.429000, -8.263200
  0.431000, -8.120900
  0.433000, -7.981700
  0.435000, -7.845200
  0.437000, -7.710500
  0.439000, -7.579000
  0.441000, -7.450000
  0.443000, -7.322300
  0.445000, -7.196700
  0.447000, -7.073100
  0.449000, -6.950900
  0.451000, -6.829200
  0.453000, -6.708800
  0.455000, -6.590200
  0.457000, -6.472600
  0.459000, -6.355400
  0.461000, -6.237900
  0.463000, -6.120900
  0.465000, -6.004000
  0.467000, -5.886200
  0.469000, -5.767900
  0.471000, -5.648900
  0.473000, -5.528800
  0.475000, -5.407900
  0.477000, -5.285800
  0.479000, -5.162200
  0.481000, -5.037200
  0.483000, -4.910700
  0.485000, -4.782600
  0.487000, -4.652800
  0.489000, -4.521700
  0.491000, -4.389200
  0.493000, -4.254900
  0.495000, -4.118800
  0.497000, -3.980900
  0.499000, -3.841800
  0.501000, -3.701400
  0.503000, -3.559900
  0.505000, -3.417300
  0.507000, -3.273100
  0.509000, -3.128400
  0.511000, -2.983300
  0.513000, -2.837800
  0.515000, -2.691900
  0.517000, -2.545400
  0.519000, -2.398500
  0.521000, -2.251500
  0.523000, -2.104900
  0.525000, -1.960100
  0.527000, -1.817000
  0.529000, -1.675500
  0.531000, -1.536700
  0.533000, -1.399000
  0.535000, -1.262600
  0.537000, -1.129400
  0.539000, -0.999400
  0.541000, -0.872400
  0.543000, -0.748500
  0.545000, -0.628700
  0.547000, -0.512700
  0.549000, -0.400600
  0.551000, -0.293900
  0.553000, -0.191500
  0.555000, -0.093800
  0.557000, -0.000800
  0.559000,  0.087000
  0.561000,  0.168900
  0.563000,  0.244900
  0.565000,  0.316000
  0.567000,  0.382000
  0.569000,  0.441400
  0.571000,  0.495300
  0.573000,  0.543400
  0.575000,  0.585300
  0.577000,  0.621100
  0.579000,  0.650900
  0.581000,  0.674800
  0.583000,  0.693300
  0.585000,  0.706100
  0.587000,  0.713100
  0.589000,  0.714400
  0.591000,  0.710300
  0.593000,  0.701100
  0.595000,  0.687000
  0.597000,  0.668100
  0.599000,  0.644500
  0.601000,  0.616100
  0.603000,  0.583600
  0.605000,  0.547500
  0.607000,  0.508000
  0.609000,  0.464600
  0.611000,  0.417800
  0.613000,  0.368600
  0.615000,  0.316200
  0.617000,  0.261000
  0.619000,  0.203800
  0.621000,  0.144700
  0.623000,  0.083100
  0.625000,  0.020100
  0.627000, -0.043800
  0.629000, -0.109100
  0.631000, -0.175400
  0.633000, -0.242600
  0.635000, -0.310600
  0.637000, -0.379300
  0.639000, -0.447300
  0.641000, -0.514000
  0.643000, -0.580200
  0.645000, -0.646100
  0.647000, -0.711100
  0.649000, -0.775700
  0.651000, -0.839300
  0.653000, -0.901200
  0.655000, -0.961900
  0.657000, -1.021200
  0.659000, -1.078600
  0.661000, -1.134200
  0.663000, -1.188100
  0.665000, -1.239200
  0.667000, -1.287900
  0.669000, -1.334800
  0.671000, -1.379600
  0.673000, -1.422600
  0.675000, -1.463200
  0.677000, -1.501300
  0.679000, -1.537000
  0.681000, -1.570300
  0.683000, -1.601200
  0.685000, -1.629600
  0.687000, -1.655400
  0.689000, -1.678700
  0.691000, -1.699700
  0.693000, -1.718400
  0.695000, -1.734700
  0.697000, -1.748600
  0.699000, -1.760300
  0.701000, -1.769600
  0.703000, -1.776700
  0.705000, -1.781400
  0.707000, -1.784100
  0.709000, -1.784800
  0.711000, -1.783400
  0.713000, -1.779900
  0.715000, -1.774300
  0.717000, -1.767100
  0.719000, -1.758300
  0.721000, -1.747600
  0.723000, -1.735300
  0.725000, -1.721500
  0.727000, -1.706000
  0.729000, -1.689100
  0.731000, -1.670900
  0.733000, -1.651300
  0.735000, -1.630500
  0.737000, -1.608300
  0.739000, -1.585200
  0.741000, -1.561400
  0.743000, -1.536300
  0.745000, -1.510200
  0.747000, -1.483300
  0.749000, -1.455700
  0.751000, -1.427300
  0.753000, -1.398100
  0.755000, -1.368100
  0.757000, -1.337700
  0.759000, -1.306900
  0.761000, -1.275600
  0.763000, -1.243700
  0.765000, -1.211600
  0.767000, -1.179400
  0.769000, -1.146800
  0.771000, -1.114000
  0.773000, -1.080700
  0.775000, -1.047200
  0.777000, -1.013600
  0.779000, -0.979900
  0.781000, -0.946000
  0.783000, -0.912100
  0.785000, -0.878700
  0.787000, -0.845300
  0.789000, -0.811700
  0.791000, -0.778200
  0.793000, -0.745000
  0.795000, -0.711900
  0.797000, -0.679200
  0.799000, -0.646800
  0.801000, -0.614400
  0.803000, -0.582100
  0.805000, -0.550500
  0.807000, -0.519300
  0.809000, -0.488400
  0.811000, -0.457900
  0.813000, -0.427900
  0.815000, -0.398500
  0.817000, -0.369700
  0.819000, -0.341400
  0.821000, -0.313800
  0.823000, -0.286500
  0.825000, -0.259900
  0.827000, -0.234000
  0.829000, -0.208900
  0.831000, -0.184400
  0.833000, -0.160600
  0.835000, -0.137500
  0.837000, -0.115300
  0.839000, -0.093900
  0.841000, -0.073200
  0.843000, -0.053200
  0.845000, -0.034200
  0.847000, -0.016000
  0.849000,  0.001500
  0.851000,  0.018100
  0.853000,  0.033700
  0.855000,  0.048400
  0.857000,  0.062200
  0.859000,  0.075000
  0.861000,  0.087100
  0.863000,  0.098100
  0.865000,  0.108300
  0.867000,  0.117600
  0.869000,  0.125900
  0.871000,  0.133300
  0.873000,  0.139800
  0.875000,  0.145500
  0.877000,  0.150300
  0.879000,  0.154100
  0.881000,  0.157100
  0.883000,  0.159400
  0.885000,  0.160800
  0.887000,  0.161300
  0.889000,  0.160900
  0.891000,  0.159700
  0.893000,  0.157800
  0.895000,  0.155200
  0.897000,  0.151900
  0.899000,  0.147700
  0.901000,  0.142900
  0.903000,  0.137400
  0.905000,  0.131200
  0.907000,  0.124500
  0.909000,  0.117300
  0.911000,  0.109600
  0.913000,  0.101300
  0.915000,  0.092300
  0.917000,  0.083000
  0.919000,  0.073300
  0.921000,  0.063100
  0.923000,  0.052400
  0.925000,  0.041200
  0.927000,  0.030000
  0.929000,  0.018600
  0.931000,  0.007000
  0.933000, -0.004900
  0.935000, -0.017200
  0.937000, -0.029700
  0.939000, -0.042300
  0.941000, -0.054900
  0.943000, -0.067400
  0.945000, -0.080100
  0.947000, -0.092900
  0.949000, -0.105700
  0.951000, -0.118500
  0.953000, -0.131200
  0.955000, -0.143700
  0.957000, -0.156000
  0.959000, -0.168200
  0.961000, -0.180100
  0.963000, -0.191900
  0.965000, -0.203600
  0.967000, -0.215100
  0.969000, -0.226300
  0.971000, -0.237100
  0.973000, -0.247700
  0.975000, -0.257900
  0.977000, -0.267800
  0.979000, -0.277400
  0.981000, -0.286700
  0.983000, -0.295700
  0.985000, -0.304200
  0.987000, -0.312500
  0.989000, -0.320400
  0.991000, -0.327700
  0.993000, -0.334500
  0.995000, -0.340900
  0.997000, -0.347000
  0.999000, -0.352600
  1.001000, -0.357900
  1.003000, -0.362700
  1.005000, -0.367000
  1.007000, -0.370900
  1.009000, -0.374400
  1.011000, -0.377400
  1.013000, -0.380000
  1.015000, -0.382100
  1.017000, -0.383800
  1.019000, -0.385100
  1.021000, -0.385900
  1.023000, -0.386400
  1.025000, -0.386300
  1.027000, -0.386000
  1.029000, -0.385300
  1.031000, -0.384300
  1.033000, -0.383000
  1.035000, -0.381300
  1.037000, -0.379200
  1.039000, -0.376700
  1.041000, -0.373900
  1.043000, -0.370900
  1.045000, -0.367700
  1.047000, -0.364000
  1.049000, -0.360000
  1.051000, -0.355900
  1.053000, -0.351400
  1.055000, -0.346700
  1.057000, -0.341900
  1.059000, -0.336900
  1.061000, -0.331600
  1.063000, -0.326200
  1.065000, -0.320600
  1.067000, -0.314700
  1.069000, -0.308700
  1.071000, -0.302600
  1.073000, -0.296400
  1.075000, -0.290100
  1.077000, -0.283600
  1.079000, -0.277100
  1.081000, -0.270400
  1.083000, -0.263600
  1.085000, -0.256700
  1.087000, -0.249700
  1.089000, -0.242700
  1.091000, -0.235700
  1.093000, -0.228700
  1.095000, -0.221700
  1.097000, -0.214600
  1.099000, -0.207500
  1.101000, -0.200300
  1.103000, -0.193200
  1.105000, -0.186100
  1.107000, -0.179000
  1.109000, -0.171900
  1.111000, -0.164700
  1.113000, -0.157700
  1.115000, -0.150600
  1.117000, -0.143600
  1.119000, -0.136800
  1.121000, -0.130000
  1.123000, -0.123200
  1.125000, -0.116600
  1.127000, -0.110000
  1.129000, -0.103400
  1.131000, -0.097000
  1.133000, -0.090800
  1.135000, -0.084400
  1.137000, -0.078200
  1.139000, -0.072200
  1.141000, -0.066200
  1.143000, -0.060300
  1.145000, -0.054400
  1.147000, -0.048700
  1.149000, -0.043100
  1.151000, -0.037700
  1.153000, -0.032200
  1.155000, -0.026800
  1.157000, -0.021500
  1.159000, -0.016400
  1.161000, -0.011400
  1.163000, -0.006500
  1.165000, -0.001600
  1.167000,  0.003200
  1.169000,  0.008000
  1.171000,  0.012500
  1.173000,  0.016800
  1.175000,  0.021100
  1.177000,  0.025300
  1.179000,  0.029400
  1.181000,  0.033400
  1.183000,  0.037300
  1.185000,  0.040800
  1.187000,  0.044200
  1.189000,  0.047400
  1.191000,  0.050600
  1.193000,  0.053600
  1.195000,  0.056300
  1.197000,  0.058800
  1.199000,  0.061300
  1.201000,  0.063600
  1.203000,  0.065700
  1.205000,  0.067800
  1.207000,  0.069600
  1.209000,  0.071200
  1.211000,  0.072500
  1.213000,  0.073700
  1.215000,  0.074700
  1.217000,  0.075400
  1.219000,  0.075900
  1.221000,  0.076300
  1.223000,  0.076500
  1.225000,  0.076400
  1.227000,  0.076100
  1.229000,  0.075700
  1.231000,  0.075100
  1.233000,  0.074100
  1.235000,  0.072900
  1.237000,  0.071600
  1.239000,  0.070100
  1.241000,  0.068300
  1.243000,  0.066300
  1.245000,  0.064200
  1.247000,  0.062100
  1.249000,  0.059700
  1.251000,  0.057200
  1.253000,  0.054700
  1.255000,  0.052000
  1.257000,  0.049200
  1.259000,  0.046200
  1.261000,  0.043100
  1.263000,  0.039900
  1.265000,  0.036500
  1.267000,  0.033000
  1.269000,  0.029600
  1.271000,  0.026300
  1.273000,  0.023100
  1.275000,  0.019600
  1.277000,  0.016100
  1.279000,  0.012700
  1.281000,  0.009100
  1.283000,  0.005500
  1.285000,  0.002000
  1.287000, -0.001400
  1.289000, -0.004800
  1.291000, -0.008300
  1.293000, -0.011600
  1.295000, -0.014900
  1.297000, -0.018100
  1.299000, -0.021400
  1.301000, -0.024400
  1.303000, -0.027400
  1.305000, -0.030300
  1.307000, -0.033100
  1.309000, -0.036000
  1.311000, -0.038700
  1.313000, -0.041200
  1.315000, -0.043600
  1.317000, -0.045800
  1.319000, -0.048000
  1.321000, -0.050100
  1.323000, -0.052000
  1.325000, -0.053700
  1.327000, -0.055200
  1.329000, -0.056600
  1.331000, -0.057800
  1.333000, -0.058900
  1.335000, -0.059900
  1.337000, -0.060700
  1.339000, -0.061200
  1.341000, -0.061400
  1.343000, -0.061500
  1.345000, -0.061500
  1.347000, -0.061400
  1.349000, -0.061100
  1.351000, -0.060500
  1.353000, -0.059800
  1.355000, -0.059100
  1.357000, -0.058200
  1.359000, -0.057200
  1.361000, -0.056100
  1.363000, -0.054800
  1.365000, -0.053200
  1.367000, -0.051400
  1.369000, -0.049600
  1.371000, -0.047700
  1.373000, -0.045600
  1.375000, -0.043500
  1.377000, -0.041300
  1.379000, -0.039000
  1.381000, -0.036900
  1.383000, -0.034600
  1.385000, -0.032300
  1.387000, -0.030100
  1.389000, -0.027900
  1.391000, -0.025900
  1.393000, -0.024000
  1.395000, -0.022000
  1.397000, -0.020300
  1.399000, -0.019400
