# z (nm)   (kJ/mol)
  0.223000, 14.733000
  0.225000, 14.330700
  0.227000, 13.931800
  0.229000, 13.513800
  0.231000, 13.083400
  0.233000, 12.654100
  0.235000, 12.229700
  0.237000, 11.816900
  0.239000, 11.372900
  0.241000, 10.903200
  0.243000, 10.423800
  0.245000,  9.934100
  0.247000,  9.458500
  0.249000,  8.979800
  0.251000,  8.485000
  0.253000,  7.985600
  0.255000,  7.481300
  0.257000,  6.970700
  0.259000,  6.461200
  0.261000,  5.952200
  0.263000,  5.438800
  0.265000,  4.925800
  0.267000,  4.413200
  0.269000,  3.905400
  0.271000,  3.399700
  0.273000,  2.900100
  0.275000,  2.401700
  0.277000,  1.899700
  0.279000,  1.404100
  0.281000,  0.914400
  0.283000,  0.435600
  0.285000, -0.037200
  0.287000, -0.504000
  0.289000, -0.961000
  0.291000, -1.408000
  0.293000, -1.842000
  0.295000, -2.268500
  0.297000, -2.687100
  0.299000, -3.093600
  0.301000, -3.489100
  0.303000, -3.874000
  0.305000, -4.245800
  0.307000, -4.606000
  0.309000, -4.955000
  0.311000, -5.291300
  0.313000, -5.615800
  0.315000, -5.927400
  0.317000, -6.225600
  0.319000, -6.512400
  0.321000, -6.784200
  0.323000, -7.041200
  0.325000, -7.284400
  0.327000, -7.513500
  0.329000, -7.729800
  0.331000, -7.930800
  0.333000, -8.117700
  0.335000, -8.291000
  0.337000, -8.449500
  0.339000, -8.593900
  0.341000, -8.724800
  0.343000, -8.841700
  0.345000, -8.944300
  0.347000, -9.032800
  0.349000, -9.107700
  0.351000, -9.169700
  0.353000, -9.219500
  0.355000, -9.255900
  0.357000, -9.280000
  0.359000, -9.293300
  0.361000, -9.295700
  0.363000, -9.286100
  0.365000, -9.266500
  0.367000, -9.236800
  0.369000, -9.198000
  0.371000, -9.150700
  0.373000, -9.094000
  0.375000, -9.029900
  0.377000, -8.959400
  0.379000, -8.881600
  0.381000, -8.796000
  0.383000, -8.705600
  0.385000, -8.611500
  0.387000, -8.511700
  0.389000, -8.406900
  0.391000, -8.298700
  0.393000, -8.187300
  0.395000, -8.073100
  0.397000, -7.956500
  0.399000, -7.837800
  0.401000, -7.717500
  0.403000, -7.595800
  0.405000, -7.472800
  0.407000, -7.348800
  0.409000, -7.224100
  0.411000, -7.099000
  0.413000, -6.973600
  0.415000, -6.847900
  0.417000, -6.721900
  0.419000, -6.595900
  0.421000, -6.470100
  0.423000, -6.344600
  0.425000, -6.219400
  0.427000, -6.094600
  0.429000, -5.969500
  0.431000, -5.844500
  0.433000, -5.719600
  0.435000, -5.594600
  0.437000, -5.469300
  0.439000, -5.343600
  0.441000, -5.217500
  0.443000, -5.091100
  0.445000, -4.964400
  0.447000, -4.837300
  0.449000, -4.709600
  0.451000, -4.581100
  0.453000, -4.451500
  0.455000, -4.321000
  0.457000, -4.189600
  0.459000, -4.057000
  0.461000, -3.923000
  0.463000, -3.787800
  0.465000, -3.651300
  0.467000, -3.513500
  0.469000, -3.374400
  0.471000, -3.234100
  0.473000, -3.092600
  0.475000, -2.949600
  0.477000, -2.805800
  0.479000, -2.661000
  0.481000, -2.515000
  0.483000, -2.367900
  0.485000, -2.220200
  0.487000, -2.071600
  0.489000, -1.922000
  0.491000, -1.772700
  0.493000, -1.622800
  0.495000, -1.472700
  0.497000, -1.323000
  0.499000, -1.173400
  0.501000, -1.024700
  0.503000, -0.876900
  0.505000, -0.730500
  0.507000, -0.584200
  0.509000, -0.438600
  0.511000, -0.294800
  0.513000, -0.152700
  0.515000, -0.013300
  0.517000,  0.123700
  0.519000,  0.258100
  0.521000,  0.389600
  0.523000,  0.518200
  0.525000,  0.643900
  0.527000,  0.766300
  0.529000,  0.883900
  0.531000,  0.996800
  0.533000,  1.105500
  0.535000,  1.209700
  0.537000,  1.309400
  0.539000,  1.404100
  0.541000,  1.493400
  0.543000,  1.577600
  0.545000,  1.657000
  0.547000,  1.730400
  0.549000,  1.797600
  0.551000,  1.858800
  0.553000,  1.914100
  0.555000,  1.963400
  0.557000,  2.007000
  0.559000,  2.044700
  0.561000,  2.076500
  0.563000,  2.102100
  0.565000,  2.121700
  0.567000,  2.135300
  0.569000,  2.143200
  0.571000,  2.145200
  0.573000,  2.141700
  0.575000,  2.132500
  0.577000,  2.117300
  0.579000,  2.096900
  0.581000,  2.071600
  0.583000,  2.041300
  0.585000,  2.005600
  0.587000,  1.965900
  0.589000,  1.922600
  0.591000,  1.874800
  0.593000,  1.822900
  0.595000,  1.767300
  0.597000,  1.707800
  0.599000,  1.645100
  0.601000,  1.580000
  0.603000,  1.512400
  0.605000,  1.441800
  0.607000,  1.369200
  0.609000,  1.295100
  0.611000,  1.219800
  0.613000,  1.143300
  0.615000,  1.064500
  0.617000,  0.984200
  0.619000,  0.903100
  0.621000,  0.821800
  0.623000,  0.740700
  0.625000,  0.659500
  0.627000,  0.578800
  0.629000,  0.498700
  0.631000,  0.419400
  0.633000,  0.341600
  0.635000,  0.264500
  0.637000,  0.188200
  0.639000,  0.113600
  0.641000,  0.040400
  0.643000, -0.031500
  0.645000, -0.101500
  0.647000, -0.169600
  0.649000, -0.235600
  0.651000, -0.299700
  0.653000, -0.361300
  0.655000, -0.420300
  0.657000, -0.477200
  0.659000, -0.531400
  0.661000, -0.583100
  0.663000, -0.632400
  0.665000, -0.679100
  0.667000, -0.723200
  0.669000, -0.764700
  0.671000, -0.803400
  0.673000, -0.839500
  0.675000, -0.872900
  0.677000, -0.903700
  0.679000, -0.932100
  0.681000, -0.958000
  0.683000, -0.981200
  0.685000, -1.002100
  0.687000, -1.020600
  0.689000, -1.036700
  0.691000, -1.050500
  0.693000, -1.062100
  0.695000, -1.071700
  0.697000, -1.079100
  0.699000, -1.084300
  0.701000, -1.087700
  0.703000, -1.089000
  0.705000, -1.088400
  0.707000, -1.086100
  0.709000, -1.081800
  0.711000, -1.075700
  0.713000, -1.068000
  0.715000, -1.059000
  0.717000, -1.048900
  0.719000, -1.037200
  0.721000, -1.024200
  0.723000, -1.009800
  0.725000, -0.994100
  0.727000, -0.977200
  0.729000, -0.959200
  0.731000, -0.940300
  0.733000, -0.920500
  0.735000, -0.899800
  0.737000, -0.878200
  0.739000, -0.855600
  0.741000, -0.832400
  0.743000, -0.808700
  0.745000, -0.784300
  0.747000, -0.759100
  0.749000, -0.733500
  0.751000, -0.707400
  0.753000, -0.680900
  0.755000, -0.653900
  0.757000, -0.626600
  0.759000, -0.598900
  0.761000, -0.571000
  0.763000, -0.542600
  0.765000, -0.514200
  0.767000, -0.485500
  0.769000, -0.456400
  0.771000, -0.427300
  0.773000, -0.398100
  0.775000, -0.369000
  0.777000, -0.339800
  0.779000, -0.310500
  0.781000, -0.281300
  0.783000, -0.252100
  0.785000, -0.223100
  0.787000, -0.194300
  0.789000, -0.165700
  0.791000, -0.137200
  0.793000, -0.108800
  0.795000, -0.080700
  0.797000, -0.053200
  0.799000, -0.026000
  0.801000,  0.000800
  0.803000,  0.027200
  0.805000,  0.053300
  0.807000,  0.079100
  0.809000,  0.104500
  0.811000,  0.129400
  0.813000,  0.153600
  0.815000,  0.177400
  0.817000,  0.200500
  0.819000,  0.222700
  0.821000,  0.244200
  0.823000,  0.265100
  0.825000,  0.285500
  0.827000,  0.305000
  0.829000,  0.323500
  0.831000,  0.341500
  0.833000,  0.358500
  0.835000,  0.374600
  0.837000,  0.389900
  0.839000,  0.404400
  0.841000,  0.417900
  0.843000,  0.430500
  0.845000,  0.442100
  0.847000,  0.452900
  0.849000,  0.462600
  0.851000,  0.471400
  0.853000,  0.479100
  0.855000,  0.485900
  0.857000,  0.491700
  0.859000,  0.496400
  0.861000,  0.500100
  0.863000,  0.502900
  0.865000,  0.504800
  0.867000,  0.505700
  0.869000,  0.505700
  0.871000,  0.504800
  0.873000,  0.502900
  0.875000,  0.500000
  0.877000,  0.496400
  0.879000,  0.491900
  0.881000,  0.486600
  0.883000,  0.480500
  0.885000,  0.473500
  0.887000,  0.466000
  0.889000,  0.457700
  0.891000,  0.448700
  0.893000,  0.439200
  0.895000,  0.428900
  0.897000,  0.417900
  0.899000,  0.406400
  0.901000,  0.394600
  0.903000,  0.382300
  0.905000,  0.369500
  0.907000,  0.356200
  0.909000,  0.342600
  0.911000,  0.328600
  0.913000,  0.314400
  0.915000,  0.300000
  0.917000,  0.285400
  0.919000,  0.270800
  0.921000,  0.256100
  0.923000,  0.241200
  0.925000,  0.226200
  0.927000,  0.211200
  0.929000,  0.196300
  0.931000,  0.181500
  0.933000,  0.166700
  0.935000,  0.152000
  0.937000,  0.137600
  0.939000,  0.123200
  0.941000,  0.108900
  0.943000,  0.094900
  0.945000,  0.081100
  0.947000,  0.067500
  0.949000,  0.054100
  0.951000,  0.041000
  0.953000,  0.028200
  0.955000,  0.015700
  0.957000,  0.003600
  0.959000, -0.008200
  0.961000, -0.019600
  0.963000, -0.030700
  0.965000, -0.041500
  0.967000, -0.051800
  0.969000, -0.061900
  0.971000, -0.071600
  0.973000, -0.080700
  0.975000, -0.089400
  0.977000, -0.097800
  0.979000, -0.105800
  0.981000, -0.113300
  0.983000, -0.120400
  0.985000, -0.127200
  0.987000, -0.133500
  0.989000, -0.139400
  0.991000, -0.144900
  0.993000, -0.149900
  0.995000, -0.154500
  0.997000, -0.158700
  0.999000, -0.162400
  1.001000, -0.165600
  1.003000, -0.168500
  1.005000, -0.171000
  1.007000, -0.173000
  1.009000, -0.174600
  1.011000, -0.175900
  1.013000, -0.176900
  1.015000, -0.177400
  1.017000, -0.177600
  1.019000, -0.177400
  1.021000, -0.176800
  1.023000, -0.176000
  1.025000, -0.174700
  1.027000, -0.173200
  1.029000, -0.171400
  1.031000, -0.169300
  1.033000, -0.167200
  1.035000, -0.164700
  1.037000, -0.162000
  1.039000, -0.159000
  1.041000, -0.155800
  1.043000, -0.152400
  1.045000, -0.148700
  1.047000, -0.144900
  1.049000, -0.141000
  1.051000, -0.137000
  1.053000, -0.132900
  1.055000, -0.128700
  1.057000, -0.124200
  1.059000, -0.119800
  1.061000, -0.115300
  1.063000, -0.110700
  1.065000, -0.106000
  1.067000, -0.101200
  1.069000, -0.096500
  1.071000, -0.091700
  1.073000, -0.086900
  1.075000, -0.082100
  1.077000, -0.077400
  1.079000, -0.072700
  1.081000, -0.068000
  1.083000, -0.063300
  1.085000, -0.058800
  1.087000, -0.054200
  1.089000, -0.049700
  1.091000, -0.045400
  1.093000, -0.041100
  1.095000, -0.036800
  1.097000, -0.032400
  1.099000, -0.028100
  1.101000, -0.023800
  1.103000, -0.019700
  1.105000, -0.015700
  1.107000, -0.011700
  1.109000, -0.007900
  1.111000, -0.004100
  1.113000, -0.000300
  1.115000,  0.003400
  1.117000,  0.006900
  1.119000,  0.010300
  1.121000,  0.013700
  1.123000,  0.016900
  1.125000,  0.020200
  1.127000,  0.023500
  1.129000,  0.026600
  1.131000,  0.029700
  1.133000,  0.032700
  1.135000,  0.035700
  1.137000,  0.038600
  1.139000,  0.041200
  1.141000,  0.043800
  1.143000,  0.046400
  1.145000,  0.048900
  1.147000,  0.051500
  1.149000,  0.053900
  1.151000,  0.056300
  1.153000,  0.058500
  1.155000,  0.060800
  1.157000,  0.062900
  1.159000,  0.064800
  1.161000,  0.066600
  1.163000,  0.068200
  1.165000,  0.069700
  1.167000,  0.071100
  1.169000,  0.072400
  1.171000,  0.073800
  1.173000,  0.074900
  1.175000,  0.075800
  1.177000,  0.076700
  1.179000,  0.077400
  1.181000,  0.077900
  1.183000,  0.078400
  1.185000,  0.078800
  1.187000,  0.078900
  1.189000,  0.078800
  1.191000,  0.078700
  1.193000,  0.078300
  1.195000,  0.077800
  1.197000,  0.077200
  1.199000,  0.076600
  1.201000,  0.075800
  1.203000,  0.074900
  1.205000,  0.073700
  1.207000,  0.072400
  1.209000,  0.071000
  1.211000,  0.069400
  1.213000,  0.067700
  1.215000,  0.065800
  1.217000,  0.063900
  1.219000,  0.061800
  1.221000,  0.059700
  1.223000,  0.057400
  1.225000,  0.055100
  1.227000,  0.052700
  1.229000,  0.050100
  1.231000,  0.047400
  1.233000,  0.044700
  1.235000,  0.041900
  1.237000,  0.039000
  1.239000,  0.036100
  1.241000,  0.033100
  1.243000,  0.030000
  1.245000,  0.027100
  1.247000,  0.024000
  1.249000,  0.020900
  1.251000,  0.017900
  1.253000,  0.014800
  1.255000,  0.011700
  1.257000,  0.008600
  1.259000,  0.005500
  1.261000,  0.002400
  1.263000, -0.000700
  1.265000, -0.003800
  1.267000, -0.007000
  1.269000, -0.010100
  1.271000, -0.013200
  1.273000, -0.016200
  1.275000, -0.019100
  1.277000, -0.022000
  1.279000, -0.024700
  1.281000, -0.027400
  1.283000, -0.030000
  1.285000, -0.032600
  1.287000, -0.035000
  1.289000, -0.037300
  1.291000, -0.039500
  1.293000, -0.041500
  1.295000, -0.043400
  1.297000, -0.045300
  1.299000, -0.047200
  1.301000, -0.048900
  1.303000, -0.050400
  1.305000, -0.051800
  1.307000, -0.053000
  1.309000, -0.054200
  1.311000, -0.055300
  1.313000, -0.056200
  1.315000, -0.057100
  1.317000, -0.057600
  1.319000, -0.057800
  1.321000, -0.057900
  1.323000, -0.057800
  1.325000, -0.057500
  1.327000, -0.057100
  1.329000, -0.056500
  1.331000, -0.055700
  1.333000, -0.054600
  1.335000, -0.053300
  1.337000, -0.051800
  1.339000, -0.050000
  1.341000, -0.048000
  1.343000, -0.045800
  1.345000, -0.043100
  1.347000, -0.040300
  1.349000, -0.037300
  1.351000, -0.034100
  1.353000, -0.030700
  1.355000, -0.027100
  1.357000, -0.023300
  1.359000, -0.019400
  1.361000, -0.015400
  1.363000, -0.011300
  1.365000, -0.006900
  1.367000, -0.002300
  1.369000,  0.002200
  1.371000,  0.006900
  1.373000,  0.011700
  1.375000,  0.016400
  1.377000,  0.021300
  1.379000,  0.026200
  1.381000,  0.031000
  1.383000,  0.036100
  1.385000,  0.041100
  1.387000,  0.045800
  1.389000,  0.050200
  1.391000,  0.054300
  1.393000,  0.058100
  1.395000,  0.061700
  1.397000,  0.065000
  1.399000,  0.067400
