# z (nm)   (kJ/mol)
  0.271000, 15.931100
  0.273000, 15.508700
  0.275000, 15.062800
  0.277000, 14.599900
  0.279000, 14.125300
  0.281000, 13.641400
  0.283000, 13.138200
  0.285000, 12.621500
  0.287000, 12.084000
  0.289000, 11.524800
  0.291000, 10.952300
  0.293000, 10.370100
  0.295000,  9.779100
  0.297000,  9.179200
  0.299000,  8.569500
  0.301000,  7.949800
  0.303000,  7.317300
  0.305000,  6.673800
  0.307000,  6.024700
  0.309000,  5.368600
  0.311000,  4.706400
  0.313000,  4.038000
  0.315000,  3.360000
  0.317000,  2.674600
  0.319000,  1.987000
  0.321000,  1.296700
  0.323000,  0.605100
  0.325000, -0.090100
  0.327000, -0.785900
  0.329000, -1.478700
  0.331000, -2.171200
  0.333000, -2.859800
  0.335000, -3.543500
  0.337000, -4.221300
  0.339000, -4.890800
  0.341000, -5.549300
  0.343000, -6.199200
  0.345000, -6.845000
  0.347000, -7.481600
  0.349000, -8.108500
  0.351000, -8.723800
  0.353000, -9.328700
  0.355000, -9.929900
  0.357000,-10.521100
  0.359000,-11.099900
  0.361000,-11.665600
  0.363000,-12.219300
  0.365000,-12.764400
  0.367000,-13.294800
  0.369000,-13.814900
  0.371000,-14.323900
  0.373000,-14.820000
  0.375000,-15.301000
  0.377000,-15.766800
  0.379000,-16.220900
  0.381000,-16.661800
  0.383000,-17.089500
  0.385000,-17.499000
  0.387000,-17.893000
  0.389000,-18.272400
  0.391000,-18.634000
  0.393000,-18.978600
  0.395000,-19.308500
  0.397000,-19.621000
  0.399000,-19.914000
  0.401000,-20.191400
  0.403000,-20.453000
  0.405000,-20.695400
  0.407000,-20.921100
  0.409000,-21.129700
  0.411000,-21.318700
  0.413000,-21.495000
  0.415000,-21.658200
  0.417000,-21.802800
  0.419000,-21.929300
  0.421000,-22.039500
  0.423000,-22.134900
  0.425000,-22.217600
  0.427000,-22.288900
  0.429000,-22.347600
  0.431000,-22.389700
  0.433000,-22.416600
  0.435000,-22.431200
  0.437000,-22.436100
  0.439000,-22.434000
  0.441000,-22.420900
  0.443000,-22.396200
  0.445000,-22.362000
  0.447000,-22.315600
  0.449000,-22.259700
  0.451000,-22.198800
  0.453000,-22.129500
  0.455000,-22.053700
  0.457000,-21.971900
  0.459000,-21.882900
  0.461000,-21.789100
  0.463000,-21.690100
  0.465000,-21.584800
  0.467000,-21.474500
  0.469000,-21.360200
  0.471000,-21.241300
  0.473000,-21.116900
  0.475000,-20.988100
  0.477000,-20.856400
  0.479000,-20.719900
  0.481000,-20.578500
  0.483000,-20.433500
  0.485000,-20.284800
  0.487000,-20.132000
  0.489000,-19.974500
  0.491000,-19.812700
  0.493000,-19.647200
  0.495000,-19.477700
  0.497000,-19.303800
  0.499000,-19.125200
  0.501000,-18.941500
  0.503000,-18.753300
  0.505000,-18.560700
  0.507000,-18.364100
  0.509000,-18.163500
  0.511000,-17.958500
  0.513000,-17.749200
  0.515000,-17.536000
  0.517000,-17.318300
  0.519000,-17.096700
  0.521000,-16.871100
  0.523000,-16.641600
  0.525000,-16.408300
  0.527000,-16.172200
  0.529000,-15.932700
  0.531000,-15.689900
  0.533000,-15.444300
  0.535000,-15.195900
  0.537000,-14.945100
  0.539000,-14.692400
  0.541000,-14.437700
  0.543000,-14.180900
  0.545000,-13.922500
  0.547000,-13.663300
  0.549000,-13.403100
  0.551000,-13.142200
  0.553000,-12.880700
  0.555000,-12.619100
  0.557000,-12.357400
  0.559000,-12.096400
  0.561000,-11.836100
  0.563000,-11.576600
  0.565000,-11.318700
  0.567000,-11.062100
  0.569000,-10.806800
  0.571000,-10.553600
  0.573000,-10.303200
  0.575000,-10.055100
  0.577000, -9.809400
  0.579000, -9.566600
  0.581000, -9.326700
  0.583000, -9.089400
  0.585000, -8.855400
  0.587000, -8.624300
  0.589000, -8.396300
  0.591000, -8.172500
  0.593000, -7.952300
  0.595000, -7.736300
  0.597000, -7.524300
  0.599000, -7.316400
  0.601000, -7.112100
  0.603000, -6.912300
  0.605000, -6.717300
  0.607000, -6.526300
  0.609000, -6.339200
  0.611000, -6.155200
  0.613000, -5.975700
  0.615000, -5.800700
  0.617000, -5.630500
  0.619000, -5.465200
  0.621000, -5.304000
  0.623000, -5.147100
  0.625000, -4.994700
  0.627000, -4.846600
  0.629000, -4.702400
  0.631000, -4.563100
  0.633000, -4.429200
  0.635000, -4.299500
  0.637000, -4.174400
  0.639000, -4.053600
  0.641000, -3.936500
  0.643000, -3.824200
  0.645000, -3.716300
  0.647000, -3.612100
  0.649000, -3.513000
  0.651000, -3.418100
  0.653000, -3.327100
  0.655000, -3.240700
  0.657000, -3.158500
  0.659000, -3.080400
  0.661000, -3.006200
  0.663000, -2.936100
  0.665000, -2.869900
  0.667000, -2.807800
  0.669000, -2.750100
  0.671000, -2.696100
  0.673000, -2.645600
  0.675000, -2.598900
  0.677000, -2.556000
  0.679000, -2.516700
  0.681000, -2.480900
  0.683000, -2.448700
  0.685000, -2.419800
  0.687000, -2.393700
  0.689000, -2.371100
  0.691000, -2.351700
  0.693000, -2.334800
  0.695000, -2.321000
  0.697000, -2.309800
  0.699000, -2.301300
  0.701000, -2.295200
  0.703000, -2.291000
  0.705000, -2.289100
  0.707000, -2.288800
  0.709000, -2.290600
  0.711000, -2.294300
  0.713000, -2.299800
  0.715000, -2.307300
  0.717000, -2.316500
  0.719000, -2.326500
  0.721000, -2.337000
  0.723000, -2.349100
  0.725000, -2.362500
  0.727000, -2.376900
  0.729000, -2.391600
  0.731000, -2.405700
  0.733000, -2.420700
  0.735000, -2.436900
  0.737000, -2.453100
  0.739000, -2.469200
  0.741000, -2.484700
  0.743000, -2.499900
  0.745000, -2.515300
  0.747000, -2.530300
  0.749000, -2.544000
  0.751000, -2.556900
  0.753000, -2.569600
  0.755000, -2.581500
  0.757000, -2.592700
  0.759000, -2.602900
  0.761000, -2.611800
  0.763000, -2.620300
  0.765000, -2.627900
  0.767000, -2.634500
  0.769000, -2.639900
  0.771000, -2.643300
  0.773000, -2.645200
  0.775000, -2.646400
  0.777000, -2.646100
  0.779000, -2.644500
  0.781000, -2.641400
  0.783000, -2.636800
  0.785000, -2.630900
  0.787000, -2.623400
  0.789000, -2.614500
  0.791000, -2.604300
  0.793000, -2.592900
  0.795000, -2.580200
  0.797000, -2.565900
  0.799000, -2.549900
  0.801000, -2.532500
  0.803000, -2.513800
  0.805000, -2.493700
  0.807000, -2.472200
  0.809000, -2.449400
  0.811000, -2.425400
  0.813000, -2.400200
  0.815000, -2.373900
  0.817000, -2.346500
  0.819000, -2.317800
  0.821000, -2.288000
  0.823000, -2.257000
  0.825000, -2.225100
  0.827000, -2.192400
  0.829000, -2.159000
  0.831000, -2.124800
  0.833000, -2.089800
  0.835000, -2.054100
  0.837000, -2.017600
  0.839000, -1.980400
  0.841000, -1.942700
  0.843000, -1.904600
  0.845000, -1.866100
  0.847000, -1.827100
  0.849000, -1.787600
  0.851000, -1.747700
  0.853000, -1.707900
  0.855000, -1.667900
  0.857000, -1.627700
  0.859000, -1.587700
  0.861000, -1.547700
  0.863000, -1.507600
  0.865000, -1.467500
  0.867000, -1.427600
  0.869000, -1.387700
  0.871000, -1.348000
  0.873000, -1.308600
  0.875000, -1.269600
  0.877000, -1.231400
  0.879000, -1.193600
  0.881000, -1.156100
  0.883000, -1.118800
  0.885000, -1.081800
  0.887000, -1.045200
  0.889000, -1.009200
  0.891000, -0.974000
  0.893000, -0.939400
  0.895000, -0.905300
  0.897000, -0.872000
  0.899000, -0.839100
  0.901000, -0.807000
  0.903000, -0.775700
  0.905000, -0.745100
  0.907000, -0.715100
  0.909000, -0.685900
  0.911000, -0.657600
  0.913000, -0.630000
  0.915000, -0.603300
  0.917000, -0.577400
  0.919000, -0.552300
  0.921000, -0.527800
  0.923000, -0.504000
  0.925000, -0.481200
  0.927000, -0.459400
  0.929000, -0.438400
  0.931000, -0.418400
  0.933000, -0.399300
  0.935000, -0.381100
  0.937000, -0.363700
  0.939000, -0.347300
  0.941000, -0.332000
  0.943000, -0.317500
  0.945000, -0.304000
  0.947000, -0.291300
  0.949000, -0.279400
  0.951000, -0.268500
  0.953000, -0.258600
  0.955000, -0.249400
  0.957000, -0.241100
  0.959000, -0.233600
  0.961000, -0.227000
  0.963000, -0.221400
  0.965000, -0.216500
  0.967000, -0.212600
  0.969000, -0.209500
  0.971000, -0.207200
  0.973000, -0.205700
  0.975000, -0.204900
  0.977000, -0.204700
  0.979000, -0.205400
  0.981000, -0.206700
  0.983000, -0.208600
  0.985000, -0.211300
  0.987000, -0.214400
  0.989000, -0.218100
  0.991000, -0.222500
  0.993000, -0.227400
  0.995000, -0.232800
  0.997000, -0.238600
  0.999000, -0.244900
  1.001000, -0.251500
  1.003000, -0.258400
  1.005000, -0.265600
  1.007000, -0.272900
  1.009000, -0.280500
  1.011000, -0.288300
  1.013000, -0.296400
  1.015000, -0.304700
  1.017000, -0.312900
  1.019000, -0.321200
  1.021000, -0.329300
  1.023000, -0.337400
  1.025000, -0.345600
  1.027000, -0.353800
  1.029000, -0.361800
  1.031000, -0.369700
  1.033000, -0.377500
  1.035000, -0.384900
  1.037000, -0.392000
  1.039000, -0.399100
  1.041000, -0.405800
  1.043000, -0.412200
  1.045000, -0.418500
  1.047000, -0.424200
  1.049000, -0.429600
  1.051000, -0.434600
  1.053000, -0.439100
  1.055000, -0.443400
  1.057000, -0.447300
  1.059000, -0.450900
  1.061000, -0.454000
  1.063000, -0.456700
  1.065000, -0.458900
  1.067000, -0.460500
  1.069000, -0.461700
  1.071000, -0.462600
  1.073000, -0.463100
  1.075000, -0.463300
  1.077000, -0.463000
  1.079000, -0.462400
  1.081000, -0.461200
  1.083000, -0.459700
  1.085000, -0.458000
  1.087000, -0.455900
  1.089000, -0.453300
  1.091000, -0.450400
  1.093000, -0.447300
  1.095000, -0.443700
  1.097000, -0.439800
  1.099000, -0.435800
  1.101000, -0.431600
  1.103000, -0.427100
  1.105000, -0.422400
  1.107000, -0.417300
  1.109000, -0.412100
  1.111000, -0.406700
  1.113000, -0.401100
  1.115000, -0.395300
  1.117000, -0.389500
  1.119000, -0.383500
  1.121000, -0.377300
  1.123000, -0.370900
  1.125000, -0.364600
  1.127000, -0.358100
  1.129000, -0.351500
  1.131000, -0.345000
  1.133000, -0.338400
  1.135000, -0.331700
  1.137000, -0.325000
  1.139000, -0.318200
  1.141000, -0.311300
  1.143000, -0.304400
  1.145000, -0.297500
  1.147000, -0.290600
  1.149000, -0.283700
  1.151000, -0.276700
  1.153000, -0.269800
  1.155000, -0.262800
  1.157000, -0.255900
  1.159000, -0.248900
  1.161000, -0.242000
  1.163000, -0.235100
  1.165000, -0.228100
  1.167000, -0.221200
  1.169000, -0.214200
  1.171000, -0.207300
  1.173000, -0.200400
  1.175000, -0.193600
  1.177000, -0.186900
  1.179000, -0.180000
  1.181000, -0.173100
  1.183000, -0.166200
  1.185000, -0.159400
  1.187000, -0.152600
  1.189000, -0.145800
  1.191000, -0.139200
  1.193000, -0.132600
  1.195000, -0.125900
  1.197000, -0.119400
  1.199000, -0.112900
  1.201000, -0.106500
  1.203000, -0.100200
  1.205000, -0.094100
  1.207000, -0.088100
  1.209000, -0.082100
  1.211000, -0.076300
  1.213000, -0.070700
  1.215000, -0.065100
  1.217000, -0.059600
  1.219000, -0.054400
  1.221000, -0.049300
  1.223000, -0.044400
  1.225000, -0.039700
  1.227000, -0.035300
  1.229000, -0.031000
  1.231000, -0.026900
  1.233000, -0.023100
  1.235000, -0.019500
  1.237000, -0.016100
  1.239000, -0.012900
  1.241000, -0.010000
  1.243000, -0.007200
  1.245000, -0.004700
  1.247000, -0.002500
  1.249000, -0.000600
  1.251000,  0.001100
  1.253000,  0.002800
  1.255000,  0.004100
  1.257000,  0.005200
  1.259000,  0.006200
  1.261000,  0.007000
  1.263000,  0.007500
  1.265000,  0.007900
  1.267000,  0.008100
  1.269000,  0.008100
  1.271000,  0.007700
  1.273000,  0.007400
  1.275000,  0.007000
  1.277000,  0.006400
  1.279000,  0.005600
  1.281000,  0.004800
  1.283000,  0.003900
  1.285000,  0.003000
  1.287000,  0.002000
  1.289000,  0.001000
  1.291000, -0.000200
  1.293000, -0.001400
  1.295000, -0.002700
  1.297000, -0.003700
  1.299000, -0.004700
  1.301000, -0.005600
  1.303000, -0.006200
  1.305000, -0.006900
  1.307000, -0.007500
  1.309000, -0.008000
  1.311000, -0.008400
  1.313000, -0.008700
  1.315000, -0.008800
  1.317000, -0.008600
  1.319000, -0.008400
  1.321000, -0.008000
  1.323000, -0.007600
  1.325000, -0.007000
  1.327000, -0.006100
  1.329000, -0.005000
  1.331000, -0.003800
  1.333000, -0.002300
  1.335000, -0.000800
  1.337000,  0.000800
  1.339000,  0.002500
  1.341000,  0.004500
  1.343000,  0.006600
  1.345000,  0.008700
  1.347000,  0.010900
  1.349000,  0.013400
  1.351000,  0.016100
  1.353000,  0.018700
  1.355000,  0.021500
  1.357000,  0.024400
  1.359000,  0.027300
  1.361000,  0.030200
  1.363000,  0.033100
  1.365000,  0.036000
  1.367000,  0.038800
  1.369000,  0.041700
  1.371000,  0.044600
  1.373000,  0.047400
  1.375000,  0.050200
  1.377000,  0.052900
  1.379000,  0.055400
  1.381000,  0.057700
  1.383000,  0.059800
  1.385000,  0.061700
  1.387000,  0.063700
  1.389000,  0.065200
  1.391000,  0.066500
  1.393000,  0.067500
  1.395000,  0.068200
  1.397000,  0.068400
  1.399000,  0.068300
