# z (nm)   (kJ/mol)
  0.227000,  9.551000
  0.229000,  9.003400
  0.231000,  8.483300
  0.233000,  7.963600
  0.235000,  7.419100
  0.237000,  6.852800
  0.239000,  6.270700
  0.241000,  5.694600
  0.243000,  5.101200
  0.245000,  4.494200
  0.247000,  3.883800
  0.249000,  3.258800
  0.251000,  2.629200
  0.253000,  1.997700
  0.255000,  1.363000
  0.257000,  0.722100
  0.259000,  0.079600
  0.261000, -0.559000
  0.263000, -1.197300
  0.265000, -1.834900
  0.267000, -2.469700
  0.269000, -3.103100
  0.271000, -3.729000
  0.273000, -4.344900
  0.275000, -4.958100
  0.277000, -5.567800
  0.279000, -6.165900
  0.281000, -6.750800
  0.283000, -7.331400
  0.285000, -7.908300
  0.287000, -8.475700
  0.289000, -9.034000
  0.291000, -9.577100
  0.293000,-10.108500
  0.295000,-10.629400
  0.297000,-11.133000
  0.299000,-11.623100
  0.301000,-12.102700
  0.303000,-12.568500
  0.305000,-13.018700
  0.307000,-13.453800
  0.309000,-13.871100
  0.311000,-14.269400
  0.313000,-14.651000
  0.315000,-15.016300
  0.317000,-15.363800
  0.319000,-15.691700
  0.321000,-15.999800
  0.323000,-16.288300
  0.325000,-16.557600
  0.327000,-16.806700
  0.329000,-17.035600
  0.331000,-17.244900
  0.333000,-17.433900
  0.335000,-17.602200
  0.337000,-17.749800
  0.339000,-17.877900
  0.341000,-17.986300
  0.343000,-18.074000
  0.345000,-18.141400
  0.347000,-18.188600
  0.349000,-18.218000
  0.351000,-18.228500
  0.353000,-18.219700
  0.355000,-18.194400
  0.357000,-18.151900
  0.359000,-18.091200
  0.361000,-18.014100
  0.363000,-17.922300
  0.365000,-17.817300
  0.367000,-17.697400
  0.369000,-17.562900
  0.371000,-17.416900
  0.373000,-17.258700
  0.375000,-17.087600
  0.377000,-16.905800
  0.379000,-16.713700
  0.381000,-16.512800
  0.383000,-16.305900
  0.385000,-16.092100
  0.387000,-15.871300
  0.389000,-15.645200
  0.391000,-15.414000
  0.393000,-15.178600
  0.395000,-14.939600
  0.397000,-14.697800
  0.399000,-14.453900
  0.401000,-14.208700
  0.403000,-13.963100
  0.405000,-13.717400
  0.407000,-13.472300
  0.409000,-13.228400
  0.411000,-12.986200
  0.413000,-12.746000
  0.415000,-12.508700
  0.417000,-12.274200
  0.419000,-12.043100
  0.421000,-11.815900
  0.423000,-11.592500
  0.425000,-11.373400
  0.427000,-11.159000
  0.429000,-10.949700
  0.431000,-10.745200
  0.433000,-10.545900
  0.435000,-10.352100
  0.437000,-10.163300
  0.439000, -9.980000
  0.441000, -9.802300
  0.443000, -9.629900
  0.445000, -9.463200
  0.447000, -9.301900
  0.449000, -9.146600
  0.451000, -8.996500
  0.453000, -8.851300
  0.455000, -8.711500
  0.457000, -8.576800
  0.459000, -8.446200
  0.461000, -8.320000
  0.463000, -8.198100
  0.465000, -8.080200
  0.467000, -7.966100
  0.469000, -7.855500
  0.471000, -7.747800
  0.473000, -7.642900
  0.475000, -7.540800
  0.477000, -7.441600
  0.479000, -7.344200
  0.481000, -7.248100
  0.483000, -7.154100
  0.485000, -7.061600
  0.487000, -6.969000
  0.489000, -6.876900
  0.491000, -6.785100
  0.493000, -6.693200
  0.495000, -6.600900
  0.497000, -6.507800
  0.499000, -6.414100
  0.501000, -6.319300
  0.503000, -6.223100
  0.505000, -6.125500
  0.507000, -6.026000
  0.509000, -5.924700
  0.511000, -5.821100
  0.513000, -5.715200
  0.515000, -5.607100
  0.517000, -5.496600
  0.519000, -5.383500
  0.521000, -5.267700
  0.523000, -5.148900
  0.525000, -5.027200
  0.527000, -4.902800
  0.529000, -4.775500
  0.531000, -4.645000
  0.533000, -4.512000
  0.535000, -4.377500
  0.537000, -4.240800
  0.539000, -4.100600
  0.541000, -3.957700
  0.543000, -3.814200
  0.545000, -3.669000
  0.547000, -3.521800
  0.549000, -3.373700
  0.551000, -3.225400
  0.553000, -3.075600
  0.555000, -2.925000
  0.557000, -2.774800
  0.559000, -2.624600
  0.561000, -2.474500
  0.563000, -2.322800
  0.565000, -2.172400
  0.567000, -2.025800
  0.569000, -1.881400
  0.571000, -1.738600
  0.573000, -1.596600
  0.575000, -1.456200
  0.577000, -1.318900
  0.579000, -1.184900
  0.581000, -1.055000
  0.583000, -0.929100
  0.585000, -0.806500
  0.587000, -0.687500
  0.589000, -0.573800
  0.591000, -0.465800
  0.593000, -0.362800
  0.595000, -0.265300
  0.597000, -0.174000
  0.599000, -0.088000
  0.601000, -0.007200
  0.603000,  0.067800
  0.605000,  0.136200
  0.607000,  0.198400
  0.609000,  0.254900
  0.611000,  0.305700
  0.613000,  0.350400
  0.615000,  0.389200
  0.617000,  0.421900
  0.619000,  0.448800
  0.621000,  0.470200
  0.623000,  0.486000
  0.625000,  0.496300
  0.627000,  0.501000
  0.629000,  0.500100
  0.631000,  0.494600
  0.633000,  0.484500
  0.635000,  0.469600
  0.637000,  0.450400
  0.639000,  0.428100
  0.641000,  0.402100
  0.643000,  0.372300
  0.645000,  0.339600
  0.647000,  0.304700
  0.649000,  0.267200
  0.651000,  0.226700
  0.653000,  0.183500
  0.655000,  0.138400
  0.657000,  0.092000
  0.659000,  0.044400
  0.661000, -0.003800
  0.663000, -0.053200
  0.665000, -0.103000
  0.667000, -0.152800
  0.669000, -0.203300
  0.671000, -0.253500
  0.673000, -0.303400
  0.675000, -0.352900
  0.677000, -0.401500
  0.679000, -0.449500
  0.681000, -0.496500
  0.683000, -0.542600
  0.685000, -0.587100
  0.687000, -0.630100
  0.689000, -0.671800
  0.691000, -0.712000
  0.693000, -0.750400
  0.695000, -0.787000
  0.697000, -0.821900
  0.699000, -0.854800
  0.701000, -0.885600
  0.703000, -0.914500
  0.705000, -0.941800
  0.707000, -0.967300
  0.709000, -0.991000
  0.711000, -1.013000
  0.713000, -1.033200
  0.715000, -1.051800
  0.717000, -1.068300
  0.719000, -1.083200
  0.721000, -1.096400
  0.723000, -1.108100
  0.725000, -1.118300
  0.727000, -1.126700
  0.729000, -1.133200
  0.731000, -1.138700
  0.733000, -1.143300
  0.735000, -1.146600
  0.737000, -1.148800
  0.739000, -1.150000
  0.741000, -1.150200
  0.743000, -1.149300
  0.745000, -1.147500
  0.747000, -1.145000
  0.749000, -1.141800
  0.751000, -1.137900
  0.753000, -1.133400
  0.755000, -1.128400
  0.757000, -1.123000
  0.759000, -1.117000
  0.761000, -1.110500
  0.763000, -1.103600
  0.765000, -1.096300
  0.767000, -1.088900
  0.769000, -1.081300
  0.771000, -1.073300
  0.773000, -1.065000
  0.775000, -1.056600
  0.777000, -1.048100
  0.779000, -1.039100
  0.781000, -1.029800
  0.783000, -1.020300
  0.785000, -1.010600
  0.787000, -1.000500
  0.789000, -0.990200
  0.791000, -0.979500
  0.793000, -0.968700
  0.795000, -0.957500
  0.797000, -0.945900
  0.799000, -0.933900
  0.801000, -0.921600
  0.803000, -0.908900
  0.805000, -0.895800
  0.807000, -0.882300
  0.809000, -0.868300
  0.811000, -0.853800
  0.813000, -0.838900
  0.815000, -0.823600
  0.817000, -0.807800
  0.819000, -0.791500
  0.821000, -0.774900
  0.823000, -0.757700
  0.825000, -0.739900
  0.827000, -0.721700
  0.829000, -0.703100
  0.831000, -0.684000
  0.833000, -0.664400
  0.835000, -0.644300
  0.837000, -0.623700
  0.839000, -0.602900
  0.841000, -0.581700
  0.843000, -0.560000
  0.845000, -0.538100
  0.847000, -0.515900
  0.849000, -0.493600
  0.851000, -0.470900
  0.853000, -0.448000
  0.855000, -0.425000
  0.857000, -0.401800
  0.859000, -0.378500
  0.861000, -0.355100
  0.863000, -0.331800
  0.865000, -0.308600
  0.867000, -0.285400
  0.869000, -0.262300
  0.871000, -0.239600
  0.873000, -0.217100
  0.875000, -0.194800
  0.877000, -0.172800
  0.879000, -0.151200
  0.881000, -0.129700
  0.883000, -0.108600
  0.885000, -0.088300
  0.887000, -0.068500
  0.889000, -0.049100
  0.891000, -0.030300
  0.893000, -0.012100
  0.895000,  0.005600
  0.897000,  0.022700
  0.899000,  0.039100
  0.901000,  0.054800
  0.903000,  0.069800
  0.905000,  0.084100
  0.907000,  0.097700
  0.909000,  0.110600
  0.911000,  0.122700
  0.913000,  0.134100
  0.915000,  0.144700
  0.917000,  0.154400
  0.919000,  0.163500
  0.921000,  0.171700
  0.923000,  0.179200
  0.925000,  0.185900
  0.927000,  0.191800
  0.929000,  0.196900
  0.931000,  0.201300
  0.933000,  0.205000
  0.935000,  0.208100
  0.937000,  0.210400
  0.939000,  0.211900
  0.941000,  0.212700
  0.943000,  0.212800
  0.945000,  0.212400
  0.947000,  0.211300
  0.949000,  0.209700
  0.951000,  0.207500
  0.953000,  0.204600
  0.955000,  0.201300
  0.957000,  0.197500
  0.959000,  0.193000
  0.961000,  0.187900
  0.963000,  0.182500
  0.965000,  0.176800
  0.967000,  0.170700
  0.969000,  0.164200
  0.971000,  0.157400
  0.973000,  0.150200
  0.975000,  0.142300
  0.977000,  0.134000
  0.979000,  0.125300
  0.981000,  0.116400
  0.983000,  0.107600
  0.985000,  0.098400
  0.987000,  0.088800
  0.989000,  0.079000
  0.991000,  0.069300
  0.993000,  0.059600
  0.995000,  0.049600
  0.997000,  0.039400
  0.999000,  0.028800
  1.001000,  0.018300
  1.003000,  0.008100
  1.005000, -0.002000
  1.007000, -0.012500
  1.009000, -0.023100
  1.011000, -0.033800
  1.013000, -0.044300
  1.015000, -0.054700
  1.017000, -0.065200
  1.019000, -0.075700
  1.021000, -0.086200
  1.023000, -0.096500
  1.025000, -0.106600
  1.027000, -0.116500
  1.029000, -0.126200
  1.031000, -0.135700
  1.033000, -0.144800
  1.035000, -0.153900
  1.037000, -0.162900
  1.039000, -0.171700
  1.041000, -0.180200
  1.043000, -0.188300
  1.045000, -0.196100
  1.047000, -0.203500
  1.049000, -0.210700
  1.051000, -0.217700
  1.053000, -0.224200
  1.055000, -0.230400
  1.057000, -0.236100
  1.059000, -0.241600
  1.061000, -0.246700
  1.063000, -0.251500
  1.065000, -0.256000
  1.067000, -0.260100
  1.069000, -0.263700
  1.071000, -0.267000
  1.073000, -0.269800
  1.075000, -0.272300
  1.077000, -0.274500
  1.079000, -0.276300
  1.081000, -0.277800
  1.083000, -0.279000
  1.085000, -0.279600
  1.087000, -0.279900
  1.089000, -0.280000
  1.091000, -0.279700
  1.093000, -0.279000
  1.095000, -0.278000
  1.097000, -0.276600
  1.099000, -0.274800
  1.101000, -0.272800
  1.103000, -0.270700
  1.105000, -0.268400
  1.107000, -0.265700
  1.109000, -0.262700
  1.111000, -0.259400
  1.113000, -0.256000
  1.115000, -0.252300
  1.117000, -0.248500
  1.119000, -0.244400
  1.121000, -0.240100
  1.123000, -0.235500
  1.125000, -0.230600
  1.127000, -0.225800
  1.129000, -0.221000
  1.131000, -0.216100
  1.133000, -0.211000
  1.135000, -0.205700
  1.137000, -0.200200
  1.139000, -0.194600
  1.141000, -0.188900
  1.143000, -0.183200
  1.145000, -0.177700
  1.147000, -0.172000
  1.149000, -0.166200
  1.151000, -0.160500
  1.153000, -0.154700
  1.155000, -0.148800
  1.157000, -0.142800
  1.159000, -0.136900
  1.161000, -0.131000
  1.163000, -0.125300
  1.165000, -0.119500
  1.167000, -0.113600
  1.169000, -0.107800
  1.171000, -0.102100
  1.173000, -0.096200
  1.175000, -0.090300
  1.177000, -0.084600
  1.179000, -0.079000
  1.181000, -0.073700
  1.183000, -0.068500
  1.185000, -0.063100
  1.187000, -0.057800
  1.189000, -0.052600
  1.191000, -0.047600
  1.193000, -0.042700
  1.195000, -0.038100
  1.197000, -0.033600
  1.199000, -0.029200
  1.201000, -0.024800
  1.203000, -0.020400
  1.205000, -0.016200
  1.207000, -0.012300
  1.209000, -0.008500
  1.211000, -0.004900
  1.213000, -0.001400
  1.215000,  0.001800
  1.217000,  0.004900
  1.219000,  0.007800
  1.221000,  0.010500
  1.223000,  0.013100
  1.225000,  0.015500
  1.227000,  0.017700
  1.229000,  0.019800
  1.231000,  0.021700
  1.233000,  0.023300
  1.235000,  0.024700
  1.237000,  0.025900
  1.239000,  0.026900
  1.241000,  0.027800
  1.243000,  0.028500
  1.245000,  0.028900
  1.247000,  0.029200
  1.249000,  0.029200
  1.251000,  0.029200
  1.253000,  0.029000
  1.255000,  0.028700
  1.257000,  0.028200
  1.259000,  0.027500
  1.261000,  0.026600
  1.263000,  0.025700
  1.265000,  0.024700
  1.267000,  0.023500
  1.269000,  0.022200
  1.271000,  0.020800
  1.273000,  0.019300
  1.275000,  0.017700
  1.277000,  0.016000
  1.279000,  0.014100
  1.281000,  0.012300
  1.283000,  0.010600
  1.285000,  0.008700
  1.287000,  0.006600
  1.289000,  0.004600
  1.291000,  0.002600
  1.293000,  0.000600
  1.295000, -0.001300
  1.297000, -0.003000
  1.299000, -0.004700
  1.301000, -0.006500
  1.303000, -0.008300
  1.305000, -0.009800
  1.307000, -0.011300
  1.309000, -0.012700
  1.311000, -0.013900
  1.313000, -0.015100
  1.315000, -0.016400
  1.317000, -0.017600
  1.319000, -0.018600
  1.321000, -0.019400
  1.323000, -0.020100
  1.325000, -0.020700
  1.327000, -0.021300
  1.329000, -0.021500
  1.331000, -0.021600
  1.333000, -0.021800
  1.335000, -0.021800
  1.337000, -0.021700
  1.339000, -0.021400
  1.341000, -0.021200
  1.343000, -0.020900
  1.345000, -0.020400
  1.347000, -0.019700
  1.349000, -0.019000
  1.351000, -0.018100
  1.353000, -0.017200
  1.355000, -0.016300
  1.357000, -0.015200
  1.359000, -0.014200
  1.361000, -0.013100
  1.363000, -0.012100
  1.365000, -0.011200
  1.367000, -0.010200
  1.369000, -0.009100
  1.371000, -0.007900
  1.373000, -0.006800
  1.375000, -0.006000
  1.377000, -0.005300
  1.379000, -0.004600
  1.381000, -0.003800
  1.383000, -0.003300
  1.385000, -0.002800
  1.387000, -0.002700
  1.389000, -0.002900
  1.391000, -0.003100
  1.393000, -0.003700
  1.395000, -0.004500
  1.397000, -0.005600
  1.399000, -0.007200
