# z (nm)   (kJ/mol)
  0.2270    9.55100
  0.2290    9.00340
  0.2310    8.48330
  0.2330    7.96360
  0.2350    7.41910
  0.2370    6.85280
  0.2390    6.27070
  0.2410    5.69460
  0.2430    5.10120
  0.2450    4.49420
  0.2470    3.88380
  0.2490    3.25880
  0.2510    2.62920
  0.2530    1.99770
  0.2550    1.36300
  0.2570    0.72210
  0.2590    0.07960
  0.2610   -0.55900
  0.2630   -1.19730
  0.2650   -1.83490
  0.2670   -2.46970
  0.2690   -3.10310
  0.2710   -3.72900
  0.2730   -4.34490
  0.2750   -4.95810
  0.2770   -5.56780
  0.2790   -6.16590
  0.2810   -6.75080
  0.2830   -7.33140
  0.2850   -7.90830
  0.2870   -8.47570
  0.2890   -9.03400
  0.2910   -9.57710
  0.2930  -10.10850
  0.2950  -10.62940
  0.2970  -11.13300
  0.2990  -11.62310
  0.3010  -12.10270
  0.3030  -12.56850
  0.3050  -13.01870
  0.3070  -13.45380
  0.3090  -13.87110
  0.3110  -14.26940
  0.3130  -14.65100
  0.3150  -15.01630
  0.3170  -15.36380
  0.3190  -15.69170
  0.3210  -15.99980
  0.3230  -16.28830
  0.3250  -16.55760
  0.3270  -16.80670
  0.3290  -17.03560
  0.3310  -17.24490
  0.3330  -17.43390
  0.3350  -17.60220
  0.3370  -17.74980
  0.3390  -17.87790
  0.3410  -17.98630
  0.3430  -18.07400
  0.3450  -18.14140
  0.3470  -18.18860
  0.3490  -18.21800
  0.3510  -18.22850
  0.3530  -18.21970
  0.3550  -18.19440
  0.3570  -18.15190
  0.3590  -18.09120
  0.3610  -18.01410
  0.3630  -17.92230
  0.3650  -17.81730
  0.3670  -17.69740
  0.3690  -17.56290
  0.3710  -17.41690
  0.3730  -17.25870
  0.3750  -17.08760
  0.3770  -16.90580
  0.3790  -16.71370
  0.3810  -16.51280
  0.3830  -16.30590
  0.3850  -16.09210
  0.3870  -15.87130
  0.3890  -15.64520
  0.3910  -15.41400
  0.3930  -15.17860
  0.3950  -14.93960
  0.3970  -14.69780
  0.3990  -14.45390
  0.4010  -14.20870
  0.4030  -13.96310
  0.4050  -13.71740
  0.4070  -13.47230
  0.4090  -13.22840
  0.4110  -12.98620
  0.4130  -12.74600
  0.4150  -12.50870
  0.4170  -12.27420
  0.4190  -12.04310
  0.4210  -11.81590
  0.4230  -11.59250
  0.4250  -11.37340
  0.4270  -11.15900
  0.4290  -10.94970
  0.4310  -10.74520
  0.4330  -10.54590
  0.4350  -10.35210
  0.4370  -10.16330
  0.4390   -9.98000
  0.4410   -9.80230
  0.4430   -9.62990
  0.4450   -9.46320
  0.4470   -9.30190
  0.4490   -9.14660
  0.4510   -8.99650
  0.4530   -8.85130
  0.4550   -8.71150
  0.4570   -8.57680
  0.4590   -8.44620
  0.4610   -8.32000
  0.4630   -8.19810
  0.4650   -8.08020
  0.4670   -7.96610
  0.4690   -7.85550
  0.4710   -7.74780
  0.4730   -7.64290
  0.4750   -7.54080
  0.4770   -7.44160
  0.4790   -7.34420
  0.4810   -7.24810
  0.4830   -7.15410
  0.4850   -7.06160
  0.4870   -6.96900
  0.4890   -6.87690
  0.4910   -6.78510
  0.4930   -6.69320
  0.4950   -6.60090
  0.4970   -6.50780
  0.4990   -6.41410
  0.5010   -6.31930
  0.5030   -6.22310
  0.5050   -6.12550
  0.5070   -6.02600
  0.5090   -5.92470
  0.5110   -5.82110
  0.5130   -5.71520
  0.5150   -5.60710
  0.5170   -5.49660
  0.5190   -5.38350
  0.5210   -5.26770
  0.5230   -5.14890
  0.5250   -5.02720
  0.5270   -4.90280
  0.5290   -4.77550
  0.5310   -4.64500
  0.5330   -4.51200
  0.5350   -4.37750
  0.5370   -4.24080
  0.5390   -4.10060
  0.5410   -3.95770
  0.5430   -3.81420
  0.5450   -3.66900
  0.5470   -3.52180
  0.5490   -3.37370
  0.5510   -3.22540
  0.5530   -3.07560
  0.5550   -2.92500
  0.5570   -2.77480
  0.5590   -2.62460
  0.5610   -2.47450
  0.5630   -2.32280
  0.5650   -2.17240
  0.5670   -2.02580
  0.5690   -1.88140
  0.5710   -1.73860
  0.5730   -1.59660
  0.5750   -1.45620
  0.5770   -1.31890
  0.5790   -1.18490
  0.5810   -1.05500
  0.5830   -0.92910
  0.5850   -0.80650
  0.5870   -0.68750
  0.5890   -0.57380
  0.5910   -0.46580
  0.5930   -0.36280
  0.5950   -0.26530
  0.5970   -0.17400
  0.5990   -0.08800
  0.6010   -0.00720
  0.6030    0.06780
  0.6050    0.13620
  0.6070    0.19840
  0.6090    0.25490
  0.6110    0.30570
  0.6130    0.35040
  0.6150    0.38920
  0.6170    0.42190
  0.6190    0.44880
  0.6210    0.47020
  0.6230    0.48600
  0.6250    0.49630
  0.6270    0.50100
  0.6290    0.50010
  0.6310    0.49460
  0.6330    0.48450
  0.6350    0.46960
  0.6370    0.45040
  0.6390    0.42810
  0.6410    0.40210
  0.6430    0.37230
  0.6450    0.33960
  0.6470    0.30470
  0.6490    0.26720
  0.6510    0.22670
  0.6530    0.18350
  0.6550    0.13840
  0.6570    0.09200
  0.6590    0.04440
  0.6610   -0.00380
  0.6630   -0.05320
  0.6650   -0.10300
  0.6670   -0.15280
  0.6690   -0.20330
  0.6710   -0.25350
  0.6730   -0.30340
  0.6750   -0.35290
  0.6770   -0.40150
  0.6790   -0.44950
  0.6810   -0.49650
  0.6830   -0.54260
  0.6850   -0.58710
  0.6870   -0.63010
  0.6890   -0.67180
  0.6910   -0.71200
  0.6930   -0.75040
  0.6950   -0.78700
  0.6970   -0.82190
  0.6990   -0.85480
  0.7010   -0.88560
  0.7030   -0.91450
  0.7050   -0.94180
  0.7070   -0.96730
  0.7090   -0.99100
  0.7110   -1.01300
  0.7130   -1.03320
  0.7150   -1.05180
  0.7170   -1.06830
  0.7190   -1.08320
  0.7210   -1.09640
  0.7230   -1.10810
  0.7250   -1.11830
  0.7270   -1.12670
  0.7290   -1.13320
  0.7310   -1.13870
  0.7330   -1.14330
  0.7350   -1.14660
  0.7370   -1.14880
  0.7390   -1.15000
  0.7410   -1.15020
  0.7430   -1.14930
  0.7450   -1.14750
  0.7470   -1.14500
  0.7490   -1.14180
  0.7510   -1.13790
  0.7530   -1.13340
  0.7550   -1.12840
  0.7570   -1.12300
  0.7590   -1.11700
  0.7610   -1.11050
  0.7630   -1.10360
  0.7650   -1.09630
  0.7670   -1.08890
  0.7690   -1.08130
  0.7710   -1.07330
  0.7730   -1.06500
  0.7750   -1.05660
  0.7770   -1.04810
  0.7790   -1.03910
  0.7810   -1.02980
  0.7830   -1.02030
  0.7850   -1.01060
  0.7870   -1.00050
  0.7890   -0.99020
  0.7910   -0.97950
  0.7930   -0.96870
  0.7950   -0.95750
  0.7970   -0.94590
  0.7990   -0.93390
  0.8010   -0.92160
  0.8030   -0.90890
  0.8050   -0.89580
  0.8070   -0.88230
  0.8090   -0.86830
  0.8110   -0.85380
  0.8130   -0.83890
  0.8150   -0.82360
  0.8170   -0.80780
  0.8190   -0.79150
  0.8210   -0.77490
  0.8230   -0.75770
  0.8250   -0.73990
  0.8270   -0.72170
  0.8290   -0.70310
  0.8310   -0.68400
  0.8330   -0.66440
  0.8350   -0.64430
  0.8370   -0.62370
  0.8390   -0.60290
  0.8410   -0.58170
  0.8430   -0.56000
  0.8450   -0.53810
  0.8470   -0.51590
  0.8490   -0.49360
  0.8510   -0.47090
  0.8530   -0.44800
  0.8550   -0.42500
  0.8570   -0.40180
  0.8590   -0.37850
  0.8610   -0.35510
  0.8630   -0.33180
  0.8650   -0.30860
  0.8670   -0.28540
  0.8690   -0.26230
  0.8710   -0.23960
  0.8730   -0.21710
  0.8750   -0.19480
  0.8770   -0.17280
  0.8790   -0.15120
  0.8810   -0.12970
  0.8830   -0.10860
  0.8850   -0.08830
  0.8870   -0.06850
  0.8890   -0.04910
  0.8910   -0.03030
  0.8930   -0.01210
  0.8950    0.00560
  0.8970    0.02270
  0.8990    0.03910
  0.9010    0.05480
  0.9030    0.06980
  0.9050    0.08410
  0.9070    0.09770
  0.9090    0.11060
  0.9110    0.12270
  0.9130    0.13410
  0.9150    0.14470
  0.9170    0.15440
  0.9190    0.16350
  0.9210    0.17170
  0.9230    0.17920
  0.9250    0.18590
  0.9270    0.19180
  0.9290    0.19690
  0.9310    0.20130
  0.9330    0.20500
  0.9350    0.20810
  0.9370    0.21040
  0.9390    0.21190
  0.9410    0.21270
  0.9430    0.21280
  0.9450    0.21240
  0.9470    0.21130
  0.9490    0.20970
  0.9510    0.20750
  0.9530    0.20460
  0.9550    0.20130
  0.9570    0.19750
  0.9590    0.19300
  0.9610    0.18790
  0.9630    0.18250
  0.9650    0.17680
  0.9670    0.17070
  0.9690    0.16420
  0.9710    0.15740
  0.9730    0.15020
  0.9750    0.14230
  0.9770    0.13400
  0.9790    0.12530
  0.9810    0.11640
  0.9830    0.10760
  0.9850    0.09840
  0.9870    0.08880
  0.9890    0.07900
  0.9910    0.06930
  0.9930    0.05960
  0.9950    0.04960
  0.9970    0.03940
  0.9990    0.02880
  1.0010    0.01830
  1.0030    0.00810
  1.0050   -0.00200
  1.0070   -0.01250
  1.0090   -0.02310
  1.0110   -0.03380
  1.0130   -0.04430
  1.0150   -0.05470
  1.0170   -0.06520
  1.0190   -0.07570
  1.0210   -0.08620
  1.0230   -0.09650
  1.0250   -0.10660
  1.0270   -0.11650
  1.0290   -0.12620
  1.0310   -0.13570
  1.0330   -0.14480
  1.0350   -0.15390
  1.0370   -0.16290
  1.0390   -0.17170
  1.0410   -0.18020
  1.0430   -0.18830
  1.0450   -0.19610
  1.0470   -0.20350
  1.0490   -0.21070
  1.0510   -0.21770
  1.0530   -0.22420
  1.0550   -0.23040
  1.0570   -0.23610
  1.0590   -0.24160
  1.0610   -0.24670
  1.0630   -0.25150
  1.0650   -0.25600
  1.0670   -0.26010
  1.0690   -0.26370
  1.0710   -0.26700
  1.0730   -0.26980
  1.0750   -0.27230
  1.0770   -0.27450
  1.0790   -0.27630
  1.0810   -0.27780
  1.0830   -0.27900
  1.0850   -0.27960
  1.0870   -0.27990
  1.0890   -0.28000
  1.0910   -0.27970
  1.0930   -0.27900
  1.0950   -0.27800
  1.0970   -0.27660
  1.0990   -0.27480
  1.1010   -0.27280
  1.1030   -0.27070
  1.1050   -0.26840
  1.1070   -0.26570
  1.1090   -0.26270
  1.1110   -0.25940
  1.1130   -0.25600
  1.1150   -0.25230
  1.1170   -0.24850
  1.1190   -0.24440
  1.1210   -0.24010
  1.1230   -0.23550
  1.1250   -0.23060
  1.1270   -0.22580
  1.1290   -0.22100
  1.1310   -0.21610
  1.1330   -0.21100
  1.1350   -0.20570
  1.1370   -0.20020
  1.1390   -0.19460
  1.1410   -0.18890
  1.1430   -0.18320
  1.1450   -0.17770
  1.1470   -0.17200
  1.1490   -0.16620
  1.1510   -0.16050
  1.1530   -0.15470
  1.1550   -0.14880
  1.1570   -0.14280
  1.1590   -0.13690
  1.1610   -0.13100
  1.1630   -0.12530
  1.1650   -0.11950
  1.1670   -0.11360
  1.1690   -0.10780
  1.1710   -0.10210
  1.1730   -0.09620
  1.1750   -0.09030
  1.1770   -0.08460
  1.1790   -0.07900
  1.1810   -0.07370
  1.1830   -0.06850
  1.1850   -0.06310
  1.1870   -0.05780
  1.1890   -0.05260
  1.1910   -0.04760
  1.1930   -0.04270
  1.1950   -0.03810
  1.1970   -0.03360
  1.1990   -0.02920
  1.2010   -0.02480
  1.2030   -0.02040
  1.2050   -0.01620
  1.2070   -0.01230
  1.2090   -0.00850
  1.2110   -0.00490
  1.2130   -0.00140
  1.2150    0.00180
  1.2170    0.00490
  1.2190    0.00780
  1.2210    0.01050
  1.2230    0.01310
  1.2250    0.01550
  1.2270    0.01770
  1.2290    0.01980
  1.2310    0.02170
  1.2330    0.02330
  1.2350    0.02470
  1.2370    0.02590
  1.2390    0.02690
  1.2410    0.02780
  1.2430    0.02850
  1.2450    0.02890
  1.2470    0.02920
  1.2490    0.02920
  1.2510    0.02920
  1.2530    0.02900
  1.2550    0.02870
  1.2570    0.02820
  1.2590    0.02750
  1.2610    0.02660
  1.2630    0.02570
  1.2650    0.02470
  1.2670    0.02350
  1.2690    0.02220
  1.2710    0.02080
  1.2730    0.01930
  1.2750    0.01770
  1.2770    0.01600
  1.2790    0.01410
  1.2810    0.01230
  1.2830    0.01060
  1.2850    0.00870
  1.2870    0.00660
  1.2890    0.00460
  1.2910    0.00260
  1.2930    0.00060
  1.2950   -0.00130
  1.2970   -0.00300
  1.2990   -0.00470
  1.3010   -0.00650
  1.3030   -0.00830
  1.3050   -0.00980
  1.3070   -0.01130
  1.3090   -0.01270
  1.3110   -0.01390
  1.3130   -0.01510
  1.3150   -0.01640
  1.3170   -0.01760
  1.3190   -0.01860
  1.3210   -0.01940
  1.3230   -0.02010
  1.3250   -0.02070
  1.3270   -0.02130
  1.3290   -0.02150
  1.3310   -0.02160
  1.3330   -0.02180
  1.3350   -0.02180
  1.3370   -0.02170
  1.3390   -0.02140
  1.3410   -0.02120
  1.3430   -0.02090
  1.3450   -0.02040
  1.3470   -0.01970
  1.3490   -0.01900
  1.3510   -0.01810
  1.3530   -0.01720
  1.3550   -0.01630
  1.3570   -0.01520
  1.3590   -0.01420
  1.3610   -0.01310
  1.3630   -0.01210
  1.3650   -0.01120
  1.3670   -0.01020
  1.3690   -0.00910
  1.3710   -0.00790
  1.3730   -0.00680
  1.3750   -0.00600
  1.3770   -0.00530
  1.3790   -0.00460
  1.3810   -0.00380
  1.3830   -0.00330
  1.3850   -0.00280
  1.3870   -0.00270
  1.3890   -0.00290
  1.3910   -0.00310
  1.3930   -0.00370
  1.3950   -0.00450
  1.3970   -0.00560
  1.3990   -0.00720
