# z (nm)   (kJ/mol)
  0.239000, 18.657200
  0.245000, 17.886000
  0.249000, 17.263800
  0.251000, 16.948600
  0.253000, 16.652500
  0.255000, 16.353000
  0.257000, 16.035900
  0.259000, 15.711800
  0.261000, 15.371200
  0.263000, 15.016800
  0.265000, 14.669400
  0.267000, 14.322800
  0.269000, 13.973600
  0.271000, 13.607300
  0.273000, 13.229100
  0.275000, 12.846800
  0.277000, 12.463500
  0.279000, 12.079700
  0.281000, 11.680000
  0.283000, 11.277500
  0.285000, 10.882100
  0.287000, 10.487000
  0.289000, 10.088300
  0.291000,  9.685800
  0.293000,  9.280800
  0.295000,  8.877200
  0.297000,  8.475800
  0.299000,  8.073200
  0.301000,  7.671800
  0.303000,  7.272900
  0.305000,  6.874600
  0.307000,  6.482900
  0.309000,  6.099500
  0.311000,  5.718300
  0.313000,  5.335900
  0.315000,  4.957600
  0.317000,  4.590000
  0.319000,  4.227100
  0.321000,  3.863500
  0.323000,  3.507600
  0.325000,  3.165300
  0.327000,  2.830400
  0.329000,  2.502700
  0.331000,  2.188800
  0.333000,  1.883900
  0.335000,  1.583600
  0.337000,  1.292200
  0.339000,  1.013700
  0.341000,  0.743300
  0.343000,  0.479700
  0.345000,  0.225300
  0.347000, -0.017700
  0.349000, -0.251700
  0.351000, -0.477000
  0.353000, -0.689600
  0.355000, -0.891900
  0.357000, -1.084800
  0.359000, -1.266200
  0.361000, -1.436500
  0.363000, -1.597100
  0.365000, -1.746000
  0.367000, -1.884100
  0.369000, -2.012000
  0.371000, -2.129400
  0.373000, -2.235500
  0.375000, -2.330400
  0.377000, -2.414000
  0.379000, -2.486600
  0.381000, -2.548900
  0.383000, -2.600600
  0.385000, -2.641700
  0.387000, -2.672800
  0.389000, -2.693400
  0.391000, -2.704000
  0.393000, -2.705300
  0.395000, -2.697200
  0.397000, -2.679600
  0.399000, -2.653500
  0.401000, -2.619700
  0.403000, -2.578300
  0.405000, -2.529400
  0.407000, -2.472700
  0.409000, -2.407700
  0.411000, -2.335900
  0.413000, -2.257000
  0.415000, -2.171700
  0.417000, -2.082400
  0.419000, -1.988700
  0.421000, -1.890900
  0.423000, -1.789200
  0.425000, -1.683000
  0.427000, -1.573400
  0.429000, -1.460800
  0.431000, -1.346000
  0.433000, -1.230000
  0.435000, -1.112000
  0.437000, -0.992200
  0.439000, -0.871300
  0.441000, -0.750100
  0.443000, -0.628900
  0.445000, -0.508200
  0.447000, -0.388600
  0.449000, -0.269700
  0.451000, -0.151600
  0.453000, -0.034600
  0.455000,  0.080500
  0.457000,  0.193100
  0.459000,  0.303100
  0.461000,  0.409900
  0.463000,  0.513600
  0.465000,  0.614600
  0.467000,  0.712500
  0.469000,  0.806400
  0.471000,  0.896600
  0.473000,  0.983600
  0.475000,  1.066700
  0.477000,  1.145200
  0.479000,  1.219500
  0.481000,  1.289500
  0.483000,  1.354800
  0.485000,  1.416200
  0.487000,  1.473200
  0.489000,  1.525600
  0.491000,  1.573600
  0.493000,  1.617200
  0.495000,  1.656600
  0.497000,  1.691500
  0.499000,  1.722100
  0.501000,  1.748100
  0.503000,  1.769500
  0.505000,  1.786500
  0.507000,  1.799300
  0.509000,  1.807700
  0.511000,  1.811700
  0.513000,  1.811400
  0.515000,  1.807300
  0.517000,  1.799000
  0.519000,  1.786600
  0.521000,  1.770300
  0.523000,  1.750200
  0.525000,  1.726800
  0.527000,  1.700300
  0.529000,  1.670300
  0.531000,  1.637100
  0.533000,  1.600400
  0.535000,  1.559900
  0.537000,  1.516600
  0.539000,  1.470500
  0.541000,  1.421300
  0.543000,  1.369800
  0.545000,  1.316300
  0.547000,  1.260100
  0.549000,  1.201500
  0.551000,  1.141000
  0.553000,  1.078400
  0.555000,  1.014100
  0.557000,  0.948000
  0.559000,  0.880000
  0.561000,  0.811100
  0.563000,  0.741300
  0.565000,  0.670500
  0.567000,  0.598800
  0.569000,  0.526300
  0.571000,  0.453200
  0.573000,  0.379900
  0.575000,  0.306700
  0.577000,  0.233300
  0.579000,  0.159500
  0.581000,  0.085800
  0.583000,  0.012600
  0.585000, -0.060100
  0.587000, -0.132100
  0.589000, -0.203700
  0.591000, -0.274000
  0.593000, -0.343200
  0.595000, -0.411600
  0.597000, -0.478700
  0.599000, -0.544500
  0.601000, -0.608700
  0.603000, -0.671500
  0.605000, -0.732800
  0.607000, -0.792200
  0.609000, -0.850100
  0.611000, -0.906400
  0.613000, -0.960700
  0.615000, -1.012800
  0.617000, -1.062800
  0.619000, -1.111000
  0.621000, -1.157100
  0.623000, -1.200900
  0.625000, -1.242700
  0.627000, -1.282300
  0.629000, -1.319800
  0.631000, -1.355100
  0.633000, -1.388000
  0.635000, -1.418600
  0.637000, -1.447000
  0.639000, -1.473000
  0.641000, -1.496800
  0.643000, -1.518400
  0.645000, -1.537800
  0.647000, -1.555000
  0.649000, -1.570100
  0.651000, -1.583300
  0.653000, -1.594100
  0.655000, -1.602800
  0.657000, -1.609500
  0.659000, -1.614300
  0.661000, -1.617100
  0.663000, -1.618100
  0.665000, -1.617200
  0.667000, -1.614400
  0.669000, -1.609800
  0.671000, -1.603500
  0.673000, -1.595500
  0.675000, -1.585800
  0.677000, -1.574600
  0.679000, -1.561900
  0.681000, -1.547600
  0.683000, -1.531900
  0.685000, -1.515000
  0.687000, -1.496800
  0.689000, -1.477300
  0.691000, -1.456400
  0.693000, -1.434400
  0.695000, -1.411400
  0.697000, -1.387300
  0.699000, -1.362200
  0.701000, -1.336100
  0.703000, -1.309200
  0.705000, -1.281400
  0.707000, -1.252900
  0.709000, -1.223600
  0.711000, -1.193800
  0.713000, -1.163400
  0.715000, -1.132400
  0.717000, -1.101100
  0.719000, -1.069200
  0.721000, -1.036900
  0.723000, -1.004200
  0.725000, -0.971300
  0.727000, -0.938200
  0.729000, -0.904900
  0.731000, -0.871500
  0.733000, -0.838100
  0.735000, -0.804800
  0.737000, -0.771500
  0.739000, -0.738200
  0.741000, -0.705000
  0.743000, -0.672000
  0.745000, -0.639500
  0.747000, -0.607400
  0.749000, -0.575600
  0.751000, -0.544100
  0.753000, -0.513200
  0.755000, -0.482800
  0.757000, -0.453100
  0.759000, -0.424100
  0.761000, -0.395600
  0.763000, -0.367900
  0.765000, -0.341000
  0.767000, -0.314800
  0.769000, -0.289400
  0.771000, -0.264800
  0.773000, -0.241200
  0.775000, -0.218400
  0.777000, -0.196600
  0.779000, -0.175700
  0.781000, -0.155900
  0.783000, -0.137000
  0.785000, -0.119100
  0.787000, -0.102400
  0.789000, -0.086700
  0.791000, -0.072000
  0.793000, -0.058300
  0.795000, -0.045600
  0.797000, -0.034100
  0.799000, -0.023700
  0.801000, -0.014300
  0.803000, -0.006000
  0.805000,  0.001500
  0.807000,  0.008000
  0.809000,  0.013400
  0.811000,  0.017900
  0.813000,  0.021500
  0.815000,  0.024000
  0.817000,  0.025700
  0.819000,  0.026400
  0.821000,  0.026500
  0.823000,  0.025700
  0.825000,  0.024000
  0.827000,  0.021600
  0.829000,  0.018400
  0.831000,  0.014600
  0.833000,  0.010400
  0.835000,  0.005400
  0.837000, -0.000200
  0.839000, -0.006100
  0.841000, -0.012600
  0.843000, -0.019500
  0.845000, -0.026800
  0.847000, -0.034600
  0.849000, -0.042800
  0.851000, -0.051200
  0.853000, -0.059800
  0.855000, -0.068500
  0.857000, -0.077300
  0.859000, -0.086300
  0.861000, -0.095300
  0.863000, -0.104400
  0.865000, -0.113600
  0.867000, -0.122800
  0.869000, -0.132200
  0.871000, -0.141500
  0.873000, -0.150500
  0.875000, -0.159500
  0.877000, -0.168400
  0.879000, -0.177100
  0.881000, -0.185600
  0.883000, -0.194000
  0.885000, -0.202200
  0.887000, -0.210100
  0.889000, -0.217800
  0.891000, -0.225200
  0.893000, -0.232300
  0.895000, -0.239100
  0.897000, -0.245700
  0.899000, -0.251900
  0.901000, -0.257700
  0.903000, -0.263400
  0.905000, -0.268700
  0.907000, -0.273600
  0.909000, -0.278100
  0.911000, -0.282200
  0.913000, -0.286100
  0.915000, -0.289700
  0.917000, -0.293000
  0.919000, -0.296000
  0.921000, -0.298700
  0.923000, -0.300900
  0.925000, -0.302800
  0.927000, -0.304400
  0.929000, -0.305600
  0.931000, -0.306700
  0.933000, -0.307500
  0.935000, -0.308100
  0.937000, -0.308400
  0.939000, -0.308300
  0.941000, -0.308000
  0.943000, -0.307400
  0.945000, -0.306600
  0.947000, -0.305500
  0.949000, -0.304100
  0.951000, -0.302600
  0.953000, -0.301000
  0.955000, -0.299200
  0.957000, -0.297300
  0.959000, -0.295100
  0.961000, -0.292700
  0.963000, -0.290200
  0.965000, -0.287600
  0.967000, -0.284900
  0.969000, -0.282000
  0.971000, -0.279000
  0.973000, -0.275900
  0.975000, -0.272600
  0.977000, -0.269400
  0.979000, -0.266200
  0.981000, -0.262800
  0.983000, -0.259400
  0.985000, -0.255800
  0.987000, -0.252200
  0.989000, -0.248500
  0.991000, -0.244800
  0.993000, -0.241000
  0.995000, -0.237000
  0.997000, -0.233200
  0.999000, -0.229300
  1.001000, -0.225400
  1.003000, -0.221400
  1.005000, -0.217500
  1.007000, -0.213500
  1.009000, -0.209400
  1.011000, -0.205300
  1.013000, -0.201200
  1.015000, -0.197200
  1.017000, -0.193100
  1.019000, -0.189000
  1.021000, -0.185000
  1.023000, -0.181000
  1.025000, -0.176900
  1.027000, -0.172800
  1.029000, -0.168800
  1.031000, -0.164800
  1.033000, -0.161000
  1.035000, -0.157200
  1.037000, -0.153300
  1.039000, -0.149400
  1.041000, -0.145500
  1.043000, -0.141700
  1.045000, -0.137900
  1.047000, -0.134300
  1.049000, -0.130700
  1.051000, -0.127200
  1.053000, -0.123800
  1.055000, -0.120500
  1.057000, -0.117200
  1.059000, -0.113900
  1.061000, -0.110800
  1.063000, -0.107800
  1.065000, -0.104900
  1.067000, -0.102100
  1.069000, -0.099400
  1.071000, -0.096800
  1.073000, -0.094400
  1.075000, -0.092100
  1.077000, -0.089800
  1.079000, -0.087500
  1.081000, -0.085400
  1.083000, -0.083300
  1.085000, -0.081400
  1.087000, -0.079600
  1.089000, -0.077900
  1.091000, -0.076200
  1.093000, -0.074900
  1.095000, -0.073500
  1.097000, -0.072300
  1.099000, -0.071200
  1.101000, -0.070000
  1.103000, -0.069100
  1.105000, -0.068300
  1.107000, -0.067500
  1.109000, -0.066800
  1.111000, -0.066100
  1.113000, -0.065500
  1.115000, -0.065000
  1.117000, -0.064400
  1.119000, -0.064000
  1.121000, -0.063600
  1.123000, -0.063300
  1.125000, -0.063100
  1.127000, -0.062900
  1.129000, -0.062800
  1.131000, -0.062800
  1.133000, -0.062800
  1.135000, -0.062800
  1.137000, -0.062900
  1.139000, -0.063000
  1.141000, -0.063100
  1.143000, -0.063200
  1.145000, -0.063200
  1.147000, -0.063300
  1.149000, -0.063400
  1.151000, -0.063600
  1.153000, -0.063800
  1.155000, -0.063800
  1.157000, -0.063700
  1.159000, -0.063700
  1.161000, -0.063800
  1.163000, -0.063700
  1.165000, -0.063600
  1.167000, -0.063400
  1.169000, -0.063200
  1.171000, -0.063000
  1.173000, -0.062700
  1.175000, -0.062400
  1.177000, -0.062100
  1.179000, -0.061700
  1.181000, -0.061100
  1.183000, -0.060500
  1.185000, -0.059900
  1.187000, -0.059200
  1.189000, -0.058500
  1.191000, -0.057600
  1.193000, -0.056500
  1.195000, -0.055300
  1.197000, -0.054200
  1.199000, -0.053100
  1.201000, -0.051800
  1.203000, -0.050500
  1.205000, -0.049200
  1.207000, -0.047700
  1.209000, -0.046200
  1.211000, -0.044700
  1.213000, -0.043100
  1.215000, -0.041400
  1.217000, -0.039600
  1.219000, -0.037700
  1.221000, -0.035800
  1.223000, -0.033900
  1.225000, -0.032000
  1.227000, -0.030000
  1.229000, -0.027900
  1.231000, -0.025900
  1.233000, -0.023900
  1.235000, -0.021900
  1.237000, -0.019700
  1.239000, -0.017500
  1.241000, -0.015400
  1.243000, -0.013300
  1.245000, -0.011300
  1.247000, -0.009400
  1.249000, -0.007500
  1.251000, -0.005600
  1.253000, -0.003800
  1.255000, -0.002100
  1.257000, -0.000300
  1.259000,  0.001500
  1.261000,  0.002900
  1.263000,  0.004300
  1.265000,  0.005700
  1.267000,  0.006900
  1.269000,  0.008000
  1.271000,  0.008900
  1.273000,  0.009800
  1.275000,  0.010600
  1.277000,  0.011400
  1.279000,  0.011900
  1.281000,  0.012400
  1.283000,  0.012700
  1.285000,  0.012800
  1.287000,  0.012900
  1.289000,  0.012900
  1.291000,  0.012700
  1.293000,  0.012500
  1.295000,  0.012200
  1.297000,  0.011800
  1.299000,  0.011200
  1.301000,  0.010500
  1.303000,  0.009800
  1.305000,  0.009100
  1.307000,  0.008400
  1.309000,  0.007600
  1.311000,  0.006700
  1.313000,  0.005700
  1.315000,  0.004700
  1.317000,  0.003700
  1.319000,  0.002800
  1.321000,  0.001900
  1.323000,  0.000900
  1.325000,  0.000000
  1.327000, -0.000800
  1.329000, -0.001600
  1.331000, -0.002300
  1.333000, -0.002900
  1.335000, -0.003400
  1.337000, -0.003700
  1.339000, -0.004000
  1.341000, -0.004100
  1.343000, -0.003900
  1.345000, -0.003700
  1.347000, -0.003300
  1.349000, -0.002800
  1.351000, -0.002200
  1.353000, -0.001500
  1.355000, -0.000500
  1.357000,  0.000700
  1.359000,  0.002400
  1.361000,  0.004200
  1.363000,  0.006100
  1.365000,  0.008100
  1.367000,  0.010300
  1.369000,  0.012800
  1.371000,  0.015500
  1.373000,  0.018500
  1.375000,  0.021400
  1.377000,  0.024500
  1.379000,  0.027600
  1.381000,  0.030900
  1.383000,  0.034500
  1.385000,  0.038100
  1.387000,  0.041400
  1.389000,  0.044600
  1.391000,  0.047800
  1.393000,  0.050800
  1.395000,  0.053600
  1.397000,  0.056200
  1.399000,  0.058600
