# z (nm)   (kJ/mol)
  0.225000, 10.826500
  0.233000,  8.778200
  0.235000,  8.294800
  0.237000,  7.753400
  0.239000,  7.205500
  0.241000,  6.684100
  0.243000,  6.139800
  0.245000,  5.590200
  0.247000,  5.029000
  0.249000,  4.450500
  0.251000,  3.874200
  0.253000,  3.305600
  0.255000,  2.727700
  0.257000,  2.133600
  0.259000,  1.537700
  0.261000,  0.935900
  0.263000,  0.335500
  0.265000, -0.264000
  0.267000, -0.868700
  0.269000, -1.478900
  0.271000, -2.089400
  0.273000, -2.693800
  0.275000, -3.294400
  0.277000, -3.888400
  0.279000, -4.482100
  0.281000, -5.070900
  0.283000, -5.649800
  0.285000, -6.221800
  0.287000, -6.787700
  0.289000, -7.341400
  0.291000, -7.884200
  0.293000, -8.420400
  0.295000, -8.946700
  0.297000, -9.462900
  0.299000, -9.971000
  0.301000,-10.467300
  0.303000,-10.949600
  0.305000,-11.419000
  0.307000,-11.874000
  0.309000,-12.314300
  0.311000,-12.739700
  0.313000,-13.151800
  0.315000,-13.549500
  0.317000,-13.929900
  0.319000,-14.294300
  0.321000,-14.644500
  0.323000,-14.978100
  0.325000,-15.293700
  0.327000,-15.591600
  0.329000,-15.872000
  0.331000,-16.134500
  0.333000,-16.378800
  0.335000,-16.605300
  0.337000,-16.813200
  0.339000,-17.002200
  0.341000,-17.173300
  0.343000,-17.325100
  0.345000,-17.456700
  0.347000,-17.568400
  0.349000,-17.662100
  0.351000,-17.739300
  0.353000,-17.797800
  0.355000,-17.839000
  0.357000,-17.863000
  0.359000,-17.869300
  0.361000,-17.859000
  0.363000,-17.831700
  0.365000,-17.789100
  0.367000,-17.732500
  0.369000,-17.661000
  0.371000,-17.576200
  0.373000,-17.476100
  0.375000,-17.361400
  0.377000,-17.235900
  0.379000,-17.098900
  0.381000,-16.952200
  0.383000,-16.794900
  0.385000,-16.628500
  0.387000,-16.452600
  0.389000,-16.270500
  0.391000,-16.082900
  0.393000,-15.889300
  0.395000,-15.689500
  0.397000,-15.481700
  0.399000,-15.268900
  0.401000,-15.054700
  0.403000,-14.839000
  0.405000,-14.620200
  0.407000,-14.400300
  0.409000,-14.180200
  0.411000,-13.958200
  0.413000,-13.734900
  0.415000,-13.513300
  0.417000,-13.293000
  0.419000,-13.074200
  0.421000,-12.856800
  0.423000,-12.641000
  0.425000,-12.427500
  0.427000,-12.216900
  0.429000,-12.009100
  0.431000,-11.804300
  0.433000,-11.602300
  0.435000,-11.403600
  0.437000,-11.208400
  0.439000,-11.016600
  0.441000,-10.828300
  0.443000,-10.644100
  0.445000,-10.463800
  0.447000,-10.287100
  0.449000,-10.114600
  0.451000, -9.946100
  0.453000, -9.781000
  0.455000, -9.619300
  0.457000, -9.461100
  0.459000, -9.307000
  0.461000, -9.156600
  0.463000, -9.008700
  0.465000, -8.863900
  0.467000, -8.722000
  0.469000, -8.582000
  0.471000, -8.444400
  0.473000, -8.310000
  0.475000, -8.177400
  0.477000, -8.046800
  0.479000, -7.918600
  0.481000, -7.791800
  0.483000, -7.666300
  0.485000, -7.542100
  0.487000, -7.418300
  0.489000, -7.295600
  0.491000, -7.174000
  0.493000, -7.052800
  0.495000, -6.931800
  0.497000, -6.811100
  0.499000, -6.690500
  0.501000, -6.569800
  0.503000, -6.448700
  0.505000, -6.327100
  0.507000, -6.205400
  0.509000, -6.082800
  0.511000, -5.959800
  0.513000, -5.836400
  0.515000, -5.711800
  0.517000, -5.586400
  0.519000, -5.460100
  0.521000, -5.332800
  0.523000, -5.204500
  0.525000, -5.075300
  0.527000, -4.945400
  0.529000, -4.814300
  0.531000, -4.682100
  0.533000, -4.549700
  0.535000, -4.416700
  0.537000, -4.282800
  0.539000, -4.148300
  0.541000, -4.013200
  0.543000, -3.877400
  0.545000, -3.741300
  0.547000, -3.605200
  0.549000, -3.469400
  0.551000, -3.334600
  0.553000, -3.199300
  0.555000, -3.064600
  0.557000, -2.931900
  0.559000, -2.799300
  0.561000, -2.666700
  0.563000, -2.535600
  0.565000, -2.406300
  0.567000, -2.278200
  0.569000, -2.152000
  0.571000, -2.028300
  0.573000, -1.907300
  0.575000, -1.788500
  0.577000, -1.672400
  0.579000, -1.558900
  0.581000, -1.448900
  0.583000, -1.343000
  0.585000, -1.240400
  0.587000, -1.140600
  0.589000, -1.044700
  0.591000, -0.953100
  0.593000, -0.865200
  0.595000, -0.780900
  0.597000, -0.701300
  0.599000, -0.626100
  0.601000, -0.555100
  0.603000, -0.488700
  0.605000, -0.427000
  0.607000, -0.369900
  0.609000, -0.317500
  0.611000, -0.270100
  0.613000, -0.227400
  0.615000, -0.189200
  0.617000, -0.155600
  0.619000, -0.126500
  0.621000, -0.101700
  0.623000, -0.081400
  0.625000, -0.065400
  0.627000, -0.053800
  0.629000, -0.046400
  0.631000, -0.042900
  0.633000, -0.043200
  0.635000, -0.047600
  0.637000, -0.055900
  0.639000, -0.067000
  0.641000, -0.081600
  0.643000, -0.099600
  0.645000, -0.120300
  0.647000, -0.143300
  0.649000, -0.168500
  0.651000, -0.195700
  0.653000, -0.224800
  0.655000, -0.256100
  0.657000, -0.288900
  0.659000, -0.322700
  0.661000, -0.357500
  0.663000, -0.393900
  0.665000, -0.431000
  0.667000, -0.467800
  0.669000, -0.504700
  0.671000, -0.542600
  0.673000, -0.580800
  0.675000, -0.618500
  0.677000, -0.656100
  0.679000, -0.693200
  0.681000, -0.729200
  0.683000, -0.764400
  0.685000, -0.798900
  0.687000, -0.832200
  0.689000, -0.864700
  0.691000, -0.896500
  0.693000, -0.927200
  0.695000, -0.956400
  0.697000, -0.983900
  0.699000, -1.010100
  0.701000, -1.034900
  0.703000, -1.057900
  0.705000, -1.079300
  0.707000, -1.099100
  0.709000, -1.117300
  0.711000, -1.133800
  0.713000, -1.148400
  0.715000, -1.161300
  0.717000, -1.172600
  0.719000, -1.182100
  0.721000, -1.190100
  0.723000, -1.196400
  0.725000, -1.200900
  0.727000, -1.203900
  0.729000, -1.205000
  0.731000, -1.204800
  0.733000, -1.203300
  0.735000, -1.200400
  0.737000, -1.196100
  0.739000, -1.190400
  0.741000, -1.183600
  0.743000, -1.175400
  0.745000, -1.166400
  0.747000, -1.156300
  0.749000, -1.144900
  0.751000, -1.132600
  0.753000, -1.119200
  0.755000, -1.104800
  0.757000, -1.089500
  0.759000, -1.073300
  0.761000, -1.056400
  0.763000, -1.038900
  0.765000, -1.020900
  0.767000, -1.002100
  0.769000, -0.983100
  0.771000, -0.963600
  0.773000, -0.943600
  0.775000, -0.922800
  0.777000, -0.901600
  0.779000, -0.880300
  0.781000, -0.859000
  0.783000, -0.837500
  0.785000, -0.815400
  0.787000, -0.793100
  0.789000, -0.770800
  0.791000, -0.748400
  0.793000, -0.725800
  0.795000, -0.703100
  0.797000, -0.680300
  0.799000, -0.657600
  0.801000, -0.634900
  0.803000, -0.612400
  0.805000, -0.590000
  0.807000, -0.567500
  0.809000, -0.545200
  0.811000, -0.523100
  0.813000, -0.501100
  0.815000, -0.479400
  0.817000, -0.457900
  0.819000, -0.436500
  0.821000, -0.415200
  0.823000, -0.394200
  0.825000, -0.373500
  0.827000, -0.353100
  0.829000, -0.332900
  0.831000, -0.313100
  0.833000, -0.293700
  0.835000, -0.274500
  0.837000, -0.255500
  0.839000, -0.237000
  0.841000, -0.219000
  0.843000, -0.201300
  0.845000, -0.184100
  0.847000, -0.167300
  0.849000, -0.150900
  0.851000, -0.135100
  0.853000, -0.119600
  0.855000, -0.104600
  0.857000, -0.089900
  0.859000, -0.075700
  0.861000, -0.062100
  0.863000, -0.049000
  0.865000, -0.036300
  0.867000, -0.024100
  0.869000, -0.012300
  0.871000, -0.001000
  0.873000,  0.009800
  0.875000,  0.020000
  0.877000,  0.029700
  0.879000,  0.038700
  0.881000,  0.047300
  0.883000,  0.055300
  0.885000,  0.062900
  0.887000,  0.070100
  0.889000,  0.076900
  0.891000,  0.083200
  0.893000,  0.088900
  0.895000,  0.094100
  0.897000,  0.099000
  0.899000,  0.103400
  0.901000,  0.107500
  0.903000,  0.110900
  0.905000,  0.113900
  0.907000,  0.116500
  0.909000,  0.118700
  0.911000,  0.120600
  0.913000,  0.122200
  0.915000,  0.123300
  0.917000,  0.123900
  0.919000,  0.124400
  0.921000,  0.124600
  0.923000,  0.124500
  0.925000,  0.124100
  0.927000,  0.123300
  0.929000,  0.122200
  0.931000,  0.120800
  0.933000,  0.119200
  0.935000,  0.117300
  0.937000,  0.115200
  0.939000,  0.113000
  0.941000,  0.110600
  0.943000,  0.107900
  0.945000,  0.105100
  0.947000,  0.102000
  0.949000,  0.098800
  0.951000,  0.095600
  0.953000,  0.092300
  0.955000,  0.088700
  0.957000,  0.085100
  0.959000,  0.081300
  0.961000,  0.077300
  0.963000,  0.073400
  0.965000,  0.069300
  0.967000,  0.065000
  0.969000,  0.060500
  0.971000,  0.056100
  0.973000,  0.051500
  0.975000,  0.047000
  0.977000,  0.042400
  0.979000,  0.037600
  0.981000,  0.032800
  0.983000,  0.027900
  0.985000,  0.022900
  0.987000,  0.017900
  0.989000,  0.012900
  0.991000,  0.007800
  0.993000,  0.002600
  0.995000, -0.002600
  0.997000, -0.007900
  0.999000, -0.013200
  1.001000, -0.018400
  1.003000, -0.023600
  1.005000, -0.028900
  1.007000, -0.034300
  1.009000, -0.039600
  1.011000, -0.044800
  1.013000, -0.050100
  1.015000, -0.055300
  1.017000, -0.060600
  1.019000, -0.065800
  1.021000, -0.071000
  1.023000, -0.076000
  1.025000, -0.081000
  1.027000, -0.086000
  1.029000, -0.090800
  1.031000, -0.095400
  1.033000, -0.100000
  1.035000, -0.104600
  1.037000, -0.109100
  1.039000, -0.113400
  1.041000, -0.117700
  1.043000, -0.121800
  1.045000, -0.125800
  1.047000, -0.129600
  1.049000, -0.133200
  1.051000, -0.136500
  1.053000, -0.139800
  1.055000, -0.142700
  1.057000, -0.145400
  1.059000, -0.147900
  1.061000, -0.150300
  1.063000, -0.152200
  1.065000, -0.154100
  1.067000, -0.155800
  1.069000, -0.157300
  1.071000, -0.158500
  1.073000, -0.159500
  1.075000, -0.160100
  1.077000, -0.160600
  1.079000, -0.160700
  1.081000, -0.160700
  1.083000, -0.160600
  1.085000, -0.160100
  1.087000, -0.159200
  1.089000, -0.158200
  1.091000, -0.157000
  1.093000, -0.155500
  1.095000, -0.153800
  1.097000, -0.151800
  1.099000, -0.149600
  1.101000, -0.147300
  1.103000, -0.144800
  1.105000, -0.142100
  1.107000, -0.139100
  1.109000, -0.136000
  1.111000, -0.132700
  1.113000, -0.129300
  1.115000, -0.125700
  1.117000, -0.122100
  1.119000, -0.118200
  1.121000, -0.114300
  1.123000, -0.110300
  1.125000, -0.106200
  1.127000, -0.102200
  1.129000, -0.098000
  1.131000, -0.093700
  1.133000, -0.089500
  1.135000, -0.085200
  1.137000, -0.080800
  1.139000, -0.076300
  1.141000, -0.071900
  1.143000, -0.067600
  1.145000, -0.063400
  1.147000, -0.059200
  1.149000, -0.055100
  1.151000, -0.051100
  1.153000, -0.047100
  1.155000, -0.043200
  1.157000, -0.039400
  1.159000, -0.035700
  1.161000, -0.032000
  1.163000, -0.028500
  1.165000, -0.025200
  1.167000, -0.021800
  1.169000, -0.018500
  1.171000, -0.015400
  1.173000, -0.012500
  1.175000, -0.009700
  1.177000, -0.007000
  1.179000, -0.004300
  1.181000, -0.001800
  1.183000,  0.000600
  1.185000,  0.002800
  1.187000,  0.005000
  1.189000,  0.007100
  1.191000,  0.009100
  1.193000,  0.010900
  1.195000,  0.012500
  1.197000,  0.014100
  1.199000,  0.015600
  1.201000,  0.016900
  1.203000,  0.018100
  1.205000,  0.019200
  1.207000,  0.020300
  1.209000,  0.021200
  1.211000,  0.021900
  1.213000,  0.022700
  1.215000,  0.023400
  1.217000,  0.023900
  1.219000,  0.024100
  1.221000,  0.024300
  1.223000,  0.024600
  1.225000,  0.024700
  1.227000,  0.024700
  1.229000,  0.024700
  1.231000,  0.024500
  1.233000,  0.024200
  1.235000,  0.023800
  1.237000,  0.023400
  1.239000,  0.022800
  1.241000,  0.022100
  1.243000,  0.021300
  1.245000,  0.020500
  1.247000,  0.019500
  1.249000,  0.018500
  1.251000,  0.017300
  1.253000,  0.016100
  1.255000,  0.015000
  1.257000,  0.013600
  1.259000,  0.012300
  1.261000,  0.010900
  1.263000,  0.009500
  1.265000,  0.007900
  1.267000,  0.006400
  1.269000,  0.004700
  1.271000,  0.003000
  1.273000,  0.001400
  1.275000, -0.000300
  1.277000, -0.002000
  1.279000, -0.003600
  1.281000, -0.005200
  1.283000, -0.006800
  1.285000, -0.008500
  1.287000, -0.010300
  1.289000, -0.011900
  1.291000, -0.013400
  1.293000, -0.014900
  1.295000, -0.016400
  1.297000, -0.017800
  1.299000, -0.019100
  1.301000, -0.020500
  1.303000, -0.021700
  1.305000, -0.022700
  1.307000, -0.023600
  1.309000, -0.024400
  1.311000, -0.025200
  1.313000, -0.025800
  1.315000, -0.026500
  1.317000, -0.027000
  1.319000, -0.027300
  1.321000, -0.027500
  1.323000, -0.027300
  1.325000, -0.027100
  1.327000, -0.026700
  1.329000, -0.026300
  1.331000, -0.025700
  1.333000, -0.025000
  1.335000, -0.024200
  1.337000, -0.023300
  1.339000, -0.022200
  1.341000, -0.021200
  1.343000, -0.020100
  1.345000, -0.018900
  1.347000, -0.017700
  1.349000, -0.016500
  1.351000, -0.015000
  1.353000, -0.013400
  1.355000, -0.011900
  1.357000, -0.010200
  1.359000, -0.008500
  1.361000, -0.006900
  1.363000, -0.005300
  1.365000, -0.003500
  1.367000, -0.001700
  1.369000, -0.000100
  1.371000,  0.001600
  1.373000,  0.003200
  1.375000,  0.004700
  1.377000,  0.006100
  1.379000,  0.007300
  1.381000,  0.008300
  1.383000,  0.009200
  1.385000,  0.010000
  1.387000,  0.010600
  1.389000,  0.011200
  1.391000,  0.011300
  1.393000,  0.011100
  1.395000,  0.010600
  1.397000,  0.009800
  1.399000,  0.008500
