# z (nm)   (kJ/mol)
  0.2190   12.22010
  0.2230   11.51490
  0.2250   11.05920
  0.2270   10.61710
  0.2290   10.16440
  0.2310    9.67730
  0.2330    9.18210
  0.2350    8.65580
  0.2370    8.10560
  0.2390    7.55420
  0.2410    7.00310
  0.2430    6.45320
  0.2450    5.89900
  0.2470    5.33990
  0.2490    4.76620
  0.2510    4.18160
  0.2530    3.59920
  0.2550    3.01660
  0.2570    2.43270
  0.2590    1.85170
  0.2610    1.26820
  0.2630    0.68280
  0.2650    0.10200
  0.2670   -0.47680
  0.2690   -1.04870
  0.2710   -1.61820
  0.2730   -2.18480
  0.2750   -2.74530
  0.2770   -3.29810
  0.2790   -3.84350
  0.2810   -4.38180
  0.2830   -4.91250
  0.2850   -5.43750
  0.2870   -5.95160
  0.2890   -6.45620
  0.2910   -6.94850
  0.2930   -7.42570
  0.2950   -7.89380
  0.2970   -8.35250
  0.2990   -8.79910
  0.3010   -9.23280
  0.3030   -9.65320
  0.3050  -10.05980
  0.3070  -10.45440
  0.3090  -10.83430
  0.3110  -11.19890
  0.3130  -11.54720
  0.3150  -11.88060
  0.3170  -12.20040
  0.3190  -12.50450
  0.3210  -12.79280
  0.3230  -13.06520
  0.3250  -13.32100
  0.3270  -13.56020
  0.3290  -13.78290
  0.3310  -13.98840
  0.3330  -14.17780
  0.3350  -14.35040
  0.3370  -14.50600
  0.3390  -14.64570
  0.3410  -14.76920
  0.3430  -14.87530
  0.3450  -14.96480
  0.3470  -15.03980
  0.3490  -15.10060
  0.3510  -15.14620
  0.3530  -15.17650
  0.3550  -15.19100
  0.3570  -15.19140
  0.3590  -15.17870
  0.3610  -15.15090
  0.3630  -15.10940
  0.3650  -15.05700
  0.3670  -14.99430
  0.3690  -14.92030
  0.3710  -14.83580
  0.3730  -14.74040
  0.3750  -14.63530
  0.3770  -14.52120
  0.3790  -14.39790
  0.3810  -14.26700
  0.3830  -14.12870
  0.3850  -13.98370
  0.3870  -13.83260
  0.3890  -13.67590
  0.3910  -13.51360
  0.3930  -13.34620
  0.3950  -13.17430
  0.3970  -12.99780
  0.3990  -12.81740
  0.4010  -12.63360
  0.4030  -12.44690
  0.4050  -12.25760
  0.4070  -12.06600
  0.4090  -11.87230
  0.4110  -11.67710
  0.4130  -11.48030
  0.4150  -11.28210
  0.4170  -11.08330
  0.4190  -10.88350
  0.4210  -10.68260
  0.4230  -10.48170
  0.4250  -10.28070
  0.4270  -10.07980
  0.4290   -9.87950
  0.4310   -9.67890
  0.4330   -9.47860
  0.4350   -9.27910
  0.4370   -9.07970
  0.4390   -8.88130
  0.4410   -8.68410
  0.4430   -8.48710
  0.4450   -8.29070
  0.4470   -8.09550
  0.4490   -7.90180
  0.4510   -7.70940
  0.4530   -7.51800
  0.4550   -7.32780
  0.4570   -7.13920
  0.4590   -6.95240
  0.4610   -6.76680
  0.4630   -6.58280
  0.4650   -6.40040
  0.4670   -6.21970
  0.4690   -6.04050
  0.4710   -5.86300
  0.4730   -5.68720
  0.4750   -5.51330
  0.4770   -5.34120
  0.4790   -5.17100
  0.4810   -5.00260
  0.4830   -4.83650
  0.4850   -4.67220
  0.4870   -4.50980
  0.4890   -4.34950
  0.4910   -4.19150
  0.4930   -4.03580
  0.4950   -3.88230
  0.4970   -3.73100
  0.4990   -3.58160
  0.5010   -3.43410
  0.5030   -3.28850
  0.5050   -3.14530
  0.5070   -3.00490
  0.5090   -2.86720
  0.5110   -2.73240
  0.5130   -2.60020
  0.5150   -2.47060
  0.5170   -2.34300
  0.5190   -2.21890
  0.5210   -2.09790
  0.5230   -1.97920
  0.5250   -1.86380
  0.5270   -1.75110
  0.5290   -1.64220
  0.5310   -1.53680
  0.5330   -1.43350
  0.5350   -1.33330
  0.5370   -1.23700
  0.5390   -1.14390
  0.5410   -1.05370
  0.5430   -0.96720
  0.5450   -0.88420
  0.5470   -0.80430
  0.5490   -0.72780
  0.5510   -0.65480
  0.5530   -0.58550
  0.5550   -0.52020
  0.5570   -0.45920
  0.5590   -0.40200
  0.5610   -0.34870
  0.5630   -0.29930
  0.5650   -0.25340
  0.5670   -0.21170
  0.5690   -0.17370
  0.5710   -0.13950
  0.5730   -0.10930
  0.5750   -0.08290
  0.5770   -0.06030
  0.5790   -0.04140
  0.5810   -0.02640
  0.5830   -0.01510
  0.5850   -0.00730
  0.5870   -0.00320
  0.5890   -0.00260
  0.5910   -0.00570
  0.5930   -0.01270
  0.5950   -0.02300
  0.5970   -0.03620
  0.5990   -0.05310
  0.6010   -0.07290
  0.6030   -0.09490
  0.6050   -0.12010
  0.6070   -0.14810
  0.6090   -0.17920
  0.6110   -0.21280
  0.6130   -0.24790
  0.6150   -0.28480
  0.6170   -0.32370
  0.6190   -0.36460
  0.6210   -0.40770
  0.6230   -0.45260
  0.6250   -0.49890
  0.6270   -0.54630
  0.6290   -0.59500
  0.6310   -0.64510
  0.6330   -0.69620
  0.6350   -0.74750
  0.6370   -0.79930
  0.6390   -0.85170
  0.6410   -0.90420
  0.6430   -0.95660
  0.6450   -1.00880
  0.6470   -1.06110
  0.6490   -1.11300
  0.6510   -1.16390
  0.6530   -1.21370
  0.6550   -1.26290
  0.6570   -1.31140
  0.6590   -1.35860
  0.6610   -1.40460
  0.6630   -1.45000
  0.6650   -1.49430
  0.6670   -1.53640
  0.6690   -1.57710
  0.6710   -1.61650
  0.6730   -1.65420
  0.6750   -1.69010
  0.6770   -1.72400
  0.6790   -1.75630
  0.6810   -1.78690
  0.6830   -1.81570
  0.6850   -1.84240
  0.6870   -1.86670
  0.6890   -1.88910
  0.6910   -1.90950
  0.6930   -1.92770
  0.6950   -1.94390
  0.6970   -1.95800
  0.6990   -1.97010
  0.7010   -1.98030
  0.7030   -1.98850
  0.7050   -1.99470
  0.7070   -1.99870
  0.7090   -2.00080
  0.7110   -2.00090
  0.7130   -1.99890
  0.7150   -1.99500
  0.7170   -1.98930
  0.7190   -1.98180
  0.7210   -1.97250
  0.7230   -1.96150
  0.7250   -1.94890
  0.7270   -1.93450
  0.7290   -1.91870
  0.7310   -1.90130
  0.7330   -1.88240
  0.7350   -1.86200
  0.7370   -1.84010
  0.7390   -1.81680
  0.7410   -1.79240
  0.7430   -1.76700
  0.7450   -1.74040
  0.7470   -1.71270
  0.7490   -1.68390
  0.7510   -1.65400
  0.7530   -1.62310
  0.7550   -1.59150
  0.7570   -1.55920
  0.7590   -1.52580
  0.7610   -1.49150
  0.7630   -1.45660
  0.7650   -1.42120
  0.7670   -1.38530
  0.7690   -1.34880
  0.7710   -1.31180
  0.7730   -1.27440
  0.7750   -1.23660
  0.7770   -1.19850
  0.7790   -1.16030
  0.7810   -1.12190
  0.7830   -1.08310
  0.7850   -1.04440
  0.7870   -1.00550
  0.7890   -0.96640
  0.7910   -0.92740
  0.7930   -0.88860
  0.7950   -0.85000
  0.7970   -0.81150
  0.7990   -0.77310
  0.8010   -0.73480
  0.8030   -0.69700
  0.8050   -0.65930
  0.8070   -0.62200
  0.8090   -0.58540
  0.8110   -0.54920
  0.8130   -0.51330
  0.8150   -0.47780
  0.8170   -0.44290
  0.8190   -0.40870
  0.8210   -0.37530
  0.8230   -0.34230
  0.8250   -0.31010
  0.8270   -0.27870
  0.8290   -0.24770
  0.8310   -0.21760
  0.8330   -0.18840
  0.8350   -0.15990
  0.8370   -0.13240
  0.8390   -0.10570
  0.8410   -0.07990
  0.8430   -0.05500
  0.8450   -0.03080
  0.8470   -0.00790
  0.8490    0.01420
  0.8510    0.03530
  0.8530    0.05540
  0.8550    0.07440
  0.8570    0.09240
  0.8590    0.10950
  0.8610    0.12560
  0.8630    0.14060
  0.8650    0.15460
  0.8670    0.16750
  0.8690    0.17950
  0.8710    0.19060
  0.8730    0.20060
  0.8750    0.20960
  0.8770    0.21760
  0.8790    0.22460
  0.8810    0.23060
  0.8830    0.23580
  0.8850    0.24000
  0.8870    0.24320
  0.8890    0.24570
  0.8910    0.24720
  0.8930    0.24790
  0.8950    0.24780
  0.8970    0.24670
  0.8990    0.24490
  0.9010    0.24230
  0.9030    0.23910
  0.9050    0.23510
  0.9070    0.23050
  0.9090    0.22530
  0.9110    0.21940
  0.9130    0.21270
  0.9150    0.20540
  0.9170    0.19750
  0.9190    0.18910
  0.9210    0.18050
  0.9230    0.17150
  0.9250    0.16190
  0.9270    0.15190
  0.9290    0.14150
  0.9310    0.13080
  0.9330    0.11980
  0.9350    0.10850
  0.9370    0.09690
  0.9390    0.08520
  0.9410    0.07310
  0.9430    0.06090
  0.9450    0.04880
  0.9470    0.03640
  0.9490    0.02390
  0.9510    0.01150
  0.9530   -0.00100
  0.9550   -0.01350
  0.9570   -0.02580
  0.9590   -0.03800
  0.9610   -0.05030
  0.9630   -0.06260
  0.9650   -0.07450
  0.9670   -0.08620
  0.9690   -0.09790
  0.9710   -0.10940
  0.9730   -0.12070
  0.9750   -0.13190
  0.9770   -0.14280
  0.9790   -0.15330
  0.9810   -0.16360
  0.9830   -0.17380
  0.9850   -0.18360
  0.9870   -0.19300
  0.9890   -0.20210
  0.9910   -0.21080
  0.9930   -0.21910
  0.9950   -0.22710
  0.9970   -0.23450
  0.9990   -0.24170
  1.0010   -0.24850
  1.0030   -0.25490
  1.0050   -0.26090
  1.0070   -0.26650
  1.0090   -0.27170
  1.0110   -0.27650
  1.0130   -0.28090
  1.0150   -0.28490
  1.0170   -0.28850
  1.0190   -0.29160
  1.0210   -0.29430
  1.0230   -0.29650
  1.0250   -0.29840
  1.0270   -0.30000
  1.0290   -0.30110
  1.0310   -0.30180
  1.0330   -0.30210
  1.0350   -0.30200
  1.0370   -0.30150
  1.0390   -0.30060
  1.0410   -0.29920
  1.0430   -0.29760
  1.0450   -0.29560
  1.0470   -0.29320
  1.0490   -0.29040
  1.0510   -0.28740
  1.0530   -0.28400
  1.0550   -0.28030
  1.0570   -0.27630
  1.0590   -0.27190
  1.0610   -0.26730
  1.0630   -0.26240
  1.0650   -0.25720
  1.0670   -0.25170
  1.0690   -0.24600
  1.0710   -0.24020
  1.0730   -0.23410
  1.0750   -0.22780
  1.0770   -0.22120
  1.0790   -0.21440
  1.0810   -0.20760
  1.0830   -0.20080
  1.0850   -0.19370
  1.0870   -0.18660
  1.0890   -0.17940
  1.0910   -0.17220
  1.0930   -0.16490
  1.0950   -0.15750
  1.0970   -0.15010
  1.0990   -0.14260
  1.1010   -0.13510
  1.1030   -0.12770
  1.1050   -0.12030
  1.1070   -0.11300
  1.1090   -0.10590
  1.1110   -0.09890
  1.1130   -0.09190
  1.1150   -0.08510
  1.1170   -0.07850
  1.1190   -0.07190
  1.1210   -0.06550
  1.1230   -0.05930
  1.1250   -0.05330
  1.1270   -0.04740
  1.1290   -0.04160
  1.1310   -0.03610
  1.1330   -0.03070
  1.1350   -0.02540
  1.1370   -0.02040
  1.1390   -0.01570
  1.1410   -0.01120
  1.1430   -0.00680
  1.1450   -0.00250
  1.1470    0.00150
  1.1490    0.00520
  1.1510    0.00870
  1.1530    0.01210
  1.1550    0.01520
  1.1570    0.01800
  1.1590    0.02070
  1.1610    0.02330
  1.1630    0.02570
  1.1650    0.02790
  1.1670    0.02990
  1.1690    0.03170
  1.1710    0.03330
  1.1730    0.03470
  1.1750    0.03580
  1.1770    0.03690
  1.1790    0.03790
  1.1810    0.03870
  1.1830    0.03950
  1.1850    0.04000
  1.1870    0.04040
  1.1890    0.04070
  1.1910    0.04090
  1.1930    0.04120
  1.1950    0.04130
  1.1970    0.04120
  1.1990    0.04110
  1.2010    0.04090
  1.2030    0.04070
  1.2050    0.04040
  1.2070    0.04010
  1.2090    0.03960
  1.2110    0.03900
  1.2130    0.03840
  1.2150    0.03790
  1.2170    0.03730
  1.2190    0.03670
  1.2210    0.03610
  1.2230    0.03550
  1.2250    0.03470
  1.2270    0.03380
  1.2290    0.03300
  1.2310    0.03240
  1.2330    0.03170
  1.2350    0.03090
  1.2370    0.03010
  1.2390    0.02940
  1.2410    0.02870
  1.2430    0.02790
  1.2450    0.02710
  1.2470    0.02620
  1.2490    0.02520
  1.2510    0.02430
  1.2530    0.02340
  1.2550    0.02240
  1.2570    0.02140
  1.2590    0.02040
  1.2610    0.01950
  1.2630    0.01850
  1.2650    0.01740
  1.2670    0.01630
  1.2690    0.01520
  1.2710    0.01420
  1.2730    0.01300
  1.2750    0.01170
  1.2770    0.01050
  1.2790    0.00920
  1.2810    0.00780
  1.2830    0.00650
  1.2850    0.00520
  1.2870    0.00390
  1.2890    0.00250
  1.2910    0.00110
  1.2930   -0.00040
  1.2950   -0.00190
  1.2970   -0.00350
  1.2990   -0.00510
  1.3010   -0.00670
  1.3030   -0.00830
  1.3050   -0.00990
  1.3070   -0.01150
  1.3090   -0.01300
  1.3110   -0.01460
  1.3130   -0.01620
  1.3150   -0.01770
  1.3170   -0.01930
  1.3190   -0.02090
  1.3210   -0.02240
  1.3230   -0.02380
  1.3250   -0.02510
  1.3270   -0.02640
  1.3290   -0.02760
  1.3310   -0.02860
  1.3330   -0.02960
  1.3350   -0.03060
  1.3370   -0.03140
  1.3390   -0.03210
  1.3410   -0.03270
  1.3430   -0.03330
  1.3450   -0.03380
  1.3470   -0.03410
  1.3490   -0.03410
  1.3510   -0.03410
  1.3530   -0.03400
  1.3550   -0.03380
  1.3570   -0.03330
  1.3590   -0.03290
  1.3610   -0.03240
  1.3630   -0.03160
  1.3650   -0.03070
  1.3670   -0.02970
  1.3690   -0.02860
  1.3710   -0.02740
  1.3730   -0.02600
  1.3750   -0.02430
  1.3770   -0.02260
  1.3790   -0.02100
  1.3810   -0.01940
  1.3830   -0.01760
  1.3850   -0.01590
  1.3870   -0.01420
  1.3890   -0.01270
  1.3910   -0.01130
  1.3930   -0.01000
  1.3950   -0.00890
  1.3970   -0.00800
  1.3990   -0.00740
