# z (nm)   (kJ/mol)
  0.219000, 12.220100
  0.223000, 11.514900
  0.225000, 11.059200
  0.227000, 10.617100
  0.229000, 10.164400
  0.231000,  9.677300
  0.233000,  9.182100
  0.235000,  8.655800
  0.237000,  8.105600
  0.239000,  7.554200
  0.241000,  7.003100
  0.243000,  6.453200
  0.245000,  5.899000
  0.247000,  5.339900
  0.249000,  4.766200
  0.251000,  4.181600
  0.253000,  3.599200
  0.255000,  3.016600
  0.257000,  2.432700
  0.259000,  1.851700
  0.261000,  1.268200
  0.263000,  0.682800
  0.265000,  0.102000
  0.267000, -0.476800
  0.269000, -1.048700
  0.271000, -1.618200
  0.273000, -2.184800
  0.275000, -2.745300
  0.277000, -3.298100
  0.279000, -3.843500
  0.281000, -4.381800
  0.283000, -4.912500
  0.285000, -5.437500
  0.287000, -5.951600
  0.289000, -6.456200
  0.291000, -6.948500
  0.293000, -7.425700
  0.295000, -7.893800
  0.297000, -8.352500
  0.299000, -8.799100
  0.301000, -9.232800
  0.303000, -9.653200
  0.305000,-10.059800
  0.307000,-10.454400
  0.309000,-10.834300
  0.311000,-11.198900
  0.313000,-11.547200
  0.315000,-11.880600
  0.317000,-12.200400
  0.319000,-12.504500
  0.321000,-12.792800
  0.323000,-13.065200
  0.325000,-13.321000
  0.327000,-13.560200
  0.329000,-13.782900
  0.331000,-13.988400
  0.333000,-14.177800
  0.335000,-14.350400
  0.337000,-14.506000
  0.339000,-14.645700
  0.341000,-14.769200
  0.343000,-14.875300
  0.345000,-14.964800
  0.347000,-15.039800
  0.349000,-15.100600
  0.351000,-15.146200
  0.353000,-15.176500
  0.355000,-15.191000
  0.357000,-15.191400
  0.359000,-15.178700
  0.361000,-15.150900
  0.363000,-15.109400
  0.365000,-15.057000
  0.367000,-14.994300
  0.369000,-14.920300
  0.371000,-14.835800
  0.373000,-14.740400
  0.375000,-14.635300
  0.377000,-14.521200
  0.379000,-14.397900
  0.381000,-14.267000
  0.383000,-14.128700
  0.385000,-13.983700
  0.387000,-13.832600
  0.389000,-13.675900
  0.391000,-13.513600
  0.393000,-13.346200
  0.395000,-13.174300
  0.397000,-12.997800
  0.399000,-12.817400
  0.401000,-12.633600
  0.403000,-12.446900
  0.405000,-12.257600
  0.407000,-12.066000
  0.409000,-11.872300
  0.411000,-11.677100
  0.413000,-11.480300
  0.415000,-11.282100
  0.417000,-11.083300
  0.419000,-10.883500
  0.421000,-10.682600
  0.423000,-10.481700
  0.425000,-10.280700
  0.427000,-10.079800
  0.429000, -9.879500
  0.431000, -9.678900
  0.433000, -9.478600
  0.435000, -9.279100
  0.437000, -9.079700
  0.439000, -8.881300
  0.441000, -8.684100
  0.443000, -8.487100
  0.445000, -8.290700
  0.447000, -8.095500
  0.449000, -7.901800
  0.451000, -7.709400
  0.453000, -7.518000
  0.455000, -7.327800
  0.457000, -7.139200
  0.459000, -6.952400
  0.461000, -6.766800
  0.463000, -6.582800
  0.465000, -6.400400
  0.467000, -6.219700
  0.469000, -6.040500
  0.471000, -5.863000
  0.473000, -5.687200
  0.475000, -5.513300
  0.477000, -5.341200
  0.479000, -5.171000
  0.481000, -5.002600
  0.483000, -4.836500
  0.485000, -4.672200
  0.487000, -4.509800
  0.489000, -4.349500
  0.491000, -4.191500
  0.493000, -4.035800
  0.495000, -3.882300
  0.497000, -3.731000
  0.499000, -3.581600
  0.501000, -3.434100
  0.503000, -3.288500
  0.505000, -3.145300
  0.507000, -3.004900
  0.509000, -2.867200
  0.511000, -2.732400
  0.513000, -2.600200
  0.515000, -2.470600
  0.517000, -2.343000
  0.519000, -2.218900
  0.521000, -2.097900
  0.523000, -1.979200
  0.525000, -1.863800
  0.527000, -1.751100
  0.529000, -1.642200
  0.531000, -1.536800
  0.533000, -1.433500
  0.535000, -1.333300
  0.537000, -1.237000
  0.539000, -1.143900
  0.541000, -1.053700
  0.543000, -0.967200
  0.545000, -0.884200
  0.547000, -0.804300
  0.549000, -0.727800
  0.551000, -0.654800
  0.553000, -0.585500
  0.555000, -0.520200
  0.557000, -0.459200
  0.559000, -0.402000
  0.561000, -0.348700
  0.563000, -0.299300
  0.565000, -0.253400
  0.567000, -0.211700
  0.569000, -0.173700
  0.571000, -0.139500
  0.573000, -0.109300
  0.575000, -0.082900
  0.577000, -0.060300
  0.579000, -0.041400
  0.581000, -0.026400
  0.583000, -0.015100
  0.585000, -0.007300
  0.587000, -0.003200
  0.589000, -0.002600
  0.591000, -0.005700
  0.593000, -0.012700
  0.595000, -0.023000
  0.597000, -0.036200
  0.599000, -0.053100
  0.601000, -0.072900
  0.603000, -0.094900
  0.605000, -0.120100
  0.607000, -0.148100
  0.609000, -0.179200
  0.611000, -0.212800
  0.613000, -0.247900
  0.615000, -0.284800
  0.617000, -0.323700
  0.619000, -0.364600
  0.621000, -0.407700
  0.623000, -0.452600
  0.625000, -0.498900
  0.627000, -0.546300
  0.629000, -0.595000
  0.631000, -0.645100
  0.633000, -0.696200
  0.635000, -0.747500
  0.637000, -0.799300
  0.639000, -0.851700
  0.641000, -0.904200
  0.643000, -0.956600
  0.645000, -1.008800
  0.647000, -1.061100
  0.649000, -1.113000
  0.651000, -1.163900
  0.653000, -1.213700
  0.655000, -1.262900
  0.657000, -1.311400
  0.659000, -1.358600
  0.661000, -1.404600
  0.663000, -1.450000
  0.665000, -1.494300
  0.667000, -1.536400
  0.669000, -1.577100
  0.671000, -1.616500
  0.673000, -1.654200
  0.675000, -1.690100
  0.677000, -1.724000
  0.679000, -1.756300
  0.681000, -1.786900
  0.683000, -1.815700
  0.685000, -1.842400
  0.687000, -1.866700
  0.689000, -1.889100
  0.691000, -1.909500
  0.693000, -1.927700
  0.695000, -1.943900
  0.697000, -1.958000
  0.699000, -1.970100
  0.701000, -1.980300
  0.703000, -1.988500
  0.705000, -1.994700
  0.707000, -1.998700
  0.709000, -2.000800
  0.711000, -2.000900
  0.713000, -1.998900
  0.715000, -1.995000
  0.717000, -1.989300
  0.719000, -1.981800
  0.721000, -1.972500
  0.723000, -1.961500
  0.725000, -1.948900
  0.727000, -1.934500
  0.729000, -1.918700
  0.731000, -1.901300
  0.733000, -1.882400
  0.735000, -1.862000
  0.737000, -1.840100
  0.739000, -1.816800
  0.741000, -1.792400
  0.743000, -1.767000
  0.745000, -1.740400
  0.747000, -1.712700
  0.749000, -1.683900
  0.751000, -1.654000
  0.753000, -1.623100
  0.755000, -1.591500
  0.757000, -1.559200
  0.759000, -1.525800
  0.761000, -1.491500
  0.763000, -1.456600
  0.765000, -1.421200
  0.767000, -1.385300
  0.769000, -1.348800
  0.771000, -1.311800
  0.773000, -1.274400
  0.775000, -1.236600
  0.777000, -1.198500
  0.779000, -1.160300
  0.781000, -1.121900
  0.783000, -1.083100
  0.785000, -1.044400
  0.787000, -1.005500
  0.789000, -0.966400
  0.791000, -0.927400
  0.793000, -0.888600
  0.795000, -0.850000
  0.797000, -0.811500
  0.799000, -0.773100
  0.801000, -0.734800
  0.803000, -0.697000
  0.805000, -0.659300
  0.807000, -0.622000
  0.809000, -0.585400
  0.811000, -0.549200
  0.813000, -0.513300
  0.815000, -0.477800
  0.817000, -0.442900
  0.819000, -0.408700
  0.821000, -0.375300
  0.823000, -0.342300
  0.825000, -0.310100
  0.827000, -0.278700
  0.829000, -0.247700
  0.831000, -0.217600
  0.833000, -0.188400
  0.835000, -0.159900
  0.837000, -0.132400
  0.839000, -0.105700
  0.841000, -0.079900
  0.843000, -0.055000
  0.845000, -0.030800
  0.847000, -0.007900
  0.849000,  0.014200
  0.851000,  0.035300
  0.853000,  0.055400
  0.855000,  0.074400
  0.857000,  0.092400
  0.859000,  0.109500
  0.861000,  0.125600
  0.863000,  0.140600
  0.865000,  0.154600
  0.867000,  0.167500
  0.869000,  0.179500
  0.871000,  0.190600
  0.873000,  0.200600
  0.875000,  0.209600
  0.877000,  0.217600
  0.879000,  0.224600
  0.881000,  0.230600
  0.883000,  0.235800
  0.885000,  0.240000
  0.887000,  0.243200
  0.889000,  0.245700
  0.891000,  0.247200
  0.893000,  0.247900
  0.895000,  0.247800
  0.897000,  0.246700
  0.899000,  0.244900
  0.901000,  0.242300
  0.903000,  0.239100
  0.905000,  0.235100
  0.907000,  0.230500
  0.909000,  0.225300
  0.911000,  0.219400
  0.913000,  0.212700
  0.915000,  0.205400
  0.917000,  0.197500
  0.919000,  0.189100
  0.921000,  0.180500
  0.923000,  0.171500
  0.925000,  0.161900
  0.927000,  0.151900
  0.929000,  0.141500
  0.931000,  0.130800
  0.933000,  0.119800
  0.935000,  0.108500
  0.937000,  0.096900
  0.939000,  0.085200
  0.941000,  0.073100
  0.943000,  0.060900
  0.945000,  0.048800
  0.947000,  0.036400
  0.949000,  0.023900
  0.951000,  0.011500
  0.953000, -0.001000
  0.955000, -0.013500
  0.957000, -0.025800
  0.959000, -0.038000
  0.961000, -0.050300
  0.963000, -0.062600
  0.965000, -0.074500
  0.967000, -0.086200
  0.969000, -0.097900
  0.971000, -0.109400
  0.973000, -0.120700
  0.975000, -0.131900
  0.977000, -0.142800
  0.979000, -0.153300
  0.981000, -0.163600
  0.983000, -0.173800
  0.985000, -0.183600
  0.987000, -0.193000
  0.989000, -0.202100
  0.991000, -0.210800
  0.993000, -0.219100
  0.995000, -0.227100
  0.997000, -0.234500
  0.999000, -0.241700
  1.001000, -0.248500
  1.003000, -0.254900
  1.005000, -0.260900
  1.007000, -0.266500
  1.009000, -0.271700
  1.011000, -0.276500
  1.013000, -0.280900
  1.015000, -0.284900
  1.017000, -0.288500
  1.019000, -0.291600
  1.021000, -0.294300
  1.023000, -0.296500
  1.025000, -0.298400
  1.027000, -0.300000
  1.029000, -0.301100
  1.031000, -0.301800
  1.033000, -0.302100
  1.035000, -0.302000
  1.037000, -0.301500
  1.039000, -0.300600
  1.041000, -0.299200
  1.043000, -0.297600
  1.045000, -0.295600
  1.047000, -0.293200
  1.049000, -0.290400
  1.051000, -0.287400
  1.053000, -0.284000
  1.055000, -0.280300
  1.057000, -0.276300
  1.059000, -0.271900
  1.061000, -0.267300
  1.063000, -0.262400
  1.065000, -0.257200
  1.067000, -0.251700
  1.069000, -0.246000
  1.071000, -0.240200
  1.073000, -0.234100
  1.075000, -0.227800
  1.077000, -0.221200
  1.079000, -0.214400
  1.081000, -0.207600
  1.083000, -0.200800
  1.085000, -0.193700
  1.087000, -0.186600
  1.089000, -0.179400
  1.091000, -0.172200
  1.093000, -0.164900
  1.095000, -0.157500
  1.097000, -0.150100
  1.099000, -0.142600
  1.101000, -0.135100
  1.103000, -0.127700
  1.105000, -0.120300
  1.107000, -0.113000
  1.109000, -0.105900
  1.111000, -0.098900
  1.113000, -0.091900
  1.115000, -0.085100
  1.117000, -0.078500
  1.119000, -0.071900
  1.121000, -0.065500
  1.123000, -0.059300
  1.125000, -0.053300
  1.127000, -0.047400
  1.129000, -0.041600
  1.131000, -0.036100
  1.133000, -0.030700
  1.135000, -0.025400
  1.137000, -0.020400
  1.139000, -0.015700
  1.141000, -0.011200
  1.143000, -0.006800
  1.145000, -0.002500
  1.147000,  0.001500
  1.149000,  0.005200
  1.151000,  0.008700
  1.153000,  0.012100
  1.155000,  0.015200
  1.157000,  0.018000
  1.159000,  0.020700
  1.161000,  0.023300
  1.163000,  0.025700
  1.165000,  0.027900
  1.167000,  0.029900
  1.169000,  0.031700
  1.171000,  0.033300
  1.173000,  0.034700
  1.175000,  0.035800
  1.177000,  0.036900
  1.179000,  0.037900
  1.181000,  0.038700
  1.183000,  0.039500
  1.185000,  0.040000
  1.187000,  0.040400
  1.189000,  0.040700
  1.191000,  0.040900
  1.193000,  0.041200
  1.195000,  0.041300
  1.197000,  0.041200
  1.199000,  0.041100
  1.201000,  0.040900
  1.203000,  0.040700
  1.205000,  0.040400
  1.207000,  0.040100
  1.209000,  0.039600
  1.211000,  0.039000
  1.213000,  0.038400
  1.215000,  0.037900
  1.217000,  0.037300
  1.219000,  0.036700
  1.221000,  0.036100
  1.223000,  0.035500
  1.225000,  0.034700
  1.227000,  0.033800
  1.229000,  0.033000
  1.231000,  0.032400
  1.233000,  0.031700
  1.235000,  0.030900
  1.237000,  0.030100
  1.239000,  0.029400
  1.241000,  0.028700
  1.243000,  0.027900
  1.245000,  0.027100
  1.247000,  0.026200
  1.249000,  0.025200
  1.251000,  0.024300
  1.253000,  0.023400
  1.255000,  0.022400
  1.257000,  0.021400
  1.259000,  0.020400
  1.261000,  0.019500
  1.263000,  0.018500
  1.265000,  0.017400
  1.267000,  0.016300
  1.269000,  0.015200
  1.271000,  0.014200
  1.273000,  0.013000
  1.275000,  0.011700
  1.277000,  0.010500
  1.279000,  0.009200
  1.281000,  0.007800
  1.283000,  0.006500
  1.285000,  0.005200
  1.287000,  0.003900
  1.289000,  0.002500
  1.291000,  0.001100
  1.293000, -0.000400
  1.295000, -0.001900
  1.297000, -0.003500
  1.299000, -0.005100
  1.301000, -0.006700
  1.303000, -0.008300
  1.305000, -0.009900
  1.307000, -0.011500
  1.309000, -0.013000
  1.311000, -0.014600
  1.313000, -0.016200
  1.315000, -0.017700
  1.317000, -0.019300
  1.319000, -0.020900
  1.321000, -0.022400
  1.323000, -0.023800
  1.325000, -0.025100
  1.327000, -0.026400
  1.329000, -0.027600
  1.331000, -0.028600
  1.333000, -0.029600
  1.335000, -0.030600
  1.337000, -0.031400
  1.339000, -0.032100
  1.341000, -0.032700
  1.343000, -0.033300
  1.345000, -0.033800
  1.347000, -0.034100
  1.349000, -0.034100
  1.351000, -0.034100
  1.353000, -0.034000
  1.355000, -0.033800
  1.357000, -0.033300
  1.359000, -0.032900
  1.361000, -0.032400
  1.363000, -0.031600
  1.365000, -0.030700
  1.367000, -0.029700
  1.369000, -0.028600
  1.371000, -0.027400
  1.373000, -0.026000
  1.375000, -0.024300
  1.377000, -0.022600
  1.379000, -0.021000
  1.381000, -0.019400
  1.383000, -0.017600
  1.385000, -0.015900
  1.387000, -0.014200
  1.389000, -0.012700
  1.391000, -0.011300
  1.393000, -0.010000
  1.395000, -0.008900
  1.397000, -0.008000
  1.399000, -0.007400
