# z (nm)   (kJ/mol)
  0.223000,  8.634800
  0.225000,  8.071800
  0.227000,  7.533300
  0.229000,  6.978100
  0.231000,  6.415900
  0.233000,  5.892100
  0.235000,  5.308200
  0.237000,  4.683900
  0.239000,  4.049400
  0.241000,  3.400400
  0.243000,  2.747900
  0.245000,  2.087200
  0.247000,  1.422500
  0.249000,  0.750400
  0.251000,  0.070200
  0.253000, -0.609200
  0.255000, -1.294600
  0.257000, -1.986700
  0.259000, -2.675300
  0.261000, -3.359800
  0.263000, -4.037800
  0.265000, -4.714400
  0.267000, -5.390800
  0.269000, -6.064600
  0.271000, -6.732800
  0.273000, -7.392400
  0.275000, -8.047200
  0.277000, -8.691300
  0.279000, -9.323200
  0.281000, -9.949800
  0.283000,-10.565900
  0.285000,-11.168000
  0.287000,-11.760700
  0.289000,-12.344200
  0.291000,-12.915100
  0.293000,-13.471200
  0.295000,-14.011600
  0.297000,-14.535600
  0.299000,-15.042300
  0.301000,-15.534800
  0.303000,-16.012700
  0.305000,-16.471800
  0.307000,-16.911200
  0.309000,-17.330200
  0.311000,-17.728800
  0.313000,-18.107600
  0.315000,-18.467200
  0.317000,-18.806700
  0.319000,-19.123400
  0.321000,-19.417300
  0.323000,-19.689100
  0.325000,-19.939000
  0.327000,-20.166500
  0.329000,-20.371300
  0.331000,-20.553700
  0.333000,-20.713400
  0.335000,-20.849600
  0.337000,-20.963600
  0.339000,-21.054700
  0.341000,-21.123300
  0.343000,-21.169300
  0.345000,-21.192800
  0.347000,-21.195700
  0.349000,-21.178200
  0.351000,-21.140800
  0.353000,-21.082800
  0.355000,-21.005700
  0.357000,-20.909400
  0.359000,-20.795600
  0.361000,-20.664600
  0.363000,-20.517100
  0.365000,-20.356600
  0.367000,-20.181200
  0.369000,-19.990100
  0.371000,-19.787100
  0.373000,-19.573000
  0.375000,-19.348600
  0.377000,-19.114200
  0.379000,-18.869600
  0.381000,-18.618000
  0.383000,-18.360800
  0.385000,-18.097000
  0.387000,-17.827400
  0.389000,-17.553200
  0.391000,-17.275000
  0.393000,-16.993800
  0.395000,-16.710500
  0.397000,-16.426500
  0.399000,-16.142200
  0.401000,-15.858000
  0.403000,-15.574500
  0.405000,-15.292500
  0.407000,-15.012600
  0.409000,-14.735100
  0.411000,-14.460700
  0.413000,-14.189500
  0.415000,-13.922300
  0.417000,-13.659700
  0.419000,-13.401900
  0.421000,-13.149100
  0.423000,-12.901500
  0.425000,-12.659600
  0.427000,-12.423500
  0.429000,-12.193300
  0.431000,-11.969500
  0.433000,-11.752000
  0.435000,-11.540700
  0.437000,-11.335900
  0.439000,-11.137400
  0.441000,-10.945400
  0.443000,-10.760000
  0.445000,-10.581100
  0.447000,-10.408400
  0.449000,-10.241900
  0.451000,-10.081500
  0.453000, -9.927200
  0.455000, -9.778900
  0.457000, -9.636600
  0.459000, -9.500200
  0.461000, -9.369300
  0.463000, -9.243300
  0.465000, -9.122400
  0.467000, -9.006700
  0.469000, -8.895400
  0.471000, -8.788600
  0.473000, -8.685800
  0.475000, -8.587400
  0.477000, -8.492600
  0.479000, -8.400900
  0.481000, -8.312400
  0.483000, -8.226500
  0.485000, -8.143100
  0.487000, -8.062600
  0.489000, -7.984300
  0.491000, -7.907200
  0.493000, -7.831500
  0.495000, -7.757200
  0.497000, -7.683900
  0.499000, -7.611700
  0.501000, -7.539800
  0.503000, -7.467900
  0.505000, -7.396100
  0.507000, -7.323900
  0.509000, -7.251300
  0.511000, -7.177900
  0.513000, -7.103700
  0.515000, -7.028200
  0.517000, -6.951300
  0.519000, -6.872900
  0.521000, -6.792800
  0.523000, -6.711000
  0.525000, -6.627300
  0.527000, -6.541400
  0.529000, -6.453200
  0.531000, -6.362800
  0.533000, -6.269600
  0.535000, -6.173800
  0.537000, -6.075300
  0.539000, -5.974200
  0.541000, -5.870700
  0.543000, -5.764500
  0.545000, -5.655500
  0.547000, -5.544000
  0.549000, -5.429800
  0.551000, -5.312600
  0.553000, -5.193200
  0.555000, -5.071700
  0.557000, -4.947600
  0.559000, -4.821300
  0.561000, -4.693200
  0.563000, -4.563700
  0.565000, -4.432700
  0.567000, -4.300000
  0.569000, -4.166000
  0.571000, -4.031500
  0.573000, -3.896000
  0.575000, -3.760500
  0.577000, -3.625700
  0.579000, -3.490900
  0.581000, -3.355100
  0.583000, -3.220000
  0.585000, -3.086200
  0.587000, -2.952100
  0.589000, -2.819800
  0.591000, -2.690400
  0.593000, -2.562700
  0.595000, -2.436700
  0.597000, -2.313200
  0.599000, -2.193300
  0.601000, -2.077300
  0.603000, -1.964200
  0.605000, -1.854100
  0.607000, -1.747000
  0.609000, -1.643100
  0.611000, -1.543500
  0.613000, -1.449400
  0.615000, -1.359900
  0.617000, -1.274800
  0.619000, -1.195100
  0.621000, -1.120100
  0.623000, -1.050600
  0.625000, -0.986800
  0.627000, -0.927800
  0.629000, -0.873800
  0.631000, -0.824600
  0.633000, -0.780700
  0.635000, -0.741900
  0.637000, -0.708200
  0.639000, -0.679600
  0.641000, -0.656200
  0.643000, -0.637700
  0.645000, -0.623700
  0.647000, -0.614300
  0.649000, -0.609300
  0.651000, -0.608700
  0.653000, -0.612300
  0.655000, -0.619600
  0.657000, -0.630500
  0.659000, -0.644900
  0.661000, -0.662200
  0.663000, -0.682600
  0.665000, -0.706400
  0.667000, -0.732300
  0.669000, -0.759900
  0.671000, -0.789800
  0.673000, -0.821900
  0.675000, -0.855600
  0.677000, -0.890300
  0.679000, -0.926500
  0.681000, -0.964100
  0.683000, -1.002000
  0.685000, -1.040100
  0.687000, -1.078700
  0.689000, -1.117600
  0.691000, -1.156500
  0.693000, -1.195400
  0.695000, -1.234300
  0.697000, -1.272500
  0.699000, -1.309600
  0.701000, -1.345800
  0.703000, -1.381500
  0.705000, -1.416100
  0.707000, -1.448800
  0.709000, -1.480100
  0.711000, -1.510100
  0.713000, -1.538400
  0.715000, -1.565500
  0.717000, -1.591100
  0.719000, -1.614800
  0.721000, -1.636900
  0.723000, -1.657100
  0.725000, -1.675500
  0.727000, -1.692000
  0.729000, -1.706700
  0.731000, -1.719700
  0.733000, -1.730800
  0.735000, -1.739900
  0.737000, -1.747400
  0.739000, -1.753100
  0.741000, -1.757200
  0.743000, -1.759200
  0.745000, -1.759400
  0.747000, -1.758100
  0.749000, -1.755300
  0.751000, -1.750900
  0.753000, -1.744700
  0.755000, -1.736800
  0.757000, -1.727800
  0.759000, -1.717600
  0.761000, -1.705700
  0.763000, -1.692600
  0.765000, -1.678300
  0.767000, -1.662900
  0.769000, -1.646700
  0.771000, -1.628900
  0.773000, -1.610200
  0.775000, -1.590900
  0.777000, -1.571000
  0.779000, -1.549800
  0.781000, -1.527800
  0.783000, -1.505200
  0.785000, -1.481900
  0.787000, -1.457900
  0.789000, -1.432900
  0.791000, -1.407700
  0.793000, -1.382200
  0.795000, -1.356200
  0.797000, -1.329900
  0.799000, -1.303300
  0.801000, -1.276400
  0.803000, -1.249100
  0.805000, -1.221400
  0.807000, -1.193600
  0.809000, -1.165700
  0.811000, -1.137700
  0.813000, -1.109700
  0.815000, -1.081600
  0.817000, -1.053200
  0.819000, -1.025000
  0.821000, -0.996500
  0.823000, -0.968000
  0.825000, -0.939800
  0.827000, -0.911500
  0.829000, -0.882900
  0.831000, -0.854100
  0.833000, -0.825500
  0.835000, -0.797100
  0.837000, -0.768700
  0.839000, -0.740200
  0.841000, -0.712000
  0.843000, -0.684400
  0.845000, -0.656800
  0.847000, -0.629100
  0.849000, -0.601500
  0.851000, -0.574200
  0.853000, -0.547300
  0.855000, -0.520500
  0.857000, -0.493900
  0.859000, -0.467800
  0.861000, -0.441800
  0.863000, -0.416100
  0.865000, -0.390800
  0.867000, -0.365700
  0.869000, -0.340900
  0.871000, -0.316600
  0.873000, -0.292900
  0.875000, -0.269700
  0.877000, -0.246900
  0.879000, -0.224200
  0.881000, -0.202000
  0.883000, -0.180400
  0.885000, -0.159400
  0.887000, -0.138900
  0.889000, -0.118800
  0.891000, -0.099400
  0.893000, -0.080500
  0.895000, -0.062200
  0.897000, -0.044500
  0.899000, -0.027600
  0.901000, -0.011300
  0.903000,  0.004400
  0.905000,  0.019400
  0.907000,  0.033800
  0.909000,  0.047300
  0.911000,  0.060000
  0.913000,  0.072200
  0.915000,  0.083500
  0.917000,  0.094000
  0.919000,  0.104000
  0.921000,  0.113100
  0.923000,  0.121400
  0.925000,  0.128900
  0.927000,  0.135900
  0.929000,  0.142200
  0.931000,  0.147600
  0.933000,  0.152400
  0.935000,  0.156500
  0.937000,  0.160100
  0.939000,  0.162900
  0.941000,  0.165200
  0.943000,  0.167000
  0.945000,  0.168000
  0.947000,  0.168300
  0.949000,  0.168000
  0.951000,  0.167300
  0.953000,  0.166100
  0.955000,  0.164400
  0.957000,  0.162300
  0.959000,  0.159400
  0.961000,  0.156100
  0.963000,  0.152500
  0.965000,  0.148400
  0.967000,  0.143900
  0.969000,  0.139000
  0.971000,  0.133900
  0.973000,  0.128300
  0.975000,  0.122400
  0.977000,  0.116300
  0.979000,  0.109800
  0.981000,  0.103100
  0.983000,  0.096000
  0.985000,  0.088800
  0.987000,  0.081400
  0.989000,  0.073900
  0.991000,  0.066200
  0.993000,  0.058300
  0.995000,  0.050300
  0.997000,  0.042200
  0.999000,  0.034000
  1.001000,  0.025800
  1.003000,  0.017700
  1.005000,  0.009500
  1.007000,  0.001300
  1.009000, -0.006900
  1.011000, -0.015000
  1.013000, -0.023100
  1.015000, -0.031200
  1.017000, -0.039100
  1.019000, -0.046900
  1.021000, -0.054500
  1.023000, -0.062200
  1.025000, -0.069600
  1.027000, -0.076700
  1.029000, -0.083700
  1.031000, -0.090600
  1.033000, -0.097300
  1.035000, -0.103800
  1.037000, -0.110000
  1.039000, -0.115900
  1.041000, -0.121600
  1.043000, -0.127000
  1.045000, -0.132200
  1.047000, -0.137000
  1.049000, -0.141500
  1.051000, -0.145700
  1.053000, -0.149500
  1.055000, -0.153100
  1.057000, -0.156300
  1.059000, -0.159300
  1.061000, -0.161900
  1.063000, -0.164200
  1.065000, -0.166200
  1.067000, -0.167800
  1.069000, -0.169000
  1.071000, -0.169900
  1.073000, -0.170500
  1.075000, -0.170700
  1.077000, -0.170500
  1.079000, -0.170000
  1.081000, -0.169100
  1.083000, -0.168100
  1.085000, -0.166600
  1.087000, -0.164900
  1.089000, -0.162900
  1.091000, -0.160500
  1.093000, -0.157900
  1.095000, -0.155000
  1.097000, -0.152000
  1.099000, -0.148700
  1.101000, -0.145100
  1.103000, -0.141300
  1.105000, -0.137200
  1.107000, -0.132900
  1.109000, -0.128400
  1.111000, -0.123800
  1.113000, -0.118900
  1.115000, -0.113900
  1.117000, -0.108700
  1.119000, -0.103500
  1.121000, -0.098200
  1.123000, -0.092800
  1.125000, -0.087300
  1.127000, -0.081600
  1.129000, -0.076000
  1.131000, -0.070500
  1.133000, -0.064900
  1.135000, -0.059100
  1.137000, -0.053400
  1.139000, -0.047800
  1.141000, -0.042300
  1.143000, -0.036800
  1.145000, -0.031400
  1.147000, -0.026100
  1.149000, -0.020800
  1.151000, -0.015600
  1.153000, -0.010600
  1.155000, -0.005700
  1.157000, -0.000900
  1.159000,  0.003900
  1.161000,  0.008500
  1.163000,  0.012900
  1.165000,  0.017200
  1.167000,  0.021200
  1.169000,  0.025200
  1.171000,  0.028900
  1.173000,  0.032400
  1.175000,  0.035700
  1.177000,  0.039000
  1.179000,  0.042000
  1.181000,  0.044600
  1.183000,  0.047100
  1.185000,  0.049300
  1.187000,  0.051400
  1.189000,  0.053200
  1.191000,  0.054800
  1.193000,  0.056300
  1.195000,  0.057700
  1.197000,  0.058700
  1.199000,  0.059400
  1.201000,  0.060100
  1.203000,  0.060500
  1.205000,  0.060800
  1.207000,  0.061000
  1.209000,  0.060900
  1.211000,  0.060600
  1.213000,  0.060100
  1.215000,  0.059600
  1.217000,  0.059000
  1.219000,  0.058300
  1.221000,  0.057300
  1.223000,  0.056300
  1.225000,  0.055100
  1.227000,  0.053700
  1.229000,  0.052000
  1.231000,  0.050100
  1.233000,  0.048100
  1.235000,  0.046000
  1.237000,  0.044000
  1.239000,  0.042000
  1.241000,  0.040000
  1.243000,  0.037900
  1.245000,  0.035700
  1.247000,  0.033400
  1.249000,  0.030900
  1.251000,  0.028500
  1.253000,  0.026000
  1.255000,  0.023400
  1.257000,  0.020800
  1.259000,  0.018200
  1.261000,  0.015500
  1.263000,  0.012800
  1.265000,  0.010300
  1.267000,  0.007800
  1.269000,  0.005200
  1.271000,  0.002700
  1.273000,  0.000300
  1.275000, -0.002100
  1.277000, -0.004600
  1.279000, -0.006900
  1.281000, -0.009200
  1.283000, -0.011600
  1.285000, -0.013800
  1.287000, -0.016100
  1.289000, -0.018500
  1.291000, -0.020800
  1.293000, -0.022900
  1.295000, -0.025100
  1.297000, -0.027100
  1.299000, -0.029000
  1.301000, -0.030800
  1.303000, -0.032500
  1.305000, -0.034300
  1.307000, -0.035800
  1.309000, -0.037100
  1.311000, -0.038400
  1.313000, -0.039500
  1.315000, -0.040600
  1.317000, -0.041400
  1.319000, -0.042100
  1.321000, -0.042700
  1.323000, -0.043200
  1.325000, -0.043400
  1.327000, -0.043600
  1.329000, -0.043600
  1.331000, -0.043500
  1.333000, -0.043100
  1.335000, -0.042600
  1.337000, -0.041900
  1.339000, -0.041200
  1.341000, -0.040300
  1.343000, -0.039200
  1.345000, -0.038100
  1.347000, -0.036800
  1.349000, -0.035400
  1.351000, -0.033900
  1.353000, -0.032200
  1.355000, -0.030500
  1.357000, -0.028700
  1.359000, -0.026800
  1.361000, -0.024900
  1.363000, -0.023000
  1.365000, -0.020900
  1.367000, -0.018700
  1.369000, -0.016500
  1.371000, -0.014400
  1.373000, -0.012200
  1.375000, -0.010100
  1.377000, -0.008000
  1.379000, -0.005900
  1.381000, -0.003900
  1.383000, -0.002000
  1.385000, -0.000100
  1.387000,  0.001600
  1.389000,  0.003000
  1.391000,  0.004000
  1.393000,  0.004700
  1.395000,  0.005100
  1.397000,  0.005500
  1.399000,  0.005400
