# z (nm)   (kJ/mol)
  0.2230    8.63480
  0.2250    8.07180
  0.2270    7.53330
  0.2290    6.97810
  0.2310    6.41590
  0.2330    5.89210
  0.2350    5.30820
  0.2370    4.68390
  0.2390    4.04940
  0.2410    3.40040
  0.2430    2.74790
  0.2450    2.08720
  0.2470    1.42250
  0.2490    0.75040
  0.2510    0.07020
  0.2530   -0.60920
  0.2550   -1.29460
  0.2570   -1.98670
  0.2590   -2.67530
  0.2610   -3.35980
  0.2630   -4.03780
  0.2650   -4.71440
  0.2670   -5.39080
  0.2690   -6.06460
  0.2710   -6.73280
  0.2730   -7.39240
  0.2750   -8.04720
  0.2770   -8.69130
  0.2790   -9.32320
  0.2810   -9.94980
  0.2830  -10.56590
  0.2850  -11.16800
  0.2870  -11.76070
  0.2890  -12.34420
  0.2910  -12.91510
  0.2930  -13.47120
  0.2950  -14.01160
  0.2970  -14.53560
  0.2990  -15.04230
  0.3010  -15.53480
  0.3030  -16.01270
  0.3050  -16.47180
  0.3070  -16.91120
  0.3090  -17.33020
  0.3110  -17.72880
  0.3130  -18.10760
  0.3150  -18.46720
  0.3170  -18.80670
  0.3190  -19.12340
  0.3210  -19.41730
  0.3230  -19.68910
  0.3250  -19.93900
  0.3270  -20.16650
  0.3290  -20.37130
  0.3310  -20.55370
  0.3330  -20.71340
  0.3350  -20.84960
  0.3370  -20.96360
  0.3390  -21.05470
  0.3410  -21.12330
  0.3430  -21.16930
  0.3450  -21.19280
  0.3470  -21.19570
  0.3490  -21.17820
  0.3510  -21.14080
  0.3530  -21.08280
  0.3550  -21.00570
  0.3570  -20.90940
  0.3590  -20.79560
  0.3610  -20.66460
  0.3630  -20.51710
  0.3650  -20.35660
  0.3670  -20.18120
  0.3690  -19.99010
  0.3710  -19.78710
  0.3730  -19.57300
  0.3750  -19.34860
  0.3770  -19.11420
  0.3790  -18.86960
  0.3810  -18.61800
  0.3830  -18.36080
  0.3850  -18.09700
  0.3870  -17.82740
  0.3890  -17.55320
  0.3910  -17.27500
  0.3930  -16.99380
  0.3950  -16.71050
  0.3970  -16.42650
  0.3990  -16.14220
  0.4010  -15.85800
  0.4030  -15.57450
  0.4050  -15.29250
  0.4070  -15.01260
  0.4090  -14.73510
  0.4110  -14.46070
  0.4130  -14.18950
  0.4150  -13.92230
  0.4170  -13.65970
  0.4190  -13.40190
  0.4210  -13.14910
  0.4230  -12.90150
  0.4250  -12.65960
  0.4270  -12.42350
  0.4290  -12.19330
  0.4310  -11.96950
  0.4330  -11.75200
  0.4350  -11.54070
  0.4370  -11.33590
  0.4390  -11.13740
  0.4410  -10.94540
  0.4430  -10.76000
  0.4450  -10.58110
  0.4470  -10.40840
  0.4490  -10.24190
  0.4510  -10.08150
  0.4530   -9.92720
  0.4550   -9.77890
  0.4570   -9.63660
  0.4590   -9.50020
  0.4610   -9.36930
  0.4630   -9.24330
  0.4650   -9.12240
  0.4670   -9.00670
  0.4690   -8.89540
  0.4710   -8.78860
  0.4730   -8.68580
  0.4750   -8.58740
  0.4770   -8.49260
  0.4790   -8.40090
  0.4810   -8.31240
  0.4830   -8.22650
  0.4850   -8.14310
  0.4870   -8.06260
  0.4890   -7.98430
  0.4910   -7.90720
  0.4930   -7.83150
  0.4950   -7.75720
  0.4970   -7.68390
  0.4990   -7.61170
  0.5010   -7.53980
  0.5030   -7.46790
  0.5050   -7.39610
  0.5070   -7.32390
  0.5090   -7.25130
  0.5110   -7.17790
  0.5130   -7.10370
  0.5150   -7.02820
  0.5170   -6.95130
  0.5190   -6.87290
  0.5210   -6.79280
  0.5230   -6.71100
  0.5250   -6.62730
  0.5270   -6.54140
  0.5290   -6.45320
  0.5310   -6.36280
  0.5330   -6.26960
  0.5350   -6.17380
  0.5370   -6.07530
  0.5390   -5.97420
  0.5410   -5.87070
  0.5430   -5.76450
  0.5450   -5.65550
  0.5470   -5.54400
  0.5490   -5.42980
  0.5510   -5.31260
  0.5530   -5.19320
  0.5550   -5.07170
  0.5570   -4.94760
  0.5590   -4.82130
  0.5610   -4.69320
  0.5630   -4.56370
  0.5650   -4.43270
  0.5670   -4.30000
  0.5690   -4.16600
  0.5710   -4.03150
  0.5730   -3.89600
  0.5750   -3.76050
  0.5770   -3.62570
  0.5790   -3.49090
  0.5810   -3.35510
  0.5830   -3.22000
  0.5850   -3.08620
  0.5870   -2.95210
  0.5890   -2.81980
  0.5910   -2.69040
  0.5930   -2.56270
  0.5950   -2.43670
  0.5970   -2.31320
  0.5990   -2.19330
  0.6010   -2.07730
  0.6030   -1.96420
  0.6050   -1.85410
  0.6070   -1.74700
  0.6090   -1.64310
  0.6110   -1.54350
  0.6130   -1.44940
  0.6150   -1.35990
  0.6170   -1.27480
  0.6190   -1.19510
  0.6210   -1.12010
  0.6230   -1.05060
  0.6250   -0.98680
  0.6270   -0.92780
  0.6290   -0.87380
  0.6310   -0.82460
  0.6330   -0.78070
  0.6350   -0.74190
  0.6370   -0.70820
  0.6390   -0.67960
  0.6410   -0.65620
  0.6430   -0.63770
  0.6450   -0.62370
  0.6470   -0.61430
  0.6490   -0.60930
  0.6510   -0.60870
  0.6530   -0.61230
  0.6550   -0.61960
  0.6570   -0.63050
  0.6590   -0.64490
  0.6610   -0.66220
  0.6630   -0.68260
  0.6650   -0.70640
  0.6670   -0.73230
  0.6690   -0.75990
  0.6710   -0.78980
  0.6730   -0.82190
  0.6750   -0.85560
  0.6770   -0.89030
  0.6790   -0.92650
  0.6810   -0.96410
  0.6830   -1.00200
  0.6850   -1.04010
  0.6870   -1.07870
  0.6890   -1.11760
  0.6910   -1.15650
  0.6930   -1.19540
  0.6950   -1.23430
  0.6970   -1.27250
  0.6990   -1.30960
  0.7010   -1.34580
  0.7030   -1.38150
  0.7050   -1.41610
  0.7070   -1.44880
  0.7090   -1.48010
  0.7110   -1.51010
  0.7130   -1.53840
  0.7150   -1.56550
  0.7170   -1.59110
  0.7190   -1.61480
  0.7210   -1.63690
  0.7230   -1.65710
  0.7250   -1.67550
  0.7270   -1.69200
  0.7290   -1.70670
  0.7310   -1.71970
  0.7330   -1.73080
  0.7350   -1.73990
  0.7370   -1.74740
  0.7390   -1.75310
  0.7410   -1.75720
  0.7430   -1.75920
  0.7450   -1.75940
  0.7470   -1.75810
  0.7490   -1.75530
  0.7510   -1.75090
  0.7530   -1.74470
  0.7550   -1.73680
  0.7570   -1.72780
  0.7590   -1.71760
  0.7610   -1.70570
  0.7630   -1.69260
  0.7650   -1.67830
  0.7670   -1.66290
  0.7690   -1.64670
  0.7710   -1.62890
  0.7730   -1.61020
  0.7750   -1.59090
  0.7770   -1.57100
  0.7790   -1.54980
  0.7810   -1.52780
  0.7830   -1.50520
  0.7850   -1.48190
  0.7870   -1.45790
  0.7890   -1.43290
  0.7910   -1.40770
  0.7930   -1.38220
  0.7950   -1.35620
  0.7970   -1.32990
  0.7990   -1.30330
  0.8010   -1.27640
  0.8030   -1.24910
  0.8050   -1.22140
  0.8070   -1.19360
  0.8090   -1.16570
  0.8110   -1.13770
  0.8130   -1.10970
  0.8150   -1.08160
  0.8170   -1.05320
  0.8190   -1.02500
  0.8210   -0.99650
  0.8230   -0.96800
  0.8250   -0.93980
  0.8270   -0.91150
  0.8290   -0.88290
  0.8310   -0.85410
  0.8330   -0.82550
  0.8350   -0.79710
  0.8370   -0.76870
  0.8390   -0.74020
  0.8410   -0.71200
  0.8430   -0.68440
  0.8450   -0.65680
  0.8470   -0.62910
  0.8490   -0.60150
  0.8510   -0.57420
  0.8530   -0.54730
  0.8550   -0.52050
  0.8570   -0.49390
  0.8590   -0.46780
  0.8610   -0.44180
  0.8630   -0.41610
  0.8650   -0.39080
  0.8670   -0.36570
  0.8690   -0.34090
  0.8710   -0.31660
  0.8730   -0.29290
  0.8750   -0.26970
  0.8770   -0.24690
  0.8790   -0.22420
  0.8810   -0.20200
  0.8830   -0.18040
  0.8850   -0.15940
  0.8870   -0.13890
  0.8890   -0.11880
  0.8910   -0.09940
  0.8930   -0.08050
  0.8950   -0.06220
  0.8970   -0.04450
  0.8990   -0.02760
  0.9010   -0.01130
  0.9030    0.00440
  0.9050    0.01940
  0.9070    0.03380
  0.9090    0.04730
  0.9110    0.06000
  0.9130    0.07220
  0.9150    0.08350
  0.9170    0.09400
  0.9190    0.10400
  0.9210    0.11310
  0.9230    0.12140
  0.9250    0.12890
  0.9270    0.13590
  0.9290    0.14220
  0.9310    0.14760
  0.9330    0.15240
  0.9350    0.15650
  0.9370    0.16010
  0.9390    0.16290
  0.9410    0.16520
  0.9430    0.16700
  0.9450    0.16800
  0.9470    0.16830
  0.9490    0.16800
  0.9510    0.16730
  0.9530    0.16610
  0.9550    0.16440
  0.9570    0.16230
  0.9590    0.15940
  0.9610    0.15610
  0.9630    0.15250
  0.9650    0.14840
  0.9670    0.14390
  0.9690    0.13900
  0.9710    0.13390
  0.9730    0.12830
  0.9750    0.12240
  0.9770    0.11630
  0.9790    0.10980
  0.9810    0.10310
  0.9830    0.09600
  0.9850    0.08880
  0.9870    0.08140
  0.9890    0.07390
  0.9910    0.06620
  0.9930    0.05830
  0.9950    0.05030
  0.9970    0.04220
  0.9990    0.03400
  1.0010    0.02580
  1.0030    0.01770
  1.0050    0.00950
  1.0070    0.00130
  1.0090   -0.00690
  1.0110   -0.01500
  1.0130   -0.02310
  1.0150   -0.03120
  1.0170   -0.03910
  1.0190   -0.04690
  1.0210   -0.05450
  1.0230   -0.06220
  1.0250   -0.06960
  1.0270   -0.07670
  1.0290   -0.08370
  1.0310   -0.09060
  1.0330   -0.09730
  1.0350   -0.10380
  1.0370   -0.11000
  1.0390   -0.11590
  1.0410   -0.12160
  1.0430   -0.12700
  1.0450   -0.13220
  1.0470   -0.13700
  1.0490   -0.14150
  1.0510   -0.14570
  1.0530   -0.14950
  1.0550   -0.15310
  1.0570   -0.15630
  1.0590   -0.15930
  1.0610   -0.16190
  1.0630   -0.16420
  1.0650   -0.16620
  1.0670   -0.16780
  1.0690   -0.16900
  1.0710   -0.16990
  1.0730   -0.17050
  1.0750   -0.17070
  1.0770   -0.17050
  1.0790   -0.17000
  1.0810   -0.16910
  1.0830   -0.16810
  1.0850   -0.16660
  1.0870   -0.16490
  1.0890   -0.16290
  1.0910   -0.16050
  1.0930   -0.15790
  1.0950   -0.15500
  1.0970   -0.15200
  1.0990   -0.14870
  1.1010   -0.14510
  1.1030   -0.14130
  1.1050   -0.13720
  1.1070   -0.13290
  1.1090   -0.12840
  1.1110   -0.12380
  1.1130   -0.11890
  1.1150   -0.11390
  1.1170   -0.10870
  1.1190   -0.10350
  1.1210   -0.09820
  1.1230   -0.09280
  1.1250   -0.08730
  1.1270   -0.08160
  1.1290   -0.07600
  1.1310   -0.07050
  1.1330   -0.06490
  1.1350   -0.05910
  1.1370   -0.05340
  1.1390   -0.04780
  1.1410   -0.04230
  1.1430   -0.03680
  1.1450   -0.03140
  1.1470   -0.02610
  1.1490   -0.02080
  1.1510   -0.01560
  1.1530   -0.01060
  1.1550   -0.00570
  1.1570   -0.00090
  1.1590    0.00390
  1.1610    0.00850
  1.1630    0.01290
  1.1650    0.01720
  1.1670    0.02120
  1.1690    0.02520
  1.1710    0.02890
  1.1730    0.03240
  1.1750    0.03570
  1.1770    0.03900
  1.1790    0.04200
  1.1810    0.04460
  1.1830    0.04710
  1.1850    0.04930
  1.1870    0.05140
  1.1890    0.05320
  1.1910    0.05480
  1.1930    0.05630
  1.1950    0.05770
  1.1970    0.05870
  1.1990    0.05940
  1.2010    0.06010
  1.2030    0.06050
  1.2050    0.06080
  1.2070    0.06100
  1.2090    0.06090
  1.2110    0.06060
  1.2130    0.06010
  1.2150    0.05960
  1.2170    0.05900
  1.2190    0.05830
  1.2210    0.05730
  1.2230    0.05630
  1.2250    0.05510
  1.2270    0.05370
  1.2290    0.05200
  1.2310    0.05010
  1.2330    0.04810
  1.2350    0.04600
  1.2370    0.04400
  1.2390    0.04200
  1.2410    0.04000
  1.2430    0.03790
  1.2450    0.03570
  1.2470    0.03340
  1.2490    0.03090
  1.2510    0.02850
  1.2530    0.02600
  1.2550    0.02340
  1.2570    0.02080
  1.2590    0.01820
  1.2610    0.01550
  1.2630    0.01280
  1.2650    0.01030
  1.2670    0.00780
  1.2690    0.00520
  1.2710    0.00270
  1.2730    0.00030
  1.2750   -0.00210
  1.2770   -0.00460
  1.2790   -0.00690
  1.2810   -0.00920
  1.2830   -0.01160
  1.2850   -0.01380
  1.2870   -0.01610
  1.2890   -0.01850
  1.2910   -0.02080
  1.2930   -0.02290
  1.2950   -0.02510
  1.2970   -0.02710
  1.2990   -0.02900
  1.3010   -0.03080
  1.3030   -0.03250
  1.3050   -0.03430
  1.3070   -0.03580
  1.3090   -0.03710
  1.3110   -0.03840
  1.3130   -0.03950
  1.3150   -0.04060
  1.3170   -0.04140
  1.3190   -0.04210
  1.3210   -0.04270
  1.3230   -0.04320
  1.3250   -0.04340
  1.3270   -0.04360
  1.3290   -0.04360
  1.3310   -0.04350
  1.3330   -0.04310
  1.3350   -0.04260
  1.3370   -0.04190
  1.3390   -0.04120
  1.3410   -0.04030
  1.3430   -0.03920
  1.3450   -0.03810
  1.3470   -0.03680
  1.3490   -0.03540
  1.3510   -0.03390
  1.3530   -0.03220
  1.3550   -0.03050
  1.3570   -0.02870
  1.3590   -0.02680
  1.3610   -0.02490
  1.3630   -0.02300
  1.3650   -0.02090
  1.3670   -0.01870
  1.3690   -0.01650
  1.3710   -0.01440
  1.3730   -0.01220
  1.3750   -0.01010
  1.3770   -0.00800
  1.3790   -0.00590
  1.3810   -0.00390
  1.3830   -0.00200
  1.3850   -0.00010
  1.3870    0.00160
  1.3890    0.00300
  1.3910    0.00400
  1.3930    0.00470
  1.3950    0.00510
  1.3970    0.00550
  1.3990    0.00540
