# z (nm)   (kJ/mol)
  0.223000,  7.926100
  0.225000,  7.409400
  0.227000,  6.886100
  0.229000,  6.342900
  0.231000,  5.778500
  0.233000,  5.190000
  0.235000,  4.600300
  0.237000,  3.980700
  0.239000,  3.346100
  0.241000,  2.719700
  0.243000,  2.086500
  0.245000,  1.447000
  0.247000,  0.793700
  0.249000,  0.127400
  0.251000, -0.540300
  0.253000, -1.209500
  0.255000, -1.877600
  0.257000, -2.553600
  0.259000, -3.230800
  0.261000, -3.906900
  0.263000, -4.588500
  0.265000, -5.265900
  0.267000, -5.941500
  0.269000, -6.615500
  0.271000, -7.282400
  0.273000, -7.944900
  0.275000, -8.597700
  0.277000, -9.240600
  0.279000, -9.879500
  0.281000,-10.511600
  0.283000,-11.139000
  0.285000,-11.754300
  0.287000,-12.357600
  0.289000,-12.950900
  0.291000,-13.528400
  0.293000,-14.093100
  0.295000,-14.642600
  0.297000,-15.174400
  0.299000,-15.691500
  0.301000,-16.191500
  0.303000,-16.675300
  0.305000,-17.143600
  0.307000,-17.592200
  0.309000,-18.020500
  0.311000,-18.429500
  0.313000,-18.816900
  0.315000,-19.180400
  0.317000,-19.522100
  0.319000,-19.842400
  0.321000,-20.140500
  0.323000,-20.415100
  0.325000,-20.665400
  0.327000,-20.891100
  0.329000,-21.093000
  0.331000,-21.270900
  0.333000,-21.423700
  0.335000,-21.552200
  0.337000,-21.657200
  0.339000,-21.736800
  0.341000,-21.790200
  0.343000,-21.819200
  0.345000,-21.824900
  0.347000,-21.807300
  0.349000,-21.764800
  0.351000,-21.700200
  0.353000,-21.615700
  0.355000,-21.509500
  0.357000,-21.382300
  0.359000,-21.235800
  0.361000,-21.070300
  0.363000,-20.884500
  0.365000,-20.679900
  0.367000,-20.458100
  0.369000,-20.219200
  0.371000,-19.965700
  0.373000,-19.699400
  0.375000,-19.419800
  0.377000,-19.126700
  0.379000,-18.821500
  0.381000,-18.504600
  0.383000,-18.178100
  0.385000,-17.843400
  0.387000,-17.500400
  0.389000,-17.150600
  0.391000,-16.794800
  0.393000,-16.434000
  0.395000,-16.068600
  0.397000,-15.699900
  0.399000,-15.328600
  0.401000,-14.955700
  0.403000,-14.581800
  0.405000,-14.207700
  0.407000,-13.834700
  0.409000,-13.462900
  0.411000,-13.093100
  0.413000,-12.726200
  0.415000,-12.362300
  0.417000,-12.002300
  0.419000,-11.647200
  0.421000,-11.297000
  0.423000,-10.952500
  0.425000,-10.614200
  0.427000,-10.282700
  0.429000, -9.958200
  0.431000, -9.641000
  0.433000, -9.331300
  0.435000, -9.029600
  0.437000, -8.736300
  0.439000, -8.451700
  0.441000, -8.175800
  0.443000, -7.908200
  0.445000, -7.649800
  0.447000, -7.400900
  0.449000, -7.161000
  0.451000, -6.930400
  0.453000, -6.709100
  0.455000, -6.497200
  0.457000, -6.294500
  0.459000, -6.101000
  0.461000, -5.917000
  0.463000, -5.742100
  0.465000, -5.575500
  0.467000, -5.417800
  0.469000, -5.268900
  0.471000, -5.128600
  0.473000, -4.996700
  0.475000, -4.872500
  0.477000, -4.755900
  0.479000, -4.646800
  0.481000, -4.544900
  0.483000, -4.449800
  0.485000, -4.361100
  0.487000, -4.278600
  0.489000, -4.202000
  0.491000, -4.130900
  0.493000, -4.064900
  0.495000, -4.003600
  0.497000, -3.946900
  0.499000, -3.894500
  0.501000, -3.846000
  0.503000, -3.800900
  0.505000, -3.758700
  0.507000, -3.718600
  0.509000, -3.680600
  0.511000, -3.644200
  0.513000, -3.609400
  0.515000, -3.576200
  0.517000, -3.543600
  0.519000, -3.511300
  0.521000, -3.479100
  0.523000, -3.446900
  0.525000, -3.414400
  0.527000, -3.381100
  0.529000, -3.347000
  0.531000, -3.311800
  0.533000, -3.275200
  0.535000, -3.237000
  0.537000, -3.197100
  0.539000, -3.155500
  0.541000, -3.112100
  0.543000, -3.066900
  0.545000, -3.019600
  0.547000, -2.970100
  0.549000, -2.918500
  0.551000, -2.865000
  0.553000, -2.809400
  0.555000, -2.752000
  0.557000, -2.692600
  0.559000, -2.630800
  0.561000, -2.567500
  0.563000, -2.503400
  0.565000, -2.437500
  0.567000, -2.369900
  0.569000, -2.301700
  0.571000, -2.232900
  0.573000, -2.162900
  0.575000, -2.092500
  0.577000, -2.022500
  0.579000, -1.952800
  0.581000, -1.883500
  0.583000, -1.815600
  0.585000, -1.749300
  0.587000, -1.683800
  0.589000, -1.618700
  0.591000, -1.555000
  0.593000, -1.493900
  0.595000, -1.435600
  0.597000, -1.379600
  0.599000, -1.326300
  0.601000, -1.276200
  0.603000, -1.229100
  0.605000, -1.185600
  0.607000, -1.145900
  0.609000, -1.110500
  0.611000, -1.079000
  0.613000, -1.051400
  0.615000, -1.027800
  0.617000, -1.008100
  0.619000, -0.992500
  0.621000, -0.981000
  0.623000, -0.973900
  0.625000, -0.970800
  0.627000, -0.971800
  0.629000, -0.977300
  0.631000, -0.987200
  0.633000, -1.000900
  0.635000, -1.018300
  0.637000, -1.039000
  0.639000, -1.062600
  0.641000, -1.089300
  0.643000, -1.119800
  0.645000, -1.153300
  0.647000, -1.189400
  0.649000, -1.228100
  0.651000, -1.269000
  0.653000, -1.311300
  0.655000, -1.355800
  0.657000, -1.402600
  0.659000, -1.449700
  0.661000, -1.497300
  0.663000, -1.546000
  0.665000, -1.595200
  0.667000, -1.644100
  0.669000, -1.692600
  0.671000, -1.741500
  0.673000, -1.790100
  0.675000, -1.837400
  0.677000, -1.883300
  0.679000, -1.927800
  0.681000, -1.970600
  0.683000, -2.012700
  0.685000, -2.053600
  0.687000, -2.092200
  0.689000, -2.129000
  0.691000, -2.164100
  0.693000, -2.196900
  0.695000, -2.227400
  0.697000, -2.255400
  0.699000, -2.281100
  0.701000, -2.304200
  0.703000, -2.324800
  0.705000, -2.342900
  0.707000, -2.358400
  0.709000, -2.371100
  0.711000, -2.381600
  0.713000, -2.389500
  0.715000, -2.394900
  0.717000, -2.397600
  0.719000, -2.397800
  0.721000, -2.395700
  0.723000, -2.391300
  0.725000, -2.384400
  0.727000, -2.375500
  0.729000, -2.364100
  0.731000, -2.350500
  0.733000, -2.334900
  0.735000, -2.317500
  0.737000, -2.298200
  0.739000, -2.277100
  0.741000, -2.254300
  0.743000, -2.229800
  0.745000, -2.203900
  0.747000, -2.176600
  0.749000, -2.148000
  0.751000, -2.118400
  0.753000, -2.087500
  0.755000, -2.055900
  0.757000, -2.023500
  0.759000, -1.989900
  0.761000, -1.955600
  0.763000, -1.920800
  0.765000, -1.885100
  0.767000, -1.848700
  0.769000, -1.812200
  0.771000, -1.775300
  0.773000, -1.738100
  0.775000, -1.700300
  0.777000, -1.662700
  0.779000, -1.625200
  0.781000, -1.587100
  0.783000, -1.548900
  0.785000, -1.511300
  0.787000, -1.473600
  0.789000, -1.436100
  0.791000, -1.398300
  0.793000, -1.360500
  0.795000, -1.323300
  0.797000, -1.286400
  0.799000, -1.249800
  0.801000, -1.213200
  0.803000, -1.176800
  0.805000, -1.140700
  0.807000, -1.105000
  0.809000, -1.069700
  0.811000, -1.034700
  0.813000, -0.999900
  0.815000, -0.965500
  0.817000, -0.931400
  0.819000, -0.897700
  0.821000, -0.864300
  0.823000, -0.831400
  0.825000, -0.798800
  0.827000, -0.766700
  0.829000, -0.735000
  0.831000, -0.703700
  0.833000, -0.673000
  0.835000, -0.642600
  0.837000, -0.612700
  0.839000, -0.583400
  0.841000, -0.554700
  0.843000, -0.526400
  0.845000, -0.498600
  0.847000, -0.471300
  0.849000, -0.444600
  0.851000, -0.418300
  0.853000, -0.392800
  0.855000, -0.367800
  0.857000, -0.343500
  0.859000, -0.319800
  0.861000, -0.296900
  0.863000, -0.274500
  0.865000, -0.252700
  0.867000, -0.231600
  0.869000, -0.211300
  0.871000, -0.191700
  0.873000, -0.172800
  0.875000, -0.154800
  0.877000, -0.137400
  0.879000, -0.120900
  0.881000, -0.105200
  0.883000, -0.090300
  0.885000, -0.076300
  0.887000, -0.063000
  0.889000, -0.050600
  0.891000, -0.039100
  0.893000, -0.028300
  0.895000, -0.018400
  0.897000, -0.009300
  0.899000, -0.000900
  0.901000,  0.006700
  0.903000,  0.013500
  0.905000,  0.019600
  0.907000,  0.024800
  0.909000,  0.029200
  0.911000,  0.032900
  0.913000,  0.035900
  0.915000,  0.038200
  0.917000,  0.039800
  0.919000,  0.040700
  0.921000,  0.041000
  0.923000,  0.040800
  0.925000,  0.040000
  0.927000,  0.038500
  0.929000,  0.036400
  0.931000,  0.033900
  0.933000,  0.031100
  0.935000,  0.027800
  0.937000,  0.024100
  0.939000,  0.019800
  0.941000,  0.015200
  0.943000,  0.010200
  0.945000,  0.005000
  0.947000, -0.000400
  0.949000, -0.006200
  0.951000, -0.012100
  0.953000, -0.018200
  0.955000, -0.024500
  0.957000, -0.031100
  0.959000, -0.037600
  0.961000, -0.044100
  0.963000, -0.050700
  0.965000, -0.057300
  0.967000, -0.063900
  0.969000, -0.070600
  0.971000, -0.077200
  0.973000, -0.083800
  0.975000, -0.090300
  0.977000, -0.096700
  0.979000, -0.103000
  0.981000, -0.109100
  0.983000, -0.115100
  0.985000, -0.120900
  0.987000, -0.126600
  0.989000, -0.132300
  0.991000, -0.137800
  0.993000, -0.143100
  0.995000, -0.148300
  0.997000, -0.153100
  0.999000, -0.157700
  1.001000, -0.162100
  1.003000, -0.166400
  1.005000, -0.170400
  1.007000, -0.174000
  1.009000, -0.177400
  1.011000, -0.180600
  1.013000, -0.183600
  1.015000, -0.186300
  1.017000, -0.188700
  1.019000, -0.191000
  1.021000, -0.193000
  1.023000, -0.194700
  1.025000, -0.196200
  1.027000, -0.197500
  1.029000, -0.198500
  1.031000, -0.199400
  1.033000, -0.200100
  1.035000, -0.200500
  1.037000, -0.200700
  1.039000, -0.200600
  1.041000, -0.200300
  1.043000, -0.199900
  1.045000, -0.199400
  1.047000, -0.198700
  1.049000, -0.197800
  1.051000, -0.196900
  1.053000, -0.195900
  1.055000, -0.194800
  1.057000, -0.193400
  1.059000, -0.191900
  1.061000, -0.190300
  1.063000, -0.188600
  1.065000, -0.186800
  1.067000, -0.184800
  1.069000, -0.182700
  1.071000, -0.180500
  1.073000, -0.178200
  1.075000, -0.175800
  1.077000, -0.173300
  1.079000, -0.170800
  1.081000, -0.168000
  1.083000, -0.165100
  1.085000, -0.162300
  1.087000, -0.159500
  1.089000, -0.156700
  1.091000, -0.153700
  1.093000, -0.150700
  1.095000, -0.147600
  1.097000, -0.144500
  1.099000, -0.141300
  1.101000, -0.138100
  1.103000, -0.134900
  1.105000, -0.131600
  1.107000, -0.128100
  1.109000, -0.124700
  1.111000, -0.121100
  1.113000, -0.117400
  1.115000, -0.113700
  1.117000, -0.109900
  1.119000, -0.106000
  1.121000, -0.102000
  1.123000, -0.098100
  1.125000, -0.094100
  1.127000, -0.090000
  1.129000, -0.086000
  1.131000, -0.081800
  1.133000, -0.077600
  1.135000, -0.073400
  1.137000, -0.069100
  1.139000, -0.064900
  1.141000, -0.060500
  1.143000, -0.056100
  1.145000, -0.051700
  1.147000, -0.047300
  1.149000, -0.042900
  1.151000, -0.038600
  1.153000, -0.034200
  1.155000, -0.029900
  1.157000, -0.025500
  1.159000, -0.021100
  1.161000, -0.016800
  1.163000, -0.012500
  1.165000, -0.008300
  1.167000, -0.004200
  1.169000, -0.000100
  1.171000,  0.003900
  1.173000,  0.007800
  1.175000,  0.011700
  1.177000,  0.015300
  1.179000,  0.018800
  1.181000,  0.022300
  1.183000,  0.025800
  1.185000,  0.029100
  1.187000,  0.032300
  1.189000,  0.035400
  1.191000,  0.038500
  1.193000,  0.041500
  1.195000,  0.044200
  1.197000,  0.046900
  1.199000,  0.049400
  1.201000,  0.051700
  1.203000,  0.053900
  1.205000,  0.056000
  1.207000,  0.058000
  1.209000,  0.059800
  1.211000,  0.061600
  1.213000,  0.063100
  1.215000,  0.064500
  1.217000,  0.065700
  1.219000,  0.066800
  1.221000,  0.067800
  1.223000,  0.068600
  1.225000,  0.069300
  1.227000,  0.070000
  1.229000,  0.070400
  1.231000,  0.070800
  1.233000,  0.071000
  1.235000,  0.071100
  1.237000,  0.071100
  1.239000,  0.070900
  1.241000,  0.070500
  1.243000,  0.070000
  1.245000,  0.069500
  1.247000,  0.068700
  1.249000,  0.067900
  1.251000,  0.066900
  1.253000,  0.065700
  1.255000,  0.064500
  1.257000,  0.063100
  1.259000,  0.061600
  1.261000,  0.059900
  1.263000,  0.058000
  1.265000,  0.055900
  1.267000,  0.053800
  1.269000,  0.051500
  1.271000,  0.049000
  1.273000,  0.046400
  1.275000,  0.043700
  1.277000,  0.040900
  1.279000,  0.038000
  1.281000,  0.035000
  1.283000,  0.031700
  1.285000,  0.028200
  1.287000,  0.024800
  1.289000,  0.021300
  1.291000,  0.017700
  1.293000,  0.014000
  1.295000,  0.010100
  1.297000,  0.006400
  1.299000,  0.002600
  1.301000, -0.001200
  1.303000, -0.004900
  1.305000, -0.008800
  1.307000, -0.012700
  1.309000, -0.016400
  1.311000, -0.020200
  1.313000, -0.024000
  1.315000, -0.027500
  1.317000, -0.031200
  1.319000, -0.034900
  1.321000, -0.038400
  1.323000, -0.041800
  1.325000, -0.044900
  1.327000, -0.047800
  1.329000, -0.050700
  1.331000, -0.053400
  1.333000, -0.056000
  1.335000, -0.058300
  1.337000, -0.060300
  1.339000, -0.062300
  1.341000, -0.064100
  1.343000, -0.065800
  1.345000, -0.067300
  1.347000, -0.068400
  1.349000, -0.069400
  1.351000, -0.070300
  1.353000, -0.070900
  1.355000, -0.071300
  1.357000, -0.071600
  1.359000, -0.071700
  1.361000, -0.071700
  1.363000, -0.071600
  1.365000, -0.071400
  1.367000, -0.071000
  1.369000, -0.070400
  1.371000, -0.069700
  1.373000, -0.068900
  1.375000, -0.068200
  1.377000, -0.067300
  1.379000, -0.066400
  1.381000, -0.065500
  1.383000, -0.064700
  1.385000, -0.064000
  1.387000, -0.063400
  1.389000, -0.062800
  1.391000, -0.062300
  1.393000, -0.062100
  1.395000, -0.062300
  1.397000, -0.062700
  1.399000, -0.063400
