# z (nm)   (kJ/mol)
  0.253000, 11.523000
  0.255000, 11.020200
  0.257000, 10.505500
  0.259000, 10.008100
  0.261000,  9.522600
  0.263000,  9.026200
  0.265000,  8.506800
  0.267000,  7.982800
  0.269000,  7.453400
  0.271000,  6.900800
  0.273000,  6.334800
  0.275000,  5.763700
  0.277000,  5.194000
  0.279000,  4.615200
  0.281000,  4.034700
  0.283000,  3.462200
  0.285000,  2.882400
  0.287000,  2.290800
  0.289000,  1.691900
  0.291000,  1.094100
  0.293000,  0.508000
  0.295000, -0.068100
  0.297000, -0.645200
  0.299000, -1.223300
  0.301000, -1.798100
  0.303000, -2.367800
  0.305000, -2.931300
  0.307000, -3.488900
  0.309000, -4.038800
  0.311000, -4.581700
  0.313000, -5.119800
  0.315000, -5.648300
  0.317000, -6.166100
  0.319000, -6.670100
  0.321000, -7.163800
  0.323000, -7.648500
  0.325000, -8.120200
  0.327000, -8.578900
  0.329000, -9.027800
  0.331000, -9.465300
  0.333000, -9.888500
  0.335000,-10.298700
  0.337000,-10.694200
  0.339000,-11.074100
  0.341000,-11.438200
  0.343000,-11.786400
  0.345000,-12.119500
  0.347000,-12.436900
  0.349000,-12.738300
  0.351000,-13.022800
  0.353000,-13.290400
  0.355000,-13.541100
  0.357000,-13.774200
  0.359000,-13.990600
  0.361000,-14.189900
  0.363000,-14.371300
  0.365000,-14.534500
  0.367000,-14.680200
  0.369000,-14.809100
  0.371000,-14.920200
  0.373000,-15.014000
  0.375000,-15.091200
  0.377000,-15.150500
  0.379000,-15.193900
  0.381000,-15.221900
  0.383000,-15.233100
  0.385000,-15.228800
  0.387000,-15.209500
  0.389000,-15.176700
  0.391000,-15.129200
  0.393000,-15.067700
  0.395000,-14.993900
  0.397000,-14.907200
  0.399000,-14.809800
  0.401000,-14.702300
  0.403000,-14.584900
  0.405000,-14.457500
  0.407000,-14.320500
  0.409000,-14.176500
  0.411000,-14.025000
  0.413000,-13.865200
  0.415000,-13.699500
  0.417000,-13.528400
  0.419000,-13.351400
  0.421000,-13.170500
  0.423000,-12.986500
  0.425000,-12.799100
  0.427000,-12.609400
  0.429000,-12.417600
  0.431000,-12.224000
  0.433000,-12.028800
  0.435000,-11.833100
  0.437000,-11.637400
  0.439000,-11.442000
  0.441000,-11.247100
  0.443000,-11.053200
  0.445000,-10.861000
  0.447000,-10.670400
  0.449000,-10.481800
  0.451000,-10.295400
  0.453000,-10.111300
  0.455000, -9.929800
  0.457000, -9.751100
  0.459000, -9.575000
  0.461000, -9.401800
  0.463000, -9.232200
  0.465000, -9.065600
  0.467000, -8.902200
  0.469000, -8.741800
  0.471000, -8.584400
  0.473000, -8.430300
  0.475000, -8.279500
  0.477000, -8.132100
  0.479000, -7.987300
  0.481000, -7.845600
  0.483000, -7.706700
  0.485000, -7.569500
  0.487000, -7.434300
  0.489000, -7.301500
  0.491000, -7.171100
  0.493000, -7.042500
  0.495000, -6.914900
  0.497000, -6.788900
  0.499000, -6.664200
  0.501000, -6.540600
  0.503000, -6.417800
  0.505000, -6.295100
  0.507000, -6.172600
  0.509000, -6.050000
  0.511000, -5.927100
  0.513000, -5.804100
  0.515000, -5.680800
  0.517000, -5.556500
  0.519000, -5.431100
  0.521000, -5.305000
  0.523000, -5.177400
  0.525000, -5.048100
  0.527000, -4.917500
  0.529000, -4.785300
  0.531000, -4.651300
  0.533000, -4.515700
  0.535000, -4.377900
  0.537000, -4.238100
  0.539000, -4.096700
  0.541000, -3.953400
  0.543000, -3.808200
  0.545000, -3.661500
  0.547000, -3.513100
  0.549000, -3.362800
  0.551000, -3.210800
  0.553000, -3.057200
  0.555000, -2.901900
  0.557000, -2.745900
  0.559000, -2.589400
  0.561000, -2.431000
  0.563000, -2.270600
  0.565000, -2.110300
  0.567000, -1.950600
  0.569000, -1.790400
  0.571000, -1.630700
  0.573000, -1.472000
  0.575000, -1.313800
  0.577000, -1.156500
  0.579000, -1.000500
  0.581000, -0.846300
  0.583000, -0.694200
  0.585000, -0.543400
  0.587000, -0.395000
  0.589000, -0.250200
  0.591000, -0.108800
  0.593000,  0.030200
  0.595000,  0.164800
  0.597000,  0.294300
  0.599000,  0.420300
  0.601000,  0.542600
  0.603000,  0.661000
  0.605000,  0.773400
  0.607000,  0.880700
  0.609000,  0.981900
  0.611000,  1.076600
  0.613000,  1.165600
  0.615000,  1.247900
  0.617000,  1.324500
  0.619000,  1.395000
  0.621000,  1.458600
  0.623000,  1.515100
  0.625000,  1.564800
  0.627000,  1.608300
  0.629000,  1.645400
  0.631000,  1.675400
  0.633000,  1.698600
  0.635000,  1.715500
  0.637000,  1.726200
  0.639000,  1.730800
  0.641000,  1.728800
  0.643000,  1.720800
  0.645000,  1.707300
  0.647000,  1.687900
  0.649000,  1.662700
  0.651000,  1.632400
  0.653000,  1.597200
  0.655000,  1.557200
  0.657000,  1.512900
  0.659000,  1.464300
  0.661000,  1.411900
  0.663000,  1.356600
  0.665000,  1.298700
  0.667000,  1.238000
  0.669000,  1.173500
  0.671000,  1.106100
  0.673000,  1.037700
  0.675000,  0.967600
  0.677000,  0.895100
  0.679000,  0.821900
  0.681000,  0.749100
  0.683000,  0.675500
  0.685000,  0.601400
  0.687000,  0.527200
  0.689000,  0.452900
  0.691000,  0.378700
  0.693000,  0.304500
  0.695000,  0.230800
  0.697000,  0.159500
  0.699000,  0.090200
  0.701000,  0.021300
  0.703000, -0.046100
  0.705000, -0.111300
  0.707000, -0.174700
  0.709000, -0.236400
  0.711000, -0.296300
  0.713000, -0.353900
  0.715000, -0.409200
  0.717000, -0.461800
  0.719000, -0.511800
  0.721000, -0.559700
  0.723000, -0.605200
  0.725000, -0.648100
  0.727000, -0.688400
  0.729000, -0.726100
  0.731000, -0.761300
  0.733000, -0.793900
  0.735000, -0.823900
  0.737000, -0.851300
  0.739000, -0.876400
  0.741000, -0.899200
  0.743000, -0.919300
  0.745000, -0.937100
  0.747000, -0.952700
  0.749000, -0.966000
  0.751000, -0.977100
  0.753000, -0.986200
  0.755000, -0.993400
  0.757000, -0.998700
  0.759000, -1.002100
  0.761000, -1.003500
  0.763000, -1.003100
  0.765000, -1.001200
  0.767000, -0.997900
  0.769000, -0.993300
  0.771000, -0.987400
  0.773000, -0.980100
  0.775000, -0.971500
  0.777000, -0.961600
  0.779000, -0.950400
  0.781000, -0.938100
  0.783000, -0.924900
  0.785000, -0.910600
  0.787000, -0.895000
  0.789000, -0.878700
  0.791000, -0.862100
  0.793000, -0.844700
  0.795000, -0.826200
  0.797000, -0.807100
  0.799000, -0.787300
  0.801000, -0.766800
  0.803000, -0.746100
  0.805000, -0.724600
  0.807000, -0.702400
  0.809000, -0.679800
  0.811000, -0.656900
  0.813000, -0.633700
  0.815000, -0.610200
  0.817000, -0.586200
  0.819000, -0.561900
  0.821000, -0.537600
  0.823000, -0.512800
  0.825000, -0.487600
  0.827000, -0.462000
  0.829000, -0.436000
  0.831000, -0.410200
  0.833000, -0.384000
  0.835000, -0.357300
  0.837000, -0.330300
  0.839000, -0.303400
  0.841000, -0.276400
  0.843000, -0.249200
  0.845000, -0.221900
  0.847000, -0.194500
  0.849000, -0.167100
  0.851000, -0.139900
  0.853000, -0.112700
  0.855000, -0.085600
  0.857000, -0.058500
  0.859000, -0.031800
  0.861000, -0.005300
  0.863000,  0.021000
  0.865000,  0.047100
  0.867000,  0.072900
  0.869000,  0.098200
  0.871000,  0.123200
  0.873000,  0.147800
  0.875000,  0.171900
  0.877000,  0.195400
  0.879000,  0.218400
  0.881000,  0.241000
  0.883000,  0.263000
  0.885000,  0.284600
  0.887000,  0.305400
  0.889000,  0.325300
  0.891000,  0.344500
  0.893000,  0.362800
  0.895000,  0.380500
  0.897000,  0.397300
  0.899000,  0.413100
  0.901000,  0.428100
  0.903000,  0.442200
  0.905000,  0.455400
  0.907000,  0.467700
  0.909000,  0.478900
  0.911000,  0.489100
  0.913000,  0.498300
  0.915000,  0.506300
  0.917000,  0.513400
  0.919000,  0.519500
  0.921000,  0.524600
  0.923000,  0.528400
  0.925000,  0.531300
  0.927000,  0.533000
  0.929000,  0.533800
  0.931000,  0.533400
  0.933000,  0.531900
  0.935000,  0.529400
  0.937000,  0.526000
  0.939000,  0.521600
  0.941000,  0.516100
  0.943000,  0.509600
  0.945000,  0.502300
  0.947000,  0.494100
  0.949000,  0.485200
  0.951000,  0.475500
  0.953000,  0.465100
  0.955000,  0.453900
  0.957000,  0.441700
  0.959000,  0.428700
  0.961000,  0.415100
  0.963000,  0.401100
  0.965000,  0.386600
  0.967000,  0.371600
  0.969000,  0.356000
  0.971000,  0.340100
  0.973000,  0.323900
  0.975000,  0.307100
  0.977000,  0.290100
  0.979000,  0.272900
  0.981000,  0.255400
  0.983000,  0.237600
  0.985000,  0.219800
  0.987000,  0.201800
  0.989000,  0.183800
  0.991000,  0.165600
  0.993000,  0.147400
  0.995000,  0.129400
  0.997000,  0.111700
  0.999000,  0.094100
  1.001000,  0.076600
  1.003000,  0.059300
  1.005000,  0.042400
  1.007000,  0.025600
  1.009000,  0.009000
  1.011000, -0.007200
  1.013000, -0.023100
  1.015000, -0.038800
  1.017000, -0.053900
  1.019000, -0.068800
  1.021000, -0.083100
  1.023000, -0.096900
  1.025000, -0.110200
  1.027000, -0.123300
  1.029000, -0.136000
  1.031000, -0.148100
  1.033000, -0.159500
  1.035000, -0.170200
  1.037000, -0.180500
  1.039000, -0.190200
  1.041000, -0.199400
  1.043000, -0.208200
  1.045000, -0.216400
  1.047000, -0.224100
  1.049000, -0.231200
  1.051000, -0.237700
  1.053000, -0.243500
  1.055000, -0.248900
  1.057000, -0.253800
  1.059000, -0.258200
  1.061000, -0.262100
  1.063000, -0.265400
  1.065000, -0.268200
  1.067000, -0.270400
  1.069000, -0.272200
  1.071000, -0.273500
  1.073000, -0.274300
  1.075000, -0.274700
  1.077000, -0.274500
  1.079000, -0.273900
  1.081000, -0.272900
  1.083000, -0.271400
  1.085000, -0.269600
  1.087000, -0.267400
  1.089000, -0.264800
  1.091000, -0.261800
  1.093000, -0.258600
  1.095000, -0.254900
  1.097000, -0.251000
  1.099000, -0.246800
  1.101000, -0.242300
  1.103000, -0.237600
  1.105000, -0.232500
  1.107000, -0.227100
  1.109000, -0.221500
  1.111000, -0.215700
  1.113000, -0.209600
  1.115000, -0.203400
  1.117000, -0.197000
  1.119000, -0.190500
  1.121000, -0.183800
  1.123000, -0.177000
  1.125000, -0.170100
  1.127000, -0.163100
  1.129000, -0.155900
  1.131000, -0.148600
  1.133000, -0.141300
  1.135000, -0.134100
  1.137000, -0.126700
  1.139000, -0.119400
  1.141000, -0.112100
  1.143000, -0.104800
  1.145000, -0.097400
  1.147000, -0.090200
  1.149000, -0.082900
  1.151000, -0.075700
  1.153000, -0.068600
  1.155000, -0.061500
  1.157000, -0.054400
  1.159000, -0.047400
  1.161000, -0.040500
  1.163000, -0.033700
  1.165000, -0.027000
  1.167000, -0.020500
  1.169000, -0.014100
  1.171000, -0.007800
  1.173000, -0.001600
  1.175000,  0.004600
  1.177000,  0.010500
  1.179000,  0.016200
  1.181000,  0.021700
  1.183000,  0.027100
  1.185000,  0.032300
  1.187000,  0.037500
  1.189000,  0.042400
  1.191000,  0.047200
  1.193000,  0.051700
  1.195000,  0.056100
  1.197000,  0.060400
  1.199000,  0.064400
  1.201000,  0.068100
  1.203000,  0.071700
  1.205000,  0.075100
  1.207000,  0.078300
  1.209000,  0.081400
  1.211000,  0.084200
  1.213000,  0.086700
  1.215000,  0.089100
  1.217000,  0.091200
  1.219000,  0.093100
  1.221000,  0.094800
  1.223000,  0.096300
  1.225000,  0.097700
  1.227000,  0.098800
  1.229000,  0.099600
  1.231000,  0.100200
  1.233000,  0.100700
  1.235000,  0.101000
  1.237000,  0.101100
  1.239000,  0.100900
  1.241000,  0.100400
  1.243000,  0.099700
  1.245000,  0.098900
  1.247000,  0.097800
  1.249000,  0.096500
  1.251000,  0.095000
  1.253000,  0.093200
  1.255000,  0.091200
  1.257000,  0.088900
  1.259000,  0.086400
  1.261000,  0.083700
  1.263000,  0.080800
  1.265000,  0.077800
  1.267000,  0.074600
  1.269000,  0.071100
  1.271000,  0.067400
  1.273000,  0.063600
  1.275000,  0.059500
  1.277000,  0.055300
  1.279000,  0.051000
  1.281000,  0.046700
  1.283000,  0.042200
  1.285000,  0.037500
  1.287000,  0.032800
  1.289000,  0.027800
  1.291000,  0.022700
  1.293000,  0.017600
  1.295000,  0.012400
  1.297000,  0.007200
  1.299000,  0.001800
  1.301000, -0.003500
  1.303000, -0.008900
  1.305000, -0.014200
  1.307000, -0.019600
  1.309000, -0.025000
  1.311000, -0.030400
  1.313000, -0.035800
  1.315000, -0.041000
  1.317000, -0.046000
  1.319000, -0.050900
  1.321000, -0.055800
  1.323000, -0.060400
  1.325000, -0.064900
  1.327000, -0.069100
  1.329000, -0.073200
  1.331000, -0.077200
  1.333000, -0.081100
  1.335000, -0.084600
  1.337000, -0.087900
  1.339000, -0.091000
  1.341000, -0.093700
  1.343000, -0.096200
  1.345000, -0.098400
  1.347000, -0.100300
  1.349000, -0.101900
  1.351000, -0.103100
  1.353000, -0.104000
  1.355000, -0.104600
  1.357000, -0.104900
  1.359000, -0.104900
  1.361000, -0.104600
  1.363000, -0.103900
  1.365000, -0.102900
  1.367000, -0.101800
  1.369000, -0.100400
  1.371000, -0.098800
  1.373000, -0.096900
  1.375000, -0.094600
  1.377000, -0.092300
  1.379000, -0.089900
  1.381000, -0.087200
  1.383000, -0.084300
  1.385000, -0.081200
  1.387000, -0.077900
  1.389000, -0.074800
  1.391000, -0.071700
  1.393000, -0.068800
  1.395000, -0.065900
  1.397000, -0.063200
  1.399000, -0.060800
