# z (nm)   (kJ/mol)
  0.275000, 12.595600
  0.277000, 12.092500
  0.279000, 11.604700
  0.281000, 11.110100
  0.283000, 10.603900
  0.285000, 10.098100
  0.287000,  9.576200
  0.289000,  9.044400
  0.291000,  8.525900
  0.293000,  8.001800
  0.295000,  7.467500
  0.297000,  6.921600
  0.299000,  6.373700
  0.301000,  5.820600
  0.303000,  5.258800
  0.305000,  4.700700
  0.307000,  4.136900
  0.309000,  3.567800
  0.311000,  3.005200
  0.313000,  2.440700
  0.315000,  1.866700
  0.317000,  1.296500
  0.319000,  0.738200
  0.321000,  0.187300
  0.323000, -0.360100
  0.325000, -0.909400
  0.327000, -1.453200
  0.329000, -1.985200
  0.331000, -2.508800
  0.333000, -3.029300
  0.335000, -3.544100
  0.337000, -4.045600
  0.339000, -4.537000
  0.341000, -5.023900
  0.343000, -5.504900
  0.345000, -5.973100
  0.347000, -6.427200
  0.349000, -6.871500
  0.351000, -7.303400
  0.353000, -7.722000
  0.355000, -8.128600
  0.357000, -8.522900
  0.359000, -8.905400
  0.361000, -9.274400
  0.363000, -9.629300
  0.365000, -9.970200
  0.367000,-10.295900
  0.369000,-10.606400
  0.371000,-10.903100
  0.373000,-11.185000
  0.375000,-11.451100
  0.377000,-11.701400
  0.379000,-11.935500
  0.381000,-12.154300
  0.383000,-12.357800
  0.385000,-12.545200
  0.387000,-12.716300
  0.389000,-12.870800
  0.391000,-13.009500
  0.393000,-13.133200
  0.395000,-13.241600
  0.397000,-13.334700
  0.399000,-13.412400
  0.401000,-13.475700
  0.403000,-13.523300
  0.405000,-13.555800
  0.407000,-13.575000
  0.409000,-13.581300
  0.411000,-13.574700
  0.413000,-13.554900
  0.415000,-13.522400
  0.417000,-13.478100
  0.419000,-13.421700
  0.421000,-13.354400
  0.423000,-13.276400
  0.425000,-13.188800
  0.427000,-13.092600
  0.429000,-12.987000
  0.431000,-12.873100
  0.433000,-12.750900
  0.435000,-12.621200
  0.437000,-12.484300
  0.439000,-12.340900
  0.441000,-12.191400
  0.443000,-12.035600
  0.445000,-11.874300
  0.447000,-11.708200
  0.449000,-11.537600
  0.451000,-11.362600
  0.453000,-11.183400
  0.455000,-11.000600
  0.457000,-10.814200
  0.459000,-10.624500
  0.461000,-10.432000
  0.463000,-10.236700
  0.465000,-10.039000
  0.467000, -9.838800
  0.469000, -9.636600
  0.471000, -9.432600
  0.473000, -9.226800
  0.475000, -9.019100
  0.477000, -8.809500
  0.479000, -8.598700
  0.481000, -8.386900
  0.483000, -8.173700
  0.485000, -7.959300
  0.487000, -7.743900
  0.489000, -7.527500
  0.491000, -7.310300
  0.493000, -7.092600
  0.495000, -6.874400
  0.497000, -6.655300
  0.499000, -6.435700
  0.501000, -6.215800
  0.503000, -5.995300
  0.505000, -5.774900
  0.507000, -5.554200
  0.509000, -5.333200
  0.511000, -5.112400
  0.513000, -4.891700
  0.515000, -4.671300
  0.517000, -4.451100
  0.519000, -4.231000
  0.521000, -4.010900
  0.523000, -3.791300
  0.525000, -3.572300
  0.527000, -3.354200
  0.529000, -3.137300
  0.531000, -2.921800
  0.533000, -2.708100
  0.535000, -2.495800
  0.537000, -2.284300
  0.539000, -2.074100
  0.541000, -1.865700
  0.543000, -1.658900
  0.545000, -1.454500
  0.547000, -1.252500
  0.549000, -1.052000
  0.551000, -0.853700
  0.553000, -0.659000
  0.555000, -0.466600
  0.557000, -0.276200
  0.559000, -0.089200
  0.561000,  0.094000
  0.563000,  0.272900
  0.565000,  0.448400
  0.567000,  0.620200
  0.569000,  0.787200
  0.571000,  0.949000
  0.573000,  1.106500
  0.575000,  1.259800
  0.577000,  1.407900
  0.579000,  1.551500
  0.581000,  1.690000
  0.583000,  1.822300
  0.585000,  1.950000
  0.587000,  2.072700
  0.589000,  2.189300
  0.591000,  2.299900
  0.593000,  2.404300
  0.595000,  2.501500
  0.597000,  2.592000
  0.599000,  2.676400
  0.601000,  2.754800
  0.603000,  2.826800
  0.605000,  2.892400
  0.607000,  2.951100
  0.609000,  3.003400
  0.611000,  3.048900
  0.613000,  3.087700
  0.615000,  3.119800
  0.617000,  3.145000
  0.619000,  3.163600
  0.621000,  3.175400
  0.623000,  3.180900
  0.625000,  3.179900
  0.627000,  3.172600
  0.629000,  3.158900
  0.631000,  3.138900
  0.633000,  3.113000
  0.635000,  3.081300
  0.637000,  3.043300
  0.639000,  2.999700
  0.641000,  2.951100
  0.643000,  2.898000
  0.645000,  2.840300
  0.647000,  2.776500
  0.649000,  2.708900
  0.651000,  2.637800
  0.653000,  2.562100
  0.655000,  2.482800
  0.657000,  2.399900
  0.659000,  2.313500
  0.661000,  2.223000
  0.663000,  2.129000
  0.665000,  2.034000
  0.667000,  1.937700
  0.669000,  1.838300
  0.671000,  1.736100
  0.673000,  1.632500
  0.675000,  1.529800
  0.677000,  1.426400
  0.679000,  1.322900
  0.681000,  1.220300
  0.683000,  1.115600
  0.685000,  1.010700
  0.687000,  0.907400
  0.689000,  0.803400
  0.691000,  0.700500
  0.693000,  0.599300
  0.695000,  0.498800
  0.697000,  0.399900
  0.699000,  0.302300
  0.701000,  0.206000
  0.703000,  0.111500
  0.705000,  0.019300
  0.707000, -0.070200
  0.709000, -0.157100
  0.711000, -0.241500
  0.713000, -0.323100
  0.715000, -0.402100
  0.717000, -0.478300
  0.719000, -0.552000
  0.721000, -0.622500
  0.723000, -0.689300
  0.725000, -0.753100
  0.727000, -0.813800
  0.729000, -0.871500
  0.731000, -0.925700
  0.733000, -0.976600
  0.735000, -1.024200
  0.737000, -1.068400
  0.739000, -1.109300
  0.741000, -1.146900
  0.743000, -1.181300
  0.745000, -1.212300
  0.747000, -1.240000
  0.749000, -1.264700
  0.751000, -1.286000
  0.753000, -1.304400
  0.755000, -1.320000
  0.757000, -1.332500
  0.759000, -1.341900
  0.761000, -1.348500
  0.763000, -1.351900
  0.765000, -1.352600
  0.767000, -1.350800
  0.769000, -1.346400
  0.771000, -1.339500
  0.773000, -1.329900
  0.775000, -1.318100
  0.777000, -1.304000
  0.779000, -1.288000
  0.781000, -1.269800
  0.783000, -1.249500
  0.785000, -1.227200
  0.787000, -1.203000
  0.789000, -1.177300
  0.791000, -1.150200
  0.793000, -1.121200
  0.795000, -1.090900
  0.797000, -1.059700
  0.799000, -1.027000
  0.801000, -0.993000
  0.803000, -0.958000
  0.805000, -0.922000
  0.807000, -0.885000
  0.809000, -0.847000
  0.811000, -0.808300
  0.813000, -0.769000
  0.815000, -0.728900
  0.817000, -0.688400
  0.819000, -0.647400
  0.821000, -0.606100
  0.823000, -0.564300
  0.825000, -0.522000
  0.827000, -0.479700
  0.829000, -0.437500
  0.831000, -0.395200
  0.833000, -0.352800
  0.835000, -0.310300
  0.837000, -0.267800
  0.839000, -0.225700
  0.841000, -0.183900
  0.843000, -0.142600
  0.845000, -0.101500
  0.847000, -0.060800
  0.849000, -0.020700
  0.851000,  0.019000
  0.853000,  0.058000
  0.855000,  0.096400
  0.857000,  0.134000
  0.859000,  0.170900
  0.861000,  0.207100
  0.863000,  0.242300
  0.865000,  0.276600
  0.867000,  0.310100
  0.869000,  0.342600
  0.871000,  0.374000
  0.873000,  0.404500
  0.875000,  0.434000
  0.877000,  0.462400
  0.879000,  0.489700
  0.881000,  0.515800
  0.883000,  0.540600
  0.885000,  0.564300
  0.887000,  0.586700
  0.889000,  0.608000
  0.891000,  0.628000
  0.893000,  0.646600
  0.895000,  0.663900
  0.897000,  0.679800
  0.899000,  0.694400
  0.901000,  0.707800
  0.903000,  0.719800
  0.905000,  0.730400
  0.907000,  0.739700
  0.909000,  0.747600
  0.911000,  0.754000
  0.913000,  0.759000
  0.915000,  0.762700
  0.917000,  0.765100
  0.919000,  0.766200
  0.921000,  0.765800
  0.923000,  0.764000
  0.925000,  0.760800
  0.927000,  0.756500
  0.929000,  0.751200
  0.931000,  0.744200
  0.933000,  0.735700
  0.935000,  0.726200
  0.937000,  0.715700
  0.939000,  0.703900
  0.941000,  0.690600
  0.943000,  0.676100
  0.945000,  0.660900
  0.947000,  0.644600
  0.949000,  0.627200
  0.951000,  0.608900
  0.953000,  0.589800
  0.955000,  0.570000
  0.957000,  0.549100
  0.959000,  0.527300
  0.961000,  0.504300
  0.963000,  0.481100
  0.965000,  0.457200
  0.967000,  0.432700
  0.969000,  0.407600
  0.971000,  0.382100
  0.973000,  0.356400
  0.975000,  0.330400
  0.977000,  0.303800
  0.979000,  0.276800
  0.981000,  0.249600
  0.983000,  0.222400
  0.985000,  0.194900
  0.987000,  0.167300
  0.989000,  0.139900
  0.991000,  0.112700
  0.993000,  0.085600
  0.995000,  0.058600
  0.997000,  0.032000
  0.999000,  0.005700
  1.001000, -0.020400
  1.003000, -0.046000
  1.005000, -0.071000
  1.007000, -0.095700
  1.009000, -0.119900
  1.011000, -0.143600
  1.013000, -0.166500
  1.015000, -0.188700
  1.017000, -0.210400
  1.019000, -0.231300
  1.021000, -0.251500
  1.023000, -0.270900
  1.025000, -0.289600
  1.027000, -0.307300
  1.029000, -0.324200
  1.031000, -0.340300
  1.033000, -0.355400
  1.035000, -0.369600
  1.037000, -0.382900
  1.039000, -0.395300
  1.041000, -0.406900
  1.043000, -0.417500
  1.045000, -0.427300
  1.047000, -0.436200
  1.049000, -0.444300
  1.051000, -0.451500
  1.053000, -0.457700
  1.055000, -0.463000
  1.057000, -0.467200
  1.059000, -0.470700
  1.061000, -0.473500
  1.063000, -0.475400
  1.065000, -0.476600
  1.067000, -0.477000
  1.069000, -0.476500
  1.071000, -0.475300
  1.073000, -0.473400
  1.075000, -0.470800
  1.077000, -0.467500
  1.079000, -0.463600
  1.081000, -0.459200
  1.083000, -0.454100
  1.085000, -0.448300
  1.087000, -0.442100
  1.089000, -0.435300
  1.091000, -0.428000
  1.093000, -0.420200
  1.095000, -0.411900
  1.097000, -0.403200
  1.099000, -0.394200
  1.101000, -0.384900
  1.103000, -0.375100
  1.105000, -0.365100
  1.107000, -0.354900
  1.109000, -0.344400
  1.111000, -0.333600
  1.113000, -0.322700
  1.115000, -0.311600
  1.117000, -0.300400
  1.119000, -0.289000
  1.121000, -0.277600
  1.123000, -0.266200
  1.125000, -0.254700
  1.127000, -0.243100
  1.129000, -0.231500
  1.131000, -0.220000
  1.133000, -0.208600
  1.135000, -0.197200
  1.137000, -0.185900
  1.139000, -0.174700
  1.141000, -0.163800
  1.143000, -0.153000
  1.145000, -0.142400
  1.147000, -0.131900
  1.149000, -0.121700
  1.151000, -0.111600
  1.153000, -0.101700
  1.155000, -0.092200
  1.157000, -0.083000
  1.159000, -0.074100
  1.161000, -0.065100
  1.163000, -0.056400
  1.165000, -0.048100
  1.167000, -0.040100
  1.169000, -0.032400
  1.171000, -0.024900
  1.173000, -0.017800
  1.175000, -0.010900
  1.177000, -0.004400
  1.179000,  0.001900
  1.181000,  0.007900
  1.183000,  0.013400
  1.185000,  0.018700
  1.187000,  0.023800
  1.189000,  0.028500
  1.191000,  0.033100
  1.193000,  0.037200
  1.195000,  0.041000
  1.197000,  0.044600
  1.199000,  0.048000
  1.201000,  0.051100
  1.203000,  0.053900
  1.205000,  0.056500
  1.207000,  0.058800
  1.209000,  0.060700
  1.211000,  0.062400
  1.213000,  0.063900
  1.215000,  0.065100
  1.217000,  0.066200
  1.219000,  0.067100
  1.221000,  0.067700
  1.223000,  0.068000
  1.225000,  0.068100
  1.227000,  0.068000
  1.229000,  0.067700
  1.231000,  0.067100
  1.233000,  0.066500
  1.235000,  0.065700
  1.237000,  0.064700
  1.239000,  0.063600
  1.241000,  0.062400
  1.243000,  0.061000
  1.245000,  0.059500
  1.247000,  0.057900
  1.249000,  0.056000
  1.251000,  0.054000
  1.253000,  0.051900
  1.255000,  0.049900
  1.257000,  0.047600
  1.259000,  0.045200
  1.261000,  0.042900
  1.263000,  0.040400
  1.265000,  0.037900
  1.267000,  0.035400
  1.269000,  0.032800
  1.271000,  0.030000
  1.273000,  0.027200
  1.275000,  0.024400
  1.277000,  0.021600
  1.279000,  0.018700
  1.281000,  0.015800
  1.283000,  0.013000
  1.285000,  0.010200
  1.287000,  0.007200
  1.289000,  0.004300
  1.291000,  0.001300
  1.293000, -0.001800
  1.295000, -0.004800
  1.297000, -0.007700
  1.299000, -0.010600
  1.301000, -0.013600
  1.303000, -0.016700
  1.305000, -0.019700
  1.307000, -0.022500
  1.309000, -0.025200
  1.311000, -0.028000
  1.313000, -0.030800
  1.315000, -0.033600
  1.317000, -0.036300
  1.319000, -0.038800
  1.321000, -0.041300
  1.323000, -0.043600
  1.325000, -0.045900
  1.327000, -0.048200
  1.329000, -0.050200
  1.331000, -0.052100
  1.333000, -0.054000
  1.335000, -0.055700
  1.337000, -0.057100
  1.339000, -0.058400
  1.341000, -0.059600
  1.343000, -0.060700
  1.345000, -0.061600
  1.347000, -0.062200
  1.349000, -0.062500
  1.351000, -0.062600
  1.353000, -0.062600
  1.355000, -0.062300
  1.357000, -0.061900
  1.359000, -0.061400
  1.361000, -0.060500
  1.363000, -0.059700
  1.365000, -0.058600
  1.367000, -0.057200
  1.369000, -0.055400
  1.371000, -0.053300
  1.373000, -0.051200
  1.375000, -0.048900
  1.377000, -0.046400
  1.379000, -0.043500
  1.381000, -0.040500
  1.383000, -0.037600
  1.385000, -0.034500
  1.387000, -0.031100
  1.389000, -0.027800
  1.391000, -0.024500
  1.393000, -0.021300
  1.395000, -0.018200
  1.397000, -0.015300
  1.399000, -0.012500
