# z (nm)   (kJ/mol)
  0.225000,  6.913500
  0.229000,  5.673100
  0.231000,  5.046900
  0.233000,  4.417800
  0.235000,  3.779200
  0.237000,  3.114100
  0.239000,  2.444600
  0.241000,  1.759500
  0.243000,  1.064100
  0.245000,  0.364500
  0.247000, -0.344100
  0.249000, -1.055900
  0.251000, -1.779400
  0.253000, -2.508900
  0.255000, -3.228700
  0.257000, -3.939700
  0.259000, -4.657100
  0.261000, -5.377400
  0.263000, -6.093100
  0.265000, -6.808900
  0.267000, -7.524000
  0.269000, -8.228200
  0.271000, -8.923300
  0.273000, -9.614700
  0.275000,-10.298800
  0.277000,-10.974500
  0.279000,-11.642600
  0.281000,-12.296600
  0.283000,-12.938800
  0.285000,-13.567800
  0.287000,-14.178100
  0.289000,-14.776100
  0.291000,-15.362200
  0.293000,-15.931000
  0.295000,-16.481600
  0.297000,-17.013700
  0.299000,-17.528400
  0.301000,-18.026000
  0.303000,-18.501500
  0.305000,-18.954900
  0.307000,-19.387600
  0.309000,-19.797400
  0.311000,-20.184000
  0.313000,-20.547600
  0.315000,-20.886900
  0.317000,-21.202200
  0.319000,-21.493300
  0.321000,-21.759200
  0.323000,-21.999900
  0.325000,-22.215100
  0.327000,-22.405200
  0.329000,-22.569300
  0.331000,-22.706800
  0.333000,-22.818900
  0.335000,-22.906300
  0.337000,-22.969000
  0.339000,-23.006500
  0.341000,-23.018800
  0.343000,-23.007500
  0.345000,-22.973400
  0.347000,-22.915700
  0.349000,-22.836800
  0.351000,-22.735900
  0.353000,-22.611700
  0.355000,-22.470900
  0.357000,-22.312500
  0.359000,-22.136000
  0.361000,-21.943800
  0.363000,-21.736800
  0.365000,-21.517000
  0.367000,-21.283800
  0.369000,-21.038900
  0.371000,-20.782100
  0.373000,-20.516400
  0.375000,-20.243700
  0.377000,-19.963400
  0.379000,-19.677400
  0.381000,-19.386800
  0.383000,-19.092400
  0.385000,-18.795700
  0.387000,-18.498100
  0.389000,-18.200800
  0.391000,-17.903400
  0.393000,-17.607300
  0.395000,-17.314300
  0.397000,-17.024700
  0.399000,-16.739200
  0.401000,-16.458300
  0.403000,-16.182800
  0.405000,-15.913200
  0.407000,-15.650300
  0.409000,-15.395200
  0.411000,-15.147900
  0.413000,-14.907900
  0.415000,-14.675900
  0.417000,-14.452800
  0.419000,-14.237600
  0.421000,-14.031300
  0.423000,-13.833900
  0.425000,-13.645200
  0.427000,-13.465000
  0.429000,-13.292800
  0.431000,-13.129200
  0.433000,-12.973600
  0.435000,-12.826600
  0.437000,-12.687600
  0.439000,-12.555400
  0.441000,-12.430600
  0.443000,-12.312200
  0.445000,-12.199300
  0.447000,-12.092600
  0.449000,-11.992200
  0.451000,-11.897300
  0.453000,-11.807300
  0.455000,-11.721200
  0.457000,-11.638500
  0.459000,-11.559400
  0.461000,-11.482900
  0.463000,-11.408800
  0.465000,-11.336600
  0.467000,-11.265500
  0.469000,-11.195400
  0.471000,-11.126100
  0.473000,-11.057600
  0.475000,-10.989000
  0.477000,-10.919900
  0.479000,-10.850100
  0.481000,-10.778900
  0.483000,-10.706400
  0.485000,-10.632300
  0.487000,-10.556400
  0.489000,-10.478600
  0.491000,-10.398500
  0.493000,-10.315900
  0.495000,-10.230900
  0.497000,-10.143000
  0.499000,-10.052400
  0.501000, -9.959100
  0.503000, -9.862900
  0.505000, -9.763600
  0.507000, -9.661200
  0.509000, -9.555200
  0.511000, -9.446400
  0.513000, -9.334900
  0.515000, -9.220300
  0.517000, -9.102700
  0.519000, -8.982000
  0.521000, -8.858800
  0.523000, -8.732700
  0.525000, -8.603700
  0.527000, -8.472200
  0.529000, -8.338400
  0.531000, -8.202200
  0.533000, -8.063600
  0.535000, -7.922800
  0.537000, -7.780100
  0.539000, -7.635600
  0.541000, -7.489200
  0.543000, -7.341100
  0.545000, -7.191700
  0.547000, -7.040700
  0.549000, -6.888300
  0.551000, -6.735000
  0.553000, -6.580800
  0.555000, -6.425500
  0.557000, -6.269700
  0.559000, -6.113700
  0.561000, -5.956900
  0.563000, -5.799000
  0.565000, -5.640600
  0.567000, -5.482100
  0.569000, -5.323700
  0.571000, -5.165300
  0.573000, -5.006600
  0.575000, -4.848000
  0.577000, -4.690400
  0.579000, -4.533800
  0.581000, -4.377900
  0.583000, -4.222500
  0.585000, -4.068100
  0.587000, -3.914800
  0.589000, -3.762900
  0.591000, -3.612200
  0.593000, -3.463400
  0.595000, -3.316400
  0.597000, -3.170600
  0.599000, -3.026700
  0.601000, -2.884400
  0.603000, -2.744200
  0.605000, -2.607100
  0.607000, -2.472500
  0.609000, -2.339900
  0.611000, -2.209400
  0.613000, -2.081500
  0.615000, -1.956800
  0.617000, -1.835300
  0.619000, -1.716500
  0.621000, -1.601100
  0.623000, -1.489400
  0.625000, -1.381000
  0.627000, -1.275200
  0.629000, -1.173300
  0.631000, -1.076000
  0.633000, -0.981100
  0.635000, -0.889200
  0.637000, -0.801700
  0.639000, -0.718400
  0.641000, -0.639100
  0.643000, -0.563800
  0.645000, -0.491600
  0.647000, -0.423300
  0.649000, -0.359800
  0.651000, -0.300200
  0.653000, -0.244200
  0.655000, -0.192100
  0.657000, -0.144000
  0.659000, -0.099400
  0.661000, -0.058400
  0.663000, -0.021100
  0.665000,  0.012400
  0.667000,  0.042000
  0.669000,  0.068200
  0.671000,  0.090800
  0.673000,  0.110200
  0.675000,  0.126400
  0.677000,  0.139500
  0.679000,  0.149800
  0.681000,  0.157500
  0.683000,  0.162100
  0.685000,  0.163800
  0.687000,  0.162600
  0.689000,  0.158700
  0.691000,  0.152700
  0.693000,  0.144400
  0.695000,  0.133900
  0.697000,  0.120700
  0.699000,  0.105600
  0.701000,  0.089600
  0.703000,  0.071500
  0.705000,  0.051700
  0.707000,  0.029900
  0.709000,  0.006300
  0.711000, -0.018600
  0.713000, -0.044600
  0.715000, -0.071400
  0.717000, -0.099400
  0.719000, -0.129000
  0.721000, -0.159200
  0.723000, -0.189600
  0.725000, -0.221300
  0.727000, -0.253800
  0.729000, -0.286300
  0.731000, -0.319500
  0.733000, -0.353000
  0.735000, -0.387200
  0.737000, -0.421200
  0.739000, -0.455400
  0.741000, -0.489800
  0.743000, -0.524000
  0.745000, -0.558400
  0.747000, -0.592500
  0.749000, -0.626000
  0.751000, -0.659300
  0.753000, -0.692200
  0.755000, -0.724800
  0.757000, -0.756900
  0.759000, -0.788300
  0.761000, -0.819200
  0.763000, -0.849100
  0.765000, -0.878300
  0.767000, -0.906900
  0.769000, -0.934500
  0.771000, -0.961400
  0.773000, -0.987000
  0.775000, -1.011200
  0.777000, -1.034500
  0.779000, -1.056500
  0.781000, -1.077500
  0.783000, -1.097500
  0.785000, -1.116300
  0.787000, -1.133600
  0.789000, -1.149500
  0.791000, -1.164000
  0.793000, -1.177100
  0.795000, -1.188900
  0.797000, -1.199400
  0.799000, -1.208100
  0.801000, -1.215600
  0.803000, -1.221600
  0.805000, -1.226000
  0.807000, -1.229000
  0.809000, -1.230400
  0.811000, -1.230600
  0.813000, -1.229300
  0.815000, -1.226500
  0.817000, -1.222200
  0.819000, -1.216500
  0.821000, -1.209400
  0.823000, -1.200800
  0.825000, -1.190800
  0.827000, -1.179400
  0.829000, -1.166600
  0.831000, -1.152500
  0.833000, -1.137400
  0.835000, -1.121000
  0.837000, -1.103400
  0.839000, -1.084500
  0.841000, -1.064500
  0.843000, -1.043300
  0.845000, -1.021100
  0.847000, -0.998000
  0.849000, -0.974100
  0.851000, -0.949400
  0.853000, -0.923700
  0.855000, -0.897000
  0.857000, -0.869500
  0.859000, -0.841700
  0.861000, -0.813100
  0.863000, -0.783400
  0.865000, -0.753200
  0.867000, -0.722400
  0.869000, -0.691600
  0.871000, -0.660900
  0.873000, -0.629500
  0.875000, -0.597600
  0.877000, -0.565800
  0.879000, -0.533700
  0.881000, -0.501300
  0.883000, -0.468900
  0.885000, -0.437200
  0.887000, -0.405200
  0.889000, -0.373300
  0.891000, -0.341500
  0.893000, -0.310000
  0.895000, -0.279300
  0.897000, -0.248700
  0.899000, -0.218400
  0.901000, -0.188600
  0.903000, -0.159200
  0.905000, -0.130200
  0.907000, -0.101900
  0.909000, -0.074600
  0.911000, -0.047500
  0.913000, -0.020900
  0.915000,  0.004700
  0.917000,  0.029500
  0.919000,  0.053300
  0.921000,  0.076300
  0.923000,  0.098500
  0.925000,  0.119800
  0.927000,  0.140200
  0.929000,  0.159500
  0.931000,  0.177800
  0.933000,  0.195000
  0.935000,  0.211300
  0.937000,  0.226600
  0.939000,  0.241000
  0.941000,  0.254600
  0.943000,  0.267100
  0.945000,  0.278400
  0.947000,  0.288800
  0.949000,  0.298200
  0.951000,  0.306700
  0.953000,  0.314200
  0.955000,  0.320700
  0.957000,  0.326200
  0.959000,  0.330700
  0.961000,  0.334200
  0.963000,  0.336900
  0.965000,  0.338800
  0.967000,  0.339900
  0.969000,  0.340100
  0.971000,  0.339300
  0.973000,  0.337800
  0.975000,  0.335500
  0.977000,  0.332200
  0.979000,  0.328200
  0.981000,  0.323600
  0.983000,  0.318300
  0.985000,  0.312300
  0.987000,  0.305800
  0.989000,  0.298600
  0.991000,  0.290700
  0.993000,  0.282200
  0.995000,  0.273200
  0.997000,  0.263800
  0.999000,  0.254100
  1.001000,  0.244000
  1.003000,  0.233600
  1.005000,  0.222700
  1.007000,  0.211300
  1.009000,  0.199600
  1.011000,  0.187700
  1.013000,  0.175200
  1.015000,  0.162400
  1.017000,  0.149400
  1.019000,  0.136400
  1.021000,  0.123500
  1.023000,  0.110100
  1.025000,  0.096700
  1.027000,  0.083300
  1.029000,  0.070000
  1.031000,  0.056800
  1.033000,  0.043300
  1.035000,  0.029900
  1.037000,  0.016900
  1.039000,  0.003700
  1.041000, -0.009500
  1.043000, -0.022600
  1.045000, -0.035600
  1.047000, -0.048300
  1.049000, -0.060600
  1.051000, -0.072500
  1.053000, -0.084400
  1.055000, -0.096000
  1.057000, -0.107200
  1.059000, -0.118100
  1.061000, -0.128800
  1.063000, -0.139300
  1.065000, -0.149500
  1.067000, -0.159300
  1.069000, -0.168800
  1.071000, -0.177800
  1.073000, -0.186600
  1.075000, -0.195000
  1.077000, -0.203200
  1.079000, -0.210900
  1.081000, -0.218200
  1.083000, -0.225100
  1.085000, -0.231500
  1.087000, -0.237600
  1.089000, -0.243300
  1.091000, -0.248600
  1.093000, -0.253600
  1.095000, -0.258200
  1.097000, -0.262400
  1.099000, -0.266300
  1.101000, -0.269800
  1.103000, -0.273000
  1.105000, -0.276000
  1.107000, -0.278500
  1.109000, -0.280800
  1.111000, -0.282600
  1.113000, -0.284000
  1.115000, -0.285100
  1.117000, -0.285800
  1.119000, -0.286200
  1.121000, -0.286200
  1.123000, -0.286000
  1.125000, -0.285400
  1.127000, -0.284500
  1.129000, -0.283200
  1.131000, -0.281800
  1.133000, -0.280100
  1.135000, -0.278000
  1.137000, -0.275600
  1.139000, -0.272900
  1.141000, -0.270000
  1.143000, -0.266900
  1.145000, -0.263600
  1.147000, -0.260000
  1.149000, -0.256100
  1.151000, -0.252000
  1.153000, -0.247700
  1.155000, -0.243300
  1.157000, -0.238600
  1.159000, -0.233700
  1.161000, -0.228500
  1.163000, -0.222800
  1.165000, -0.217000
  1.167000, -0.211100
  1.169000, -0.205300
  1.171000, -0.199400
  1.173000, -0.193300
  1.175000, -0.187000
  1.177000, -0.180600
  1.179000, -0.174300
  1.181000, -0.167800
  1.183000, -0.161100
  1.185000, -0.154600
  1.187000, -0.147900
  1.189000, -0.141200
  1.191000, -0.134600
  1.193000, -0.128100
  1.195000, -0.121500
  1.197000, -0.114900
  1.199000, -0.108500
  1.201000, -0.102200
  1.203000, -0.095700
  1.205000, -0.089200
  1.207000, -0.083000
  1.209000, -0.077000
  1.211000, -0.071000
  1.213000, -0.065000
  1.215000, -0.059300
  1.217000, -0.053600
  1.219000, -0.048000
  1.221000, -0.042400
  1.223000, -0.036900
  1.225000, -0.031600
  1.227000, -0.026600
  1.229000, -0.021800
  1.231000, -0.017000
  1.233000, -0.012600
  1.235000, -0.008300
  1.237000, -0.004000
  1.239000,  0.000300
  1.241000,  0.004300
  1.243000,  0.008300
  1.245000,  0.012000
  1.247000,  0.015600
  1.249000,  0.019000
  1.251000,  0.022300
  1.253000,  0.025600
  1.255000,  0.028700
  1.257000,  0.031700
  1.259000,  0.034600
  1.261000,  0.037500
  1.263000,  0.040200
  1.265000,  0.042500
  1.267000,  0.044700
  1.269000,  0.046900
  1.271000,  0.048900
  1.273000,  0.050500
  1.275000,  0.051900
  1.277000,  0.053200
  1.279000,  0.054400
  1.281000,  0.055400
  1.283000,  0.056300
  1.285000,  0.057000
  1.287000,  0.057500
  1.289000,  0.057800
  1.291000,  0.058000
  1.293000,  0.058000
  1.295000,  0.057700
  1.297000,  0.057300
  1.299000,  0.056700
  1.301000,  0.055900
  1.303000,  0.055100
  1.305000,  0.054000
  1.307000,  0.052600
  1.309000,  0.051100
  1.311000,  0.049400
  1.313000,  0.047700
  1.315000,  0.045900
  1.317000,  0.043700
  1.319000,  0.041400
  1.321000,  0.038900
  1.323000,  0.036300
  1.325000,  0.033500
  1.327000,  0.030800
  1.329000,  0.027800
  1.331000,  0.024600
  1.333000,  0.021400
  1.335000,  0.018200
  1.337000,  0.014900
  1.339000,  0.011600
  1.341000,  0.008200
  1.343000,  0.004800
  1.345000,  0.001400
  1.347000, -0.002000
  1.349000, -0.005300
  1.351000, -0.008600
  1.353000, -0.011800
  1.355000, -0.014900
  1.357000, -0.018100
  1.359000, -0.021200
  1.361000, -0.024300
  1.363000, -0.027300
  1.365000, -0.030100
  1.367000, -0.033000
  1.369000, -0.035800
  1.371000, -0.038500
  1.373000, -0.040900
  1.375000, -0.043300
  1.377000, -0.045700
  1.379000, -0.048100
  1.381000, -0.050500
  1.383000, -0.052800
  1.385000, -0.054900
  1.387000, -0.057100
  1.389000, -0.059200
  1.391000, -0.061300
  1.393000, -0.063400
  1.395000, -0.065700
  1.397000, -0.068100
  1.399000, -0.070700
