# z (nm)   (kJ/mol)
  0.289000, 14.583400
  0.291000, 14.287900
  0.293000, 13.967800
  0.297000, 13.278200
  0.299000, 12.913300
  0.301000, 12.546700
  0.303000, 12.169400
  0.305000, 11.765100
  0.307000, 11.364100
  0.309000, 10.966400
  0.311000, 10.550000
  0.313000, 10.114200
  0.315000,  9.693200
  0.317000,  9.253500
  0.319000,  8.777000
  0.321000,  8.302400
  0.323000,  7.828100
  0.325000,  7.353000
  0.327000,  6.870900
  0.329000,  6.376400
  0.331000,  5.884900
  0.333000,  5.387200
  0.335000,  4.887600
  0.337000,  4.402300
  0.339000,  3.913700
  0.341000,  3.419100
  0.343000,  2.929900
  0.345000,  2.432900
  0.347000,  1.933600
  0.349000,  1.442100
  0.351000,  0.953700
  0.353000,  0.471100
  0.355000, -0.008000
  0.357000, -0.484900
  0.359000, -0.957500
  0.361000, -1.419500
  0.363000, -1.871900
  0.365000, -2.315000
  0.367000, -2.754500
  0.369000, -3.188400
  0.371000, -3.611300
  0.373000, -4.022500
  0.375000, -4.421800
  0.377000, -4.811500
  0.379000, -5.192100
  0.381000, -5.563400
  0.383000, -5.924100
  0.385000, -6.270900
  0.387000, -6.605700
  0.389000, -6.929300
  0.391000, -7.239000
  0.393000, -7.534800
  0.395000, -7.818500
  0.397000, -8.089000
  0.399000, -8.346400
  0.401000, -8.589600
  0.403000, -8.817900
  0.405000, -9.032800
  0.407000, -9.234100
  0.409000, -9.422100
  0.411000, -9.597000
  0.413000, -9.758100
  0.415000, -9.906000
  0.417000,-10.040900
  0.419000,-10.162700
  0.421000,-10.271200
  0.423000,-10.367000
  0.425000,-10.451400
  0.427000,-10.523900
  0.429000,-10.584300
  0.431000,-10.633900
  0.433000,-10.672900
  0.435000,-10.701100
  0.437000,-10.719800
  0.439000,-10.728900
  0.441000,-10.728500
  0.443000,-10.718700
  0.445000,-10.701700
  0.447000,-10.679000
  0.449000,-10.648300
  0.451000,-10.610900
  0.453000,-10.567200
  0.455000,-10.517200
  0.457000,-10.462500
  0.459000,-10.404200
  0.461000,-10.343800
  0.463000,-10.281700
  0.465000,-10.215000
  0.467000,-10.144600
  0.469000,-10.073400
  0.471000,-10.000900
  0.473000, -9.927400
  0.475000, -9.853800
  0.477000, -9.780200
  0.479000, -9.707100
  0.481000, -9.634600
  0.483000, -9.562300
  0.485000, -9.491100
  0.487000, -9.421100
  0.489000, -9.352600
  0.491000, -9.285800
  0.493000, -9.220800
  0.495000, -9.157700
  0.497000, -9.096500
  0.499000, -9.037200
  0.501000, -8.979700
  0.503000, -8.924000
  0.505000, -8.870800
  0.507000, -8.819800
  0.509000, -8.770300
  0.511000, -8.722500
  0.513000, -8.676700
  0.515000, -8.632200
  0.517000, -8.589200
  0.519000, -8.548400
  0.521000, -8.509000
  0.523000, -8.469800
  0.525000, -8.431200
  0.527000, -8.393800
  0.529000, -8.357000
  0.531000, -8.319700
  0.533000, -8.282400
  0.535000, -8.245000
  0.537000, -8.206900
  0.539000, -8.167200
  0.541000, -8.124800
  0.543000, -8.081800
  0.545000, -8.038200
  0.547000, -7.992400
  0.549000, -7.944500
  0.551000, -7.893900
  0.553000, -7.840000
  0.555000, -7.783400
  0.557000, -7.723800
  0.559000, -7.660700
  0.561000, -7.594100
  0.563000, -7.524200
  0.565000, -7.450800
  0.567000, -7.373400
  0.569000, -7.292100
  0.571000, -7.207100
  0.573000, -7.117800
  0.575000, -7.024300
  0.577000, -6.926500
  0.579000, -6.824300
  0.581000, -6.718200
  0.583000, -6.608100
  0.585000, -6.494200
  0.587000, -6.376700
  0.589000, -6.255800
  0.591000, -6.131300
  0.593000, -6.003000
  0.595000, -5.871400
  0.597000, -5.737400
  0.599000, -5.600900
  0.601000, -5.461400
  0.603000, -5.319500
  0.605000, -5.175900
  0.607000, -5.030500
  0.609000, -4.884000
  0.611000, -4.736700
  0.613000, -4.588300
  0.615000, -4.439300
  0.617000, -4.290000
  0.619000, -4.141300
  0.621000, -3.993400
  0.623000, -3.845800
  0.625000, -3.699300
  0.627000, -3.554500
  0.629000, -3.411500
  0.631000, -3.270300
  0.633000, -3.131000
  0.635000, -2.994500
  0.637000, -2.860900
  0.639000, -2.730400
  0.641000, -2.603500
  0.643000, -2.480500
  0.645000, -2.361000
  0.647000, -2.245400
  0.649000, -2.133800
  0.651000, -2.026400
  0.653000, -1.923200
  0.655000, -1.824400
  0.657000, -1.730400
  0.659000, -1.641000
  0.661000, -1.556000
  0.663000, -1.475400
  0.665000, -1.399700
  0.667000, -1.328800
  0.669000, -1.262200
  0.671000, -1.199800
  0.673000, -1.141800
  0.675000, -1.088200
  0.677000, -1.038700
  0.679000, -0.992900
  0.681000, -0.950600
  0.683000, -0.912200
  0.685000, -0.877300
  0.687000, -0.846300
  0.689000, -0.818000
  0.691000, -0.793000
  0.693000, -0.771700
  0.695000, -0.752900
  0.697000, -0.736300
  0.699000, -0.721800
  0.701000, -0.709100
  0.703000, -0.698500
  0.705000, -0.689900
  0.707000, -0.683100
  0.709000, -0.677900
  0.711000, -0.673500
  0.713000, -0.670200
  0.715000, -0.668400
  0.717000, -0.667400
  0.719000, -0.667100
  0.721000, -0.668000
  0.723000, -0.669800
  0.725000, -0.671800
  0.727000, -0.674000
  0.729000, -0.677100
  0.731000, -0.680000
  0.733000, -0.682400
  0.735000, -0.684900
  0.737000, -0.687600
  0.739000, -0.690200
  0.741000, -0.692800
  0.743000, -0.695300
  0.745000, -0.697600
  0.747000, -0.699600
  0.749000, -0.701300
  0.751000, -0.702700
  0.753000, -0.704100
  0.755000, -0.705400
  0.757000, -0.706500
  0.759000, -0.707500
  0.761000, -0.708400
  0.763000, -0.708900
  0.765000, -0.709200
  0.767000, -0.709300
  0.769000, -0.709500
  0.771000, -0.709700
  0.773000, -0.709800
  0.775000, -0.709900
  0.777000, -0.709900
  0.779000, -0.709800
  0.781000, -0.709800
  0.783000, -0.709900
  0.785000, -0.709900
  0.787000, -0.710000
  0.789000, -0.710300
  0.791000, -0.710600
  0.793000, -0.711000
  0.795000, -0.711800
  0.797000, -0.712500
  0.799000, -0.713400
  0.801000, -0.714500
  0.803000, -0.715800
  0.805000, -0.716900
  0.807000, -0.718000
  0.809000, -0.719400
  0.811000, -0.721000
  0.813000, -0.722400
  0.815000, -0.724000
  0.817000, -0.725700
  0.819000, -0.727200
  0.821000, -0.728900
  0.823000, -0.730700
  0.825000, -0.732200
  0.827000, -0.733600
  0.829000, -0.735000
  0.831000, -0.736400
  0.833000, -0.737700
  0.835000, -0.738600
  0.837000, -0.739200
  0.839000, -0.739800
  0.841000, -0.740000
  0.843000, -0.740100
  0.845000, -0.739800
  0.847000, -0.739100
  0.849000, -0.738000
  0.851000, -0.736600
  0.853000, -0.734900
  0.855000, -0.732700
  0.857000, -0.730100
  0.859000, -0.727100
  0.861000, -0.723600
  0.863000, -0.719500
  0.865000, -0.714900
  0.867000, -0.709800
  0.869000, -0.704400
  0.871000, -0.698600
  0.873000, -0.692300
  0.875000, -0.685400
  0.877000, -0.678100
  0.879000, -0.670500
  0.881000, -0.662400
  0.883000, -0.653600
  0.885000, -0.644200
  0.887000, -0.634800
  0.889000, -0.625000
  0.891000, -0.614700
  0.893000, -0.604000
  0.895000, -0.592900
  0.897000, -0.581500
  0.899000, -0.570200
  0.901000, -0.558800
  0.903000, -0.546900
  0.905000, -0.534300
  0.907000, -0.521600
  0.909000, -0.508900
  0.911000, -0.496100
  0.913000, -0.483300
  0.915000, -0.470800
  0.917000, -0.458200
  0.919000, -0.445300
  0.921000, -0.432700
  0.923000, -0.420000
  0.925000, -0.407500
  0.927000, -0.395200
  0.929000, -0.383200
  0.931000, -0.370900
  0.933000, -0.358700
  0.935000, -0.346800
  0.937000, -0.335400
  0.939000, -0.324300
  0.941000, -0.313400
  0.943000, -0.302600
  0.945000, -0.292100
  0.947000, -0.282000
  0.949000, -0.272100
  0.951000, -0.262600
  0.953000, -0.253400
  0.955000, -0.244500
  0.957000, -0.236100
  0.959000, -0.228000
  0.961000, -0.220100
  0.963000, -0.212600
  0.965000, -0.205500
  0.967000, -0.198700
  0.969000, -0.192400
  0.971000, -0.186500
  0.973000, -0.180800
  0.975000, -0.175300
  0.977000, -0.170500
  0.979000, -0.165900
  0.981000, -0.161500
  0.983000, -0.157500
  0.985000, -0.153800
  0.987000, -0.150400
  0.989000, -0.146900
  0.991000, -0.143700
  0.993000, -0.141000
  0.995000, -0.138600
  0.997000, -0.136600
  0.999000, -0.134600
  1.001000, -0.132600
  1.003000, -0.130800
  1.005000, -0.129200
  1.007000, -0.127500
  1.009000, -0.126100
  1.011000, -0.124800
  1.013000, -0.123600
  1.015000, -0.122400
  1.017000, -0.121400
  1.019000, -0.120500
  1.021000, -0.119400
  1.023000, -0.118600
  1.025000, -0.117900
  1.027000, -0.117400
  1.029000, -0.116800
  1.031000, -0.116200
  1.033000, -0.115600
  1.035000, -0.114900
  1.037000, -0.114000
  1.039000, -0.113200
  1.041000, -0.112300
  1.043000, -0.111600
  1.045000, -0.111000
  1.047000, -0.110300
  1.049000, -0.109600
  1.051000, -0.108900
  1.053000, -0.108400
  1.055000, -0.107800
  1.057000, -0.107300
  1.059000, -0.106800
  1.061000, -0.106100
  1.063000, -0.105600
  1.065000, -0.105100
  1.067000, -0.104700
  1.069000, -0.104400
  1.071000, -0.104300
  1.073000, -0.104300
  1.075000, -0.104300
  1.077000, -0.104300
  1.079000, -0.104400
  1.081000, -0.104500
  1.083000, -0.104600
  1.085000, -0.104900
  1.087000, -0.105200
  1.089000, -0.105500
  1.091000, -0.106000
  1.093000, -0.106700
  1.095000, -0.107400
  1.097000, -0.108300
  1.099000, -0.109500
  1.101000, -0.110600
  1.103000, -0.111800
  1.105000, -0.113000
  1.107000, -0.114100
  1.109000, -0.115400
  1.111000, -0.116900
  1.113000, -0.118500
  1.115000, -0.120000
  1.117000, -0.121700
  1.119000, -0.123400
  1.121000, -0.125100
  1.123000, -0.126800
  1.125000, -0.128400
  1.127000, -0.130100
  1.129000, -0.131700
  1.131000, -0.133200
  1.133000, -0.134900
  1.135000, -0.136400
  1.137000, -0.137700
  1.139000, -0.139100
  1.141000, -0.140300
  1.143000, -0.141400
  1.145000, -0.142300
  1.147000, -0.143100
  1.149000, -0.143600
  1.151000, -0.143900
  1.153000, -0.144100
  1.155000, -0.144100
  1.157000, -0.143900
  1.159000, -0.143400
  1.161000, -0.142800
  1.163000, -0.141700
  1.165000, -0.140500
  1.167000, -0.139000
  1.169000, -0.137300
  1.171000, -0.135600
  1.173000, -0.133600
  1.175000, -0.131300
  1.177000, -0.128700
  1.179000, -0.125800
  1.181000, -0.122900
  1.183000, -0.120000
  1.185000, -0.116700
  1.187000, -0.113100
  1.189000, -0.109500
  1.191000, -0.105500
  1.193000, -0.101400
  1.195000, -0.097300
  1.197000, -0.093100
  1.199000, -0.088900
  1.201000, -0.084500
  1.203000, -0.079800
  1.205000, -0.075100
  1.207000, -0.070400
  1.209000, -0.065700
  1.211000, -0.061200
  1.213000, -0.056700
  1.215000, -0.052300
  1.217000, -0.047800
  1.219000, -0.043400
  1.221000, -0.039200
  1.223000, -0.035200
  1.225000, -0.031300
  1.227000, -0.027600
  1.229000, -0.024000
  1.231000, -0.020600
  1.233000, -0.017200
  1.235000, -0.014100
  1.237000, -0.011000
  1.239000, -0.008200
  1.241000, -0.005700
  1.243000, -0.003200
  1.245000, -0.000900
  1.247000,  0.001200
  1.249000,  0.003100
  1.251000,  0.004800
  1.253000,  0.006200
  1.255000,  0.007500
  1.257000,  0.008600
  1.259000,  0.009600
  1.261000,  0.010400
  1.263000,  0.011000
  1.265000,  0.011500
  1.267000,  0.011900
  1.269000,  0.012200
  1.271000,  0.012500
  1.273000,  0.012700
  1.275000,  0.012700
  1.277000,  0.012500
  1.279000,  0.012200
  1.281000,  0.012000
  1.283000,  0.011600
  1.285000,  0.011200
  1.287000,  0.010600
  1.289000,  0.010100
  1.291000,  0.009700
  1.293000,  0.009200
  1.295000,  0.008600
  1.297000,  0.008200
  1.299000,  0.007700
  1.301000,  0.007300
  1.303000,  0.006800
  1.305000,  0.006500
  1.307000,  0.006200
  1.309000,  0.005900
  1.311000,  0.005800
  1.313000,  0.005600
  1.315000,  0.005300
  1.317000,  0.005100
  1.319000,  0.004900
  1.321000,  0.005000
  1.323000,  0.005100
  1.325000,  0.005200
  1.327000,  0.005400
  1.329000,  0.005600
  1.331000,  0.006000
  1.333000,  0.006500
  1.335000,  0.006900
  1.337000,  0.007400
  1.339000,  0.008100
  1.341000,  0.008700
  1.343000,  0.009400
  1.345000,  0.010100
  1.347000,  0.010800
  1.349000,  0.011600
  1.351000,  0.012400
  1.353000,  0.013100
  1.355000,  0.013900
  1.357000,  0.014700
  1.359000,  0.015500
  1.361000,  0.016300
  1.363000,  0.017100
  1.365000,  0.018000
  1.367000,  0.018900
  1.369000,  0.019800
  1.371000,  0.020500
  1.373000,  0.021300
  1.375000,  0.022100
  1.377000,  0.022700
  1.379000,  0.023200
  1.381000,  0.023600
  1.383000,  0.023900
  1.385000,  0.024000
  1.387000,  0.024000
  1.389000,  0.023800
  1.391000,  0.023500
  1.393000,  0.023000
  1.395000,  0.022000
  1.397000,  0.020600
  1.399000,  0.018900
