# z (nm)   (kJ/mol)
  0.243000,  8.233500
  0.245000,  7.704600
  0.247000,  7.199300
  0.249000,  6.705500
  0.251000,  6.165600
  0.253000,  5.582800
  0.255000,  5.024400
  0.257000,  4.485800
  0.259000,  3.916600
  0.261000,  3.331600
  0.263000,  2.765600
  0.265000,  2.196000
  0.267000,  1.612300
  0.269000,  1.010600
  0.271000,  0.396800
  0.273000, -0.199600
  0.275000, -0.797400
  0.277000, -1.408400
  0.279000, -2.019100
  0.281000, -2.623300
  0.283000, -3.223500
  0.285000, -3.823100
  0.287000, -4.415400
  0.289000, -5.006700
  0.291000, -5.597500
  0.293000, -6.177400
  0.295000, -6.750700
  0.297000, -7.323000
  0.299000, -7.888700
  0.301000, -8.443600
  0.303000, -8.988800
  0.305000, -9.532000
  0.307000,-10.071400
  0.309000,-10.596400
  0.311000,-11.111400
  0.313000,-11.616600
  0.315000,-12.111900
  0.317000,-12.598700
  0.319000,-13.073600
  0.321000,-13.537300
  0.323000,-13.989600
  0.325000,-14.429300
  0.327000,-14.856500
  0.329000,-15.270900
  0.331000,-15.671500
  0.333000,-16.057900
  0.335000,-16.430600
  0.337000,-16.789500
  0.339000,-17.134000
  0.341000,-17.463600
  0.343000,-17.778100
  0.345000,-18.077500
  0.347000,-18.361600
  0.349000,-18.629400
  0.351000,-18.880800
  0.353000,-19.115600
  0.355000,-19.333600
  0.357000,-19.537800
  0.359000,-19.726800
  0.361000,-19.897200
  0.363000,-20.050500
  0.365000,-20.187400
  0.367000,-20.306400
  0.369000,-20.407700
  0.371000,-20.491400
  0.373000,-20.561300
  0.375000,-20.616800
  0.377000,-20.653900
  0.379000,-20.678700
  0.381000,-20.691800
  0.383000,-20.687900
  0.385000,-20.670500
  0.387000,-20.639900
  0.389000,-20.597200
  0.391000,-20.543100
  0.393000,-20.477300
  0.395000,-20.401500
  0.397000,-20.313700
  0.399000,-20.213800
  0.401000,-20.103100
  0.403000,-19.983700
  0.405000,-19.856800
  0.407000,-19.721400
  0.409000,-19.577100
  0.411000,-19.424900
  0.413000,-19.266200
  0.415000,-19.100900
  0.417000,-18.930200
  0.419000,-18.753700
  0.421000,-18.571700
  0.423000,-18.384900
  0.425000,-18.193800
  0.427000,-17.998900
  0.429000,-17.800500
  0.431000,-17.599000
  0.433000,-17.394800
  0.435000,-17.188300
  0.437000,-16.979700
  0.439000,-16.770500
  0.441000,-16.560900
  0.443000,-16.350400
  0.445000,-16.139000
  0.447000,-15.928300
  0.449000,-15.718600
  0.451000,-15.509500
  0.453000,-15.301600
  0.455000,-15.095500
  0.457000,-14.892000
  0.459000,-14.690700
  0.461000,-14.492200
  0.463000,-14.296500
  0.465000,-14.103100
  0.467000,-13.912800
  0.469000,-13.726100
  0.471000,-13.543600
  0.473000,-13.365000
  0.475000,-13.190300
  0.477000,-13.019900
  0.479000,-12.854200
  0.481000,-12.693700
  0.483000,-12.537700
  0.485000,-12.386000
  0.487000,-12.238900
  0.489000,-12.095600
  0.491000,-11.956700
  0.493000,-11.822400
  0.495000,-11.692600
  0.497000,-11.567200
  0.499000,-11.446000
  0.501000,-11.328500
  0.503000,-11.214200
  0.505000,-11.104400
  0.507000,-10.998300
  0.509000,-10.894800
  0.511000,-10.793800
  0.513000,-10.695700
  0.515000,-10.599700
  0.517000,-10.504900
  0.519000,-10.411600
  0.521000,-10.319700
  0.523000,-10.228900
  0.525000,-10.138700
  0.527000,-10.048700
  0.529000, -9.959100
  0.531000, -9.868900
  0.533000, -9.777600
  0.535000, -9.685500
  0.537000, -9.592300
  0.539000, -9.497000
  0.541000, -9.399600
  0.543000, -9.300000
  0.545000, -9.197600
  0.547000, -9.092100
  0.549000, -8.983500
  0.551000, -8.871500
  0.553000, -8.755900
  0.555000, -8.636700
  0.557000, -8.514200
  0.559000, -8.388100
  0.561000, -8.257500
  0.563000, -8.122400
  0.565000, -7.983200
  0.567000, -7.840200
  0.569000, -7.693400
  0.571000, -7.542600
  0.573000, -7.387800
  0.575000, -7.229400
  0.577000, -7.067600
  0.579000, -6.901900
  0.581000, -6.732000
  0.583000, -6.558300
  0.585000, -6.381400
  0.587000, -6.203400
  0.589000, -6.024500
  0.591000, -5.843900
  0.593000, -5.661600
  0.595000, -5.477900
  0.597000, -5.292900
  0.599000, -5.106600
  0.601000, -4.920500
  0.603000, -4.736100
  0.605000, -4.553600
  0.607000, -4.371800
  0.609000, -4.191700
  0.611000, -4.013700
  0.613000, -3.838400
  0.615000, -3.666600
  0.617000, -3.498000
  0.619000, -3.333100
  0.621000, -3.172000
  0.623000, -3.015700
  0.625000, -2.865800
  0.627000, -2.721000
  0.629000, -2.581100
  0.631000, -2.447400
  0.633000, -2.319600
  0.635000, -2.198400
  0.637000, -2.084400
  0.639000, -1.976900
  0.641000, -1.876200
  0.643000, -1.782400
  0.645000, -1.695500
  0.647000, -1.616600
  0.649000, -1.545000
  0.651000, -1.479300
  0.653000, -1.420500
  0.655000, -1.368900
  0.657000, -1.323700
  0.659000, -1.285100
  0.661000, -1.252700
  0.663000, -1.226600
  0.665000, -1.206400
  0.667000, -1.191100
  0.669000, -1.181300
  0.671000, -1.177300
  0.673000, -1.177900
  0.675000, -1.183100
  0.677000, -1.193300
  0.679000, -1.207600
  0.681000, -1.224800
  0.683000, -1.246000
  0.685000, -1.270400
  0.687000, -1.296800
  0.689000, -1.325500
  0.691000, -1.355500
  0.693000, -1.387200
  0.695000, -1.421300
  0.697000, -1.456900
  0.699000, -1.492500
  0.701000, -1.528500
  0.703000, -1.566600
  0.705000, -1.605000
  0.707000, -1.641900
  0.709000, -1.678100
  0.711000, -1.714000
  0.713000, -1.749600
  0.715000, -1.784100
  0.717000, -1.817100
  0.719000, -1.849100
  0.721000, -1.879700
  0.723000, -1.908500
  0.725000, -1.935900
  0.727000, -1.961900
  0.729000, -1.986200
  0.731000, -2.008700
  0.733000, -2.029500
  0.735000, -2.048100
  0.737000, -2.064300
  0.739000, -2.078700
  0.741000, -2.091000
  0.743000, -2.101600
  0.745000, -2.110500
  0.747000, -2.117200
  0.749000, -2.122000
  0.751000, -2.124900
  0.753000, -2.126000
  0.755000, -2.125500
  0.757000, -2.123300
  0.759000, -2.119300
  0.761000, -2.113500
  0.763000, -2.106100
  0.765000, -2.097100
  0.767000, -2.086600
  0.769000, -2.075200
  0.771000, -2.062600
  0.773000, -2.048400
  0.775000, -2.033200
  0.777000, -2.017200
  0.779000, -2.000000
  0.781000, -1.981800
  0.783000, -1.962800
  0.785000, -1.942400
  0.787000, -1.921300
  0.789000, -1.900100
  0.791000, -1.878200
  0.793000, -1.855700
  0.795000, -1.833200
  0.797000, -1.809800
  0.799000, -1.785700
  0.801000, -1.761400
  0.803000, -1.737100
  0.805000, -1.712500
  0.807000, -1.687600
  0.809000, -1.662500
  0.811000, -1.637600
  0.813000, -1.612500
  0.815000, -1.586700
  0.817000, -1.560600
  0.819000, -1.534600
  0.821000, -1.508500
  0.823000, -1.482300
  0.825000, -1.456400
  0.827000, -1.430500
  0.829000, -1.404300
  0.831000, -1.378200
  0.833000, -1.352000
  0.835000, -1.325600
  0.837000, -1.299400
  0.839000, -1.273300
  0.841000, -1.246800
  0.843000, -1.220200
  0.845000, -1.193800
  0.847000, -1.167500
  0.849000, -1.140700
  0.851000, -1.114000
  0.853000, -1.087300
  0.855000, -1.060500
  0.857000, -1.033800
  0.859000, -1.007100
  0.861000, -0.980200
  0.863000, -0.953000
  0.865000, -0.925800
  0.867000, -0.898800
  0.869000, -0.871700
  0.871000, -0.844600
  0.873000, -0.817500
  0.875000, -0.790600
  0.877000, -0.763700
  0.879000, -0.736900
  0.881000, -0.710200
  0.883000, -0.683600
  0.885000, -0.657000
  0.887000, -0.630600
  0.889000, -0.604800
  0.891000, -0.579000
  0.893000, -0.553500
  0.895000, -0.528400
  0.897000, -0.503400
  0.899000, -0.478900
  0.901000, -0.454900
  0.903000, -0.431200
  0.905000, -0.408000
  0.907000, -0.385300
  0.909000, -0.363400
  0.911000, -0.341900
  0.913000, -0.320800
  0.915000, -0.300500
  0.917000, -0.281100
  0.919000, -0.262500
  0.921000, -0.244500
  0.923000, -0.227200
  0.925000, -0.210800
  0.927000, -0.195100
  0.929000, -0.180100
  0.931000, -0.165900
  0.933000, -0.152500
  0.935000, -0.140000
  0.937000, -0.128500
  0.939000, -0.117900
  0.941000, -0.108300
  0.943000, -0.099500
  0.945000, -0.091500
  0.947000, -0.084400
  0.949000, -0.078200
  0.951000, -0.073100
  0.953000, -0.068800
  0.955000, -0.065300
  0.957000, -0.062700
  0.959000, -0.060900
  0.961000, -0.059800
  0.963000, -0.059500
  0.965000, -0.060100
  0.967000, -0.061400
  0.969000, -0.063400
  0.971000, -0.066100
  0.973000, -0.069500
  0.975000, -0.073500
  0.977000, -0.078300
  0.979000, -0.083600
  0.981000, -0.089400
  0.983000, -0.095500
  0.985000, -0.101900
  0.987000, -0.108800
  0.989000, -0.116100
  0.991000, -0.123800
  0.993000, -0.131800
  0.995000, -0.140000
  0.997000, -0.148500
  0.999000, -0.157200
  1.001000, -0.165800
  1.003000, -0.174700
  1.005000, -0.183900
  1.007000, -0.193200
  1.009000, -0.202200
  1.011000, -0.211300
  1.013000, -0.220400
  1.015000, -0.229600
  1.017000, -0.238700
  1.019000, -0.247600
  1.021000, -0.256300
  1.023000, -0.264900
  1.025000, -0.273600
  1.027000, -0.282000
  1.029000, -0.290200
  1.031000, -0.298200
  1.033000, -0.305900
  1.035000, -0.313200
  1.037000, -0.320300
  1.039000, -0.327200
  1.041000, -0.334000
  1.043000, -0.340500
  1.045000, -0.346700
  1.047000, -0.352600
  1.049000, -0.358200
  1.051000, -0.363500
  1.053000, -0.368600
  1.055000, -0.373300
  1.057000, -0.377800
  1.059000, -0.382000
  1.061000, -0.385900
  1.063000, -0.389700
  1.065000, -0.393100
  1.067000, -0.396100
  1.069000, -0.398800
  1.071000, -0.401200
  1.073000, -0.403300
  1.075000, -0.405300
  1.077000, -0.407000
  1.079000, -0.408400
  1.081000, -0.409600
  1.083000, -0.410500
  1.085000, -0.411200
  1.087000, -0.411700
  1.089000, -0.411800
  1.091000, -0.411800
  1.093000, -0.411700
  1.095000, -0.411300
  1.097000, -0.410600
  1.099000, -0.409600
  1.101000, -0.408400
  1.103000, -0.407100
  1.105000, -0.405700
  1.107000, -0.404200
  1.109000, -0.402500
  1.111000, -0.400500
  1.113000, -0.398300
  1.115000, -0.395800
  1.117000, -0.393200
  1.119000, -0.390300
  1.121000, -0.387200
  1.123000, -0.384000
  1.125000, -0.380600
  1.127000, -0.377000
  1.129000, -0.373100
  1.131000, -0.369100
  1.133000, -0.364900
  1.135000, -0.360600
  1.137000, -0.356100
  1.139000, -0.351400
  1.141000, -0.346600
  1.143000, -0.341600
  1.145000, -0.336500
  1.147000, -0.331200
  1.149000, -0.325800
  1.151000, -0.320100
  1.153000, -0.314400
  1.155000, -0.308600
  1.157000, -0.302600
  1.159000, -0.296600
  1.161000, -0.290300
  1.163000, -0.284000
  1.165000, -0.277600
  1.167000, -0.271000
  1.169000, -0.264400
  1.171000, -0.257900
  1.173000, -0.251100
  1.175000, -0.244300
  1.177000, -0.237500
  1.179000, -0.230700
  1.181000, -0.223900
  1.183000, -0.216900
  1.185000, -0.209900
  1.187000, -0.203000
  1.189000, -0.196200
  1.191000, -0.189300
  1.193000, -0.182500
  1.195000, -0.175800
  1.197000, -0.169000
  1.199000, -0.162200
  1.201000, -0.155600
  1.203000, -0.149000
  1.205000, -0.142600
  1.207000, -0.136300
  1.209000, -0.130000
  1.211000, -0.124000
  1.213000, -0.118100
  1.215000, -0.112300
  1.217000, -0.106900
  1.219000, -0.101500
  1.221000, -0.096200
  1.223000, -0.091000
  1.225000, -0.085900
  1.227000, -0.081100
  1.229000, -0.076500
  1.231000, -0.072200
  1.233000, -0.068100
  1.235000, -0.064000
  1.237000, -0.060100
  1.239000, -0.056500
  1.241000, -0.052900
  1.243000, -0.049600
  1.245000, -0.046600
  1.247000, -0.043600
  1.249000, -0.040700
  1.251000, -0.038100
  1.253000, -0.035700
  1.255000, -0.033300
  1.257000, -0.031000
  1.259000, -0.029000
  1.261000, -0.027100
  1.263000, -0.025400
  1.265000, -0.023700
  1.267000, -0.022000
  1.269000, -0.020400
  1.271000, -0.019100
  1.273000, -0.017700
  1.275000, -0.016400
  1.277000, -0.015200
  1.279000, -0.014200
  1.281000, -0.013100
  1.283000, -0.012000
  1.285000, -0.010700
  1.287000, -0.009600
  1.289000, -0.008500
  1.291000, -0.007300
  1.293000, -0.006200
  1.295000, -0.005000
  1.297000, -0.003900
  1.299000, -0.002600
  1.301000, -0.001300
  1.303000,  0.000200
  1.305000,  0.001600
  1.307000,  0.003000
  1.309000,  0.004600
  1.311000,  0.006200
  1.313000,  0.007900
  1.315000,  0.009700
  1.317000,  0.011500
  1.319000,  0.013300
  1.321000,  0.015300
  1.323000,  0.017300
  1.325000,  0.019600
  1.327000,  0.021800
  1.329000,  0.024100
  1.331000,  0.026500
  1.333000,  0.029000
  1.335000,  0.031700
  1.337000,  0.034600
  1.339000,  0.037400
  1.341000,  0.040400
  1.343000,  0.043200
  1.345000,  0.046100
  1.347000,  0.049100
  1.349000,  0.052100
  1.351000,  0.055300
  1.353000,  0.058500
  1.355000,  0.061800
  1.357000,  0.065100
  1.359000,  0.068600
  1.361000,  0.072300
  1.363000,  0.075800
  1.365000,  0.079000
  1.367000,  0.082200
  1.369000,  0.085500
  1.371000,  0.088900
  1.373000,  0.092000
  1.375000,  0.094900
  1.377000,  0.097800
  1.379000,  0.100600
  1.381000,  0.103400
  1.383000,  0.105900
  1.385000,  0.108400
  1.387000,  0.110800
  1.389000,  0.112800
  1.391000,  0.114500
  1.393000,  0.115800
  1.395000,  0.116700
  1.397000,  0.117200
  1.399000,  0.117400
