# z (nm)   (kJ/mol)
  0.219000, 12.961800
  0.221000, 12.622700
  0.223000, 12.275700
  0.225000, 11.932300
  0.227000, 11.571300
  0.229000, 11.200700
  0.231000, 10.810500
  0.233000, 10.411500
  0.235000, 10.006500
  0.237000,  9.584900
  0.239000,  9.161100
  0.241000,  8.736000
  0.243000,  8.306900
  0.245000,  7.881200
  0.247000,  7.451400
  0.249000,  7.007100
  0.251000,  6.558900
  0.253000,  6.112700
  0.255000,  5.664400
  0.257000,  5.221200
  0.259000,  4.769900
  0.261000,  4.313900
  0.263000,  3.867900
  0.265000,  3.423600
  0.267000,  2.977000
  0.269000,  2.540000
  0.271000,  2.111300
  0.273000,  1.687500
  0.275000,  1.270000
  0.277000,  0.857100
  0.279000,  0.445800
  0.281000,  0.041100
  0.283000, -0.354500
  0.285000, -0.744900
  0.287000, -1.128300
  0.289000, -1.500800
  0.291000, -1.862300
  0.293000, -2.218100
  0.295000, -2.568700
  0.297000, -2.909100
  0.299000, -3.237400
  0.301000, -3.556700
  0.303000, -3.867200
  0.305000, -4.169000
  0.307000, -4.459700
  0.309000, -4.739600
  0.311000, -5.008600
  0.313000, -5.265500
  0.315000, -5.511900
  0.317000, -5.747500
  0.319000, -5.972200
  0.321000, -6.187200
  0.323000, -6.389900
  0.325000, -6.580800
  0.327000, -6.761200
  0.329000, -6.929300
  0.331000, -7.086000
  0.333000, -7.231700
  0.335000, -7.366300
  0.337000, -7.489900
  0.339000, -7.601700
  0.341000, -7.702200
  0.343000, -7.792200
  0.345000, -7.872100
  0.347000, -7.941300
  0.349000, -7.999900
  0.351000, -8.047700
  0.353000, -8.085500
  0.355000, -8.113600
  0.357000, -8.132000
  0.359000, -8.142400
  0.361000, -8.143300
  0.363000, -8.135100
  0.365000, -8.120000
  0.367000, -8.096900
  0.369000, -8.065400
  0.371000, -8.025800
  0.373000, -7.978600
  0.375000, -7.925100
  0.377000, -7.865200
  0.379000, -7.799100
  0.381000, -7.727200
  0.383000, -7.649600
  0.385000, -7.566300
  0.387000, -7.477700
  0.389000, -7.383800
  0.391000, -7.285000
  0.393000, -7.181900
  0.395000, -7.074700
  0.397000, -6.963600
  0.399000, -6.848200
  0.401000, -6.728700
  0.403000, -6.605700
  0.405000, -6.479600
  0.407000, -6.350100
  0.409000, -6.217600
  0.411000, -6.082200
  0.413000, -5.943600
  0.415000, -5.802600
  0.417000, -5.659300
  0.419000, -5.513900
  0.421000, -5.366300
  0.423000, -5.216500
  0.425000, -5.064600
  0.427000, -4.911000
  0.429000, -4.756000
  0.431000, -4.599700
  0.433000, -4.441900
  0.435000, -4.283200
  0.437000, -4.123600
  0.439000, -3.963200
  0.441000, -3.802200
  0.443000, -3.640500
  0.445000, -3.478500
  0.447000, -3.316400
  0.449000, -3.154200
  0.451000, -2.991800
  0.453000, -2.829900
  0.455000, -2.668600
  0.457000, -2.507900
  0.459000, -2.348000
  0.461000, -2.188900
  0.463000, -2.031100
  0.465000, -1.874800
  0.467000, -1.720500
  0.469000, -1.567600
  0.471000, -1.415900
  0.473000, -1.266500
  0.475000, -1.119100
  0.477000, -0.974500
  0.479000, -0.832500
  0.481000, -0.692800
  0.483000, -0.556000
  0.485000, -0.422200
  0.487000, -0.292100
  0.489000, -0.165900
  0.491000, -0.043200
  0.493000,  0.075700
  0.495000,  0.191100
  0.497000,  0.302700
  0.499000,  0.410500
  0.501000,  0.513900
  0.503000,  0.613200
  0.505000,  0.708600
  0.507000,  0.799300
  0.509000,  0.885300
  0.511000,  0.966800
  0.513000,  1.043900
  0.515000,  1.116000
  0.517000,  1.183300
  0.519000,  1.246100
  0.521000,  1.304200
  0.523000,  1.357300
  0.525000,  1.405500
  0.527000,  1.448700
  0.529000,  1.487100
  0.531000,  1.520600
  0.533000,  1.549300
  0.535000,  1.573300
  0.537000,  1.592500
  0.539000,  1.606900
  0.541000,  1.616900
  0.543000,  1.622400
  0.545000,  1.623000
  0.547000,  1.619200
  0.549000,  1.611500
  0.551000,  1.599600
  0.553000,  1.583500
  0.555000,  1.563600
  0.557000,  1.540000
  0.559000,  1.513000
  0.561000,  1.482300
  0.563000,  1.448000
  0.565000,  1.410900
  0.567000,  1.370700
  0.569000,  1.327600
  0.571000,  1.281700
  0.573000,  1.233300
  0.575000,  1.183400
  0.577000,  1.131600
  0.579000,  1.077700
  0.581000,  1.021800
  0.583000,  0.963500
  0.585000,  0.903300
  0.587000,  0.841600
  0.589000,  0.779300
  0.591000,  0.716700
  0.593000,  0.653500
  0.595000,  0.589100
  0.597000,  0.524700
  0.599000,  0.460700
  0.601000,  0.396300
  0.603000,  0.331400
  0.605000,  0.266400
  0.607000,  0.202100
  0.609000,  0.138700
  0.611000,  0.075300
  0.613000,  0.012800
  0.615000, -0.048500
  0.617000, -0.109400
  0.619000, -0.169400
  0.621000, -0.228100
  0.623000, -0.285000
  0.625000, -0.340800
  0.627000, -0.395500
  0.629000, -0.448100
  0.631000, -0.499000
  0.633000, -0.548200
  0.635000, -0.595700
  0.637000, -0.641600
  0.639000, -0.685400
  0.641000, -0.727600
  0.643000, -0.768200
  0.645000, -0.807000
  0.647000, -0.843800
  0.649000, -0.878600
  0.651000, -0.911700
  0.653000, -0.942900
  0.655000, -0.972000
  0.657000, -0.999300
  0.659000, -1.024800
  0.661000, -1.048300
  0.663000, -1.069900
  0.665000, -1.089600
  0.667000, -1.107500
  0.669000, -1.123400
  0.671000, -1.137500
  0.673000, -1.149900
  0.675000, -1.160600
  0.677000, -1.169700
  0.679000, -1.177100
  0.681000, -1.183000
  0.683000, -1.187200
  0.685000, -1.189600
  0.687000, -1.190500
  0.689000, -1.189900
  0.691000, -1.188000
  0.693000, -1.184400
  0.695000, -1.179400
  0.697000, -1.173300
  0.699000, -1.165800
  0.701000, -1.157100
  0.703000, -1.147100
  0.705000, -1.135700
  0.707000, -1.123200
  0.709000, -1.109500
  0.711000, -1.094700
  0.713000, -1.078800
  0.715000, -1.062000
  0.717000, -1.044100
  0.719000, -1.025500
  0.721000, -1.006000
  0.723000, -0.985300
  0.725000, -0.963700
  0.727000, -0.941500
  0.729000, -0.918500
  0.731000, -0.894900
  0.733000, -0.870800
  0.735000, -0.845900
  0.737000, -0.820500
  0.739000, -0.794500
  0.741000, -0.768100
  0.743000, -0.741300
  0.745000, -0.714100
  0.747000, -0.686500
  0.749000, -0.658700
  0.751000, -0.630800
  0.753000, -0.602400
  0.755000, -0.573900
  0.757000, -0.545400
  0.759000, -0.516800
  0.761000, -0.488200
  0.763000, -0.459500
  0.765000, -0.430800
  0.767000, -0.402400
  0.769000, -0.374200
  0.771000, -0.346000
  0.773000, -0.317800
  0.775000, -0.290000
  0.777000, -0.262600
  0.779000, -0.235400
  0.781000, -0.208800
  0.783000, -0.182400
  0.785000, -0.156500
  0.787000, -0.131100
  0.789000, -0.106300
  0.791000, -0.082100
  0.793000, -0.058200
  0.795000, -0.035000
  0.797000, -0.012600
  0.799000,  0.009300
  0.801000,  0.030400
  0.803000,  0.050900
  0.805000,  0.070800
  0.807000,  0.090100
  0.809000,  0.108700
  0.811000,  0.126400
  0.813000,  0.143400
  0.815000,  0.159700
  0.817000,  0.175200
  0.819000,  0.189800
  0.821000,  0.203600
  0.823000,  0.216800
  0.825000,  0.229100
  0.827000,  0.240700
  0.829000,  0.251400
  0.831000,  0.261400
  0.833000,  0.270600
  0.835000,  0.278900
  0.837000,  0.286500
  0.839000,  0.293300
  0.841000,  0.299300
  0.843000,  0.304600
  0.845000,  0.309100
  0.847000,  0.312900
  0.849000,  0.316000
  0.851000,  0.318500
  0.853000,  0.320200
  0.855000,  0.321400
  0.857000,  0.321900
  0.859000,  0.321700
  0.861000,  0.320900
  0.863000,  0.319400
  0.865000,  0.317200
  0.867000,  0.314500
  0.869000,  0.311200
  0.871000,  0.307400
  0.873000,  0.303100
  0.875000,  0.298300
  0.877000,  0.293000
  0.879000,  0.287200
  0.881000,  0.281000
  0.883000,  0.274300
  0.885000,  0.267300
  0.887000,  0.259900
  0.889000,  0.252100
  0.891000,  0.243800
  0.893000,  0.235300
  0.895000,  0.226400
  0.897000,  0.217200
  0.899000,  0.207800
  0.901000,  0.198200
  0.903000,  0.188200
  0.905000,  0.178000
  0.907000,  0.167600
  0.909000,  0.157000
  0.911000,  0.146100
  0.913000,  0.135100
  0.915000,  0.123900
  0.917000,  0.112600
  0.919000,  0.101100
  0.921000,  0.089600
  0.923000,  0.077900
  0.925000,  0.066100
  0.927000,  0.054200
  0.929000,  0.042300
  0.931000,  0.030400
  0.933000,  0.018500
  0.935000,  0.006700
  0.937000, -0.005100
  0.939000, -0.016800
  0.941000, -0.028500
  0.943000, -0.040000
  0.945000, -0.051300
  0.947000, -0.062500
  0.949000, -0.073800
  0.951000, -0.084800
  0.953000, -0.095600
  0.955000, -0.106200
  0.957000, -0.116500
  0.959000, -0.126700
  0.961000, -0.136500
  0.963000, -0.146000
  0.965000, -0.155200
  0.967000, -0.164200
  0.969000, -0.172800
  0.971000, -0.181100
  0.973000, -0.189000
  0.975000, -0.196600
  0.977000, -0.203700
  0.979000, -0.210500
  0.981000, -0.216800
  0.983000, -0.222700
  0.985000, -0.228200
  0.987000, -0.233300
  0.989000, -0.238000
  0.991000, -0.242100
  0.993000, -0.245900
  0.995000, -0.249200
  0.997000, -0.252100
  0.999000, -0.254600
  1.001000, -0.256600
  1.003000, -0.258100
  1.005000, -0.259200
  1.007000, -0.259800
  1.009000, -0.260000
  1.011000, -0.259800
  1.013000, -0.259300
  1.015000, -0.258400
  1.017000, -0.257100
  1.019000, -0.255500
  1.021000, -0.253500
  1.023000, -0.251100
  1.025000, -0.248400
  1.027000, -0.245300
  1.029000, -0.241900
  1.031000, -0.238200
  1.033000, -0.234100
  1.035000, -0.229900
  1.037000, -0.225400
  1.039000, -0.220700
  1.041000, -0.215700
  1.043000, -0.210600
  1.045000, -0.205300
  1.047000, -0.199700
  1.049000, -0.193900
  1.051000, -0.188100
  1.053000, -0.182100
  1.055000, -0.176000
  1.057000, -0.169900
  1.059000, -0.163700
  1.061000, -0.157400
  1.063000, -0.151000
  1.065000, -0.144600
  1.067000, -0.138000
  1.069000, -0.131400
  1.071000, -0.124900
  1.073000, -0.118400
  1.075000, -0.111900
  1.077000, -0.105400
  1.079000, -0.098900
  1.081000, -0.092400
  1.083000, -0.085900
  1.085000, -0.079600
  1.087000, -0.073300
  1.089000, -0.067000
  1.091000, -0.060800
  1.093000, -0.054800
  1.095000, -0.048800
  1.097000, -0.043000
  1.099000, -0.037200
  1.101000, -0.031500
  1.103000, -0.026000
  1.105000, -0.020600
  1.107000, -0.015200
  1.109000, -0.010000
  1.111000, -0.005000
  1.113000, -0.000200
  1.115000,  0.004600
  1.117000,  0.009300
  1.119000,  0.013700
  1.121000,  0.018000
  1.123000,  0.022300
  1.125000,  0.026300
  1.127000,  0.030200
  1.129000,  0.033900
  1.131000,  0.037300
  1.133000,  0.040600
  1.135000,  0.043800
  1.137000,  0.046800
  1.139000,  0.049700
  1.141000,  0.052400
  1.143000,  0.054900
  1.145000,  0.057300
  1.147000,  0.059400
  1.149000,  0.061400
  1.151000,  0.063300
  1.153000,  0.064900
  1.155000,  0.066300
  1.157000,  0.067500
  1.159000,  0.068400
  1.161000,  0.069200
  1.163000,  0.069700
  1.165000,  0.070100
  1.167000,  0.070400
  1.169000,  0.070400
  1.171000,  0.070100
  1.173000,  0.069700
  1.175000,  0.069100
  1.177000,  0.068200
  1.179000,  0.067300
  1.181000,  0.066100
  1.183000,  0.064800
  1.185000,  0.063200
  1.187000,  0.061400
  1.189000,  0.059700
  1.191000,  0.057700
  1.193000,  0.055600
  1.195000,  0.053400
  1.197000,  0.050900
  1.199000,  0.048400
  1.201000,  0.045900
  1.203000,  0.043000
  1.205000,  0.040100
  1.207000,  0.037400
  1.209000,  0.034700
  1.211000,  0.031600
  1.213000,  0.028500
  1.215000,  0.025300
  1.217000,  0.022300
  1.219000,  0.019200
  1.221000,  0.015900
  1.223000,  0.012700
  1.225000,  0.009700
  1.227000,  0.006600
  1.229000,  0.003600
  1.231000,  0.000800
  1.233000, -0.002000
  1.235000, -0.004700
  1.237000, -0.007500
  1.239000, -0.010200
  1.241000, -0.012600
  1.243000, -0.015000
  1.245000, -0.017300
  1.247000, -0.019400
  1.249000, -0.021400
  1.251000, -0.023200
  1.253000, -0.025000
  1.255000, -0.026700
  1.257000, -0.028200
  1.259000, -0.029400
  1.261000, -0.030500
  1.263000, -0.031500
  1.265000, -0.032400
  1.267000, -0.033000
  1.269000, -0.033500
  1.271000, -0.034000
  1.273000, -0.034400
  1.275000, -0.034600
  1.277000, -0.034500
  1.279000, -0.034400
  1.281000, -0.034200
  1.283000, -0.034000
  1.285000, -0.033500
  1.287000, -0.033000
  1.289000, -0.032400
  1.291000, -0.031800
  1.293000, -0.031100
  1.295000, -0.030100
  1.297000, -0.029200
  1.299000, -0.028400
  1.301000, -0.027400
  1.303000, -0.026400
  1.305000, -0.025300
  1.307000, -0.024200
  1.309000, -0.023200
  1.311000, -0.022100
  1.313000, -0.020900
  1.315000, -0.019800
  1.317000, -0.018500
  1.319000, -0.017300
  1.321000, -0.015900
  1.323000, -0.014400
  1.325000, -0.012900
  1.327000, -0.011500
  1.329000, -0.010100
  1.331000, -0.008800
  1.333000, -0.007400
  1.335000, -0.006000
  1.337000, -0.004600
  1.339000, -0.003100
  1.341000, -0.001500
  1.343000,  0.000000
  1.345000,  0.001600
  1.347000,  0.003300
  1.349000,  0.005000
  1.351000,  0.006700
  1.353000,  0.008500
  1.355000,  0.010400
  1.357000,  0.012400
  1.359000,  0.014500
  1.361000,  0.016700
  1.363000,  0.018900
  1.365000,  0.021200
  1.367000,  0.023600
  1.369000,  0.026000
  1.371000,  0.028400
  1.373000,  0.030900
  1.375000,  0.033400
  1.377000,  0.036000
  1.379000,  0.038400
  1.381000,  0.040900
  1.383000,  0.043400
  1.385000,  0.045900
  1.387000,  0.048200
  1.389000,  0.050500
  1.391000,  0.052600
  1.393000,  0.054400
  1.395000,  0.055900
  1.397000,  0.057200
  1.399000,  0.058100
