# z (nm)   (kJ/mol)
  0.223000,  2.596200
  0.225000,  1.849200
  0.227000,  1.092300
  0.229000,  0.354400
  0.231000, -0.392500
  0.233000, -1.144000
  0.235000, -1.921100
  0.237000, -2.726600
  0.239000, -3.533700
  0.241000, -4.361200
  0.243000, -5.181800
  0.245000, -6.002200
  0.247000, -6.839400
  0.249000, -7.677800
  0.251000, -8.519700
  0.253000, -9.370000
  0.255000,-10.218900
  0.257000,-11.059200
  0.259000,-11.899400
  0.261000,-12.743600
  0.263000,-13.582200
  0.265000,-14.412300
  0.267000,-15.234200
  0.269000,-16.054600
  0.271000,-16.866000
  0.273000,-17.663600
  0.275000,-18.450400
  0.277000,-19.224700
  0.279000,-19.985000
  0.281000,-20.730100
  0.283000,-21.462200
  0.285000,-22.182000
  0.287000,-22.886100
  0.289000,-23.570800
  0.291000,-24.236800
  0.293000,-24.880900
  0.295000,-25.502800
  0.297000,-26.102900
  0.299000,-26.678200
  0.301000,-27.230300
  0.303000,-27.756300
  0.305000,-28.256100
  0.307000,-28.729000
  0.309000,-29.172600
  0.311000,-29.587800
  0.313000,-29.973300
  0.315000,-30.328400
  0.317000,-30.652800
  0.319000,-30.946300
  0.321000,-31.208100
  0.323000,-31.436300
  0.325000,-31.631600
  0.327000,-31.795400
  0.329000,-31.925100
  0.331000,-32.022000
  0.333000,-32.090000
  0.335000,-32.126400
  0.337000,-32.129700
  0.339000,-32.100900
  0.341000,-32.040800
  0.343000,-31.949700
  0.345000,-31.828700
  0.347000,-31.678800
  0.349000,-31.502100
  0.351000,-31.300300
  0.353000,-31.072600
  0.355000,-30.819700
  0.357000,-30.541400
  0.359000,-30.240600
  0.361000,-29.918800
  0.363000,-29.577600
  0.365000,-29.218300
  0.367000,-28.841500
  0.369000,-28.450100
  0.371000,-28.043800
  0.373000,-27.624100
  0.375000,-27.194200
  0.377000,-26.755900
  0.379000,-26.309400
  0.381000,-25.856100
  0.383000,-25.398500
  0.385000,-24.937800
  0.387000,-24.475400
  0.389000,-24.012400
  0.391000,-23.550100
  0.393000,-23.089900
  0.395000,-22.632800
  0.397000,-22.180800
  0.399000,-21.735300
  0.401000,-21.296800
  0.403000,-20.866900
  0.405000,-20.445800
  0.407000,-20.034000
  0.409000,-19.633400
  0.411000,-19.244900
  0.413000,-18.868300
  0.415000,-18.504900
  0.417000,-18.155500
  0.419000,-17.820000
  0.421000,-17.499500
  0.423000,-17.193200
  0.425000,-16.901300
  0.427000,-16.625000
  0.429000,-16.363400
  0.431000,-16.116500
  0.433000,-15.884500
  0.435000,-15.668100
  0.437000,-15.466700
  0.439000,-15.279500
  0.441000,-15.105800
  0.443000,-14.945200
  0.445000,-14.797000
  0.447000,-14.660800
  0.449000,-14.536100
  0.451000,-14.422800
  0.453000,-14.320100
  0.455000,-14.228100
  0.457000,-14.144800
  0.459000,-14.068900
  0.461000,-14.000800
  0.463000,-13.940500
  0.465000,-13.885900
  0.467000,-13.836700
  0.469000,-13.793300
  0.471000,-13.752900
  0.473000,-13.715500
  0.475000,-13.680600
  0.477000,-13.647600
  0.479000,-13.615300
  0.481000,-13.583200
  0.483000,-13.551500
  0.485000,-13.519300
  0.487000,-13.486500
  0.489000,-13.451500
  0.491000,-13.414000
  0.493000,-13.374100
  0.495000,-13.331600
  0.497000,-13.285800
  0.499000,-13.236500
  0.501000,-13.183700
  0.503000,-13.127000
  0.505000,-13.066100
  0.507000,-13.000900
  0.509000,-12.931600
  0.511000,-12.857900
  0.513000,-12.780100
  0.515000,-12.698100
  0.517000,-12.611800
  0.519000,-12.521200
  0.521000,-12.426600
  0.523000,-12.328500
  0.525000,-12.226800
  0.527000,-12.121300
  0.529000,-12.012100
  0.531000,-11.900000
  0.533000,-11.784600
  0.535000,-11.666300
  0.537000,-11.545600
  0.539000,-11.422100
  0.541000,-11.296400
  0.543000,-11.169200
  0.545000,-11.040500
  0.547000,-10.910100
  0.549000,-10.778400
  0.551000,-10.645700
  0.553000,-10.512300
  0.555000,-10.377800
  0.557000,-10.242900
  0.559000,-10.107900
  0.561000, -9.972400
  0.563000, -9.836500
  0.565000, -9.700500
  0.567000, -9.564300
  0.569000, -9.428400
  0.571000, -9.292600
  0.573000, -9.156700
  0.575000, -9.020900
  0.577000, -8.885500
  0.579000, -8.750200
  0.581000, -8.615100
  0.583000, -8.480200
  0.585000, -8.345300
  0.587000, -8.210600
  0.589000, -8.076000
  0.591000, -7.941300
  0.593000, -7.806900
  0.595000, -7.672500
  0.597000, -7.538000
  0.599000, -7.403500
  0.601000, -7.268400
  0.603000, -7.132800
  0.605000, -6.997100
  0.607000, -6.861200
  0.609000, -6.724800
  0.611000, -6.587700
  0.613000, -6.450600
  0.615000, -6.313400
  0.617000, -6.176000
  0.619000, -6.038300
  0.621000, -5.899100
  0.623000, -5.759600
  0.625000, -5.621000
  0.627000, -5.482100
  0.629000, -5.343800
  0.631000, -5.205300
  0.633000, -5.066600
  0.635000, -4.928200
  0.637000, -4.789600
  0.639000, -4.650400
  0.641000, -4.511300
  0.643000, -4.373200
  0.645000, -4.235900
  0.647000, -4.099200
  0.649000, -3.963300
  0.651000, -3.828100
  0.653000, -3.692700
  0.655000, -3.559400
  0.657000, -3.428800
  0.659000, -3.299800
  0.661000, -3.172400
  0.663000, -3.046300
  0.665000, -2.922400
  0.667000, -2.800300
  0.669000, -2.681200
  0.671000, -2.564500
  0.673000, -2.449500
  0.675000, -2.337800
  0.677000, -2.228800
  0.679000, -2.122800
  0.681000, -2.021100
  0.683000, -1.922900
  0.685000, -1.827500
  0.687000, -1.736400
  0.689000, -1.648700
  0.691000, -1.563700
  0.693000, -1.482900
  0.695000, -1.406600
  0.697000, -1.334000
  0.699000, -1.264800
  0.701000, -1.199600
  0.703000, -1.138500
  0.705000, -1.081400
  0.707000, -1.028500
  0.709000, -0.979600
  0.711000, -0.934300
  0.713000, -0.893000
  0.715000, -0.855800
  0.717000, -0.822200
  0.719000, -0.792800
  0.721000, -0.767200
  0.723000, -0.745200
  0.725000, -0.726400
  0.727000, -0.711400
  0.729000, -0.699500
  0.731000, -0.690500
  0.733000, -0.684700
  0.735000, -0.682100
  0.737000, -0.682700
  0.739000, -0.685900
  0.741000, -0.691300
  0.743000, -0.699800
  0.745000, -0.710500
  0.747000, -0.722700
  0.749000, -0.736900
  0.751000, -0.753300
  0.753000, -0.771600
  0.755000, -0.791100
  0.757000, -0.812600
  0.759000, -0.835600
  0.761000, -0.859000
  0.763000, -0.882700
  0.765000, -0.906900
  0.767000, -0.932000
  0.769000, -0.957900
  0.771000, -0.984300
  0.773000, -1.010500
  0.775000, -1.036300
  0.777000, -1.062600
  0.779000, -1.089100
  0.781000, -1.115300
  0.783000, -1.141100
  0.785000, -1.166700
  0.787000, -1.191800
  0.789000, -1.216400
  0.791000, -1.240000
  0.793000, -1.262700
  0.795000, -1.284300
  0.797000, -1.305100
  0.799000, -1.325000
  0.801000, -1.343900
  0.803000, -1.361600
  0.805000, -1.378300
  0.807000, -1.393900
  0.809000, -1.408700
  0.811000, -1.422300
  0.813000, -1.434300
  0.815000, -1.445100
  0.817000, -1.454600
  0.819000, -1.462900
  0.821000, -1.470000
  0.823000, -1.475900
  0.825000, -1.480600
  0.827000, -1.484200
  0.829000, -1.486300
  0.831000, -1.487400
  0.833000, -1.487400
  0.835000, -1.486400
  0.837000, -1.484100
  0.839000, -1.480500
  0.841000, -1.475800
  0.843000, -1.470300
  0.845000, -1.464000
  0.847000, -1.456600
  0.849000, -1.448100
  0.851000, -1.439100
  0.853000, -1.429200
  0.855000, -1.418700
  0.857000, -1.407500
  0.859000, -1.395300
  0.861000, -1.382400
  0.863000, -1.368700
  0.865000, -1.354700
  0.867000, -1.340300
  0.869000, -1.325200
  0.871000, -1.309500
  0.873000, -1.293200
  0.875000, -1.276400
  0.877000, -1.259000
  0.879000, -1.241400
  0.881000, -1.223800
  0.883000, -1.205900
  0.885000, -1.187400
  0.887000, -1.168600
  0.889000, -1.150200
  0.891000, -1.131400
  0.893000, -1.111800
  0.895000, -1.092100
  0.897000, -1.072400
  0.899000, -1.052200
  0.901000, -1.032000
  0.903000, -1.011600
  0.905000, -0.991400
  0.907000, -0.971200
  0.909000, -0.950300
  0.911000, -0.929700
  0.913000, -0.909400
  0.915000, -0.889100
  0.917000, -0.868700
  0.919000, -0.847900
  0.921000, -0.827200
  0.923000, -0.806500
  0.925000, -0.785900
  0.927000, -0.765000
  0.929000, -0.743800
  0.931000, -0.722900
  0.933000, -0.702500
  0.935000, -0.682100
  0.937000, -0.661300
  0.939000, -0.640600
  0.941000, -0.620000
  0.943000, -0.599600
  0.945000, -0.579400
  0.947000, -0.559400
  0.949000, -0.539200
  0.951000, -0.519400
  0.953000, -0.499600
  0.955000, -0.479900
  0.957000, -0.460700
  0.959000, -0.441800
  0.961000, -0.423200
  0.963000, -0.404900
  0.965000, -0.386900
  0.967000, -0.369400
  0.969000, -0.352100
  0.971000, -0.334900
  0.973000, -0.317900
  0.975000, -0.301400
  0.977000, -0.285400
  0.979000, -0.269900
  0.981000, -0.255000
  0.983000, -0.240700
  0.985000, -0.226700
  0.987000, -0.213000
  0.989000, -0.199700
  0.991000, -0.187000
  0.993000, -0.175000
  0.995000, -0.163800
  0.997000, -0.153200
  0.999000, -0.142900
  1.001000, -0.133000
  1.003000, -0.123800
  1.005000, -0.115300
  1.007000, -0.107300
  1.009000, -0.100000
  1.011000, -0.093400
  1.013000, -0.087300
  1.015000, -0.081800
  1.017000, -0.076800
  1.019000, -0.072500
  1.021000, -0.068700
  1.023000, -0.065500
  1.025000, -0.062800
  1.027000, -0.060600
  1.029000, -0.058900
  1.031000, -0.057800
  1.033000, -0.057400
  1.035000, -0.057300
  1.037000, -0.057700
  1.039000, -0.058600
  1.041000, -0.059900
  1.043000, -0.061700
  1.045000, -0.063900
  1.047000, -0.066400
  1.049000, -0.069200
  1.051000, -0.072500
  1.053000, -0.075900
  1.055000, -0.079400
  1.057000, -0.083500
  1.059000, -0.087800
  1.061000, -0.092300
  1.063000, -0.096900
  1.065000, -0.101600
  1.067000, -0.106400
  1.069000, -0.111500
  1.071000, -0.116800
  1.073000, -0.122100
  1.075000, -0.127700
  1.077000, -0.133200
  1.079000, -0.138500
  1.081000, -0.144000
  1.083000, -0.149700
  1.085000, -0.155500
  1.087000, -0.161200
  1.089000, -0.166900
  1.091000, -0.172400
  1.093000, -0.178100
  1.095000, -0.183800
  1.097000, -0.189100
  1.099000, -0.194400
  1.101000, -0.199700
  1.103000, -0.205000
  1.105000, -0.210300
  1.107000, -0.215700
  1.109000, -0.220900
  1.111000, -0.225900
  1.113000, -0.230700
  1.115000, -0.235500
  1.117000, -0.240100
  1.119000, -0.244800
  1.121000, -0.249100
  1.123000, -0.253400
  1.125000, -0.257600
  1.127000, -0.261500
  1.129000, -0.265200
  1.131000, -0.268500
  1.133000, -0.271800
  1.135000, -0.275200
  1.137000, -0.278400
  1.139000, -0.281300
  1.141000, -0.284100
  1.143000, -0.286500
  1.145000, -0.288700
  1.147000, -0.290900
  1.149000, -0.293000
  1.151000, -0.294700
  1.153000, -0.296200
  1.155000, -0.297500
  1.157000, -0.298600
  1.159000, -0.299400
  1.161000, -0.300100
  1.163000, -0.300400
  1.165000, -0.300400
  1.167000, -0.300100
  1.169000, -0.299600
  1.171000, -0.299000
  1.173000, -0.298100
  1.175000, -0.297000
  1.177000, -0.295500
  1.179000, -0.293700
  1.181000, -0.291600
  1.183000, -0.289300
  1.185000, -0.286700
  1.187000, -0.283900
  1.189000, -0.280700
  1.191000, -0.277100
  1.193000, -0.273500
  1.195000, -0.269700
  1.197000, -0.265600
  1.199000, -0.261400
  1.201000, -0.256800
  1.203000, -0.252000
  1.205000, -0.246800
  1.207000, -0.241500
  1.209000, -0.235900
  1.211000, -0.230200
  1.213000, -0.224200
  1.215000, -0.218100
  1.217000, -0.211600
  1.219000, -0.205200
  1.221000, -0.198700
  1.223000, -0.191900
  1.225000, -0.185100
  1.227000, -0.178100
  1.229000, -0.171000
  1.231000, -0.163800
  1.233000, -0.156700
  1.235000, -0.149500
  1.237000, -0.142300
  1.239000, -0.135100
  1.241000, -0.127900
  1.243000, -0.120700
  1.245000, -0.113300
  1.247000, -0.105800
  1.249000, -0.098400
  1.251000, -0.091200
  1.253000, -0.084000
  1.255000, -0.076800
  1.257000, -0.069800
  1.259000, -0.062800
  1.261000, -0.055800
  1.263000, -0.049100
  1.265000, -0.042500
  1.267000, -0.036000
  1.269000, -0.029700
  1.271000, -0.023300
  1.273000, -0.017100
  1.275000, -0.011100
  1.277000, -0.005200
  1.279000,  0.000700
  1.281000,  0.006400
  1.283000,  0.011700
  1.285000,  0.017000
  1.287000,  0.022100
  1.289000,  0.027000
  1.291000,  0.031700
  1.293000,  0.036400
  1.295000,  0.040900
  1.297000,  0.045300
  1.299000,  0.049500
  1.301000,  0.053600
  1.303000,  0.057200
  1.305000,  0.060600
  1.307000,  0.064000
  1.309000,  0.067300
  1.311000,  0.070600
  1.313000,  0.073900
  1.315000,  0.077000
  1.317000,  0.079900
  1.319000,  0.082800
  1.321000,  0.085500
  1.323000,  0.088000
  1.325000,  0.090500
  1.327000,  0.092800
  1.329000,  0.095100
  1.331000,  0.097500
  1.333000,  0.099600
  1.335000,  0.101300
  1.337000,  0.103100
  1.339000,  0.105000
  1.341000,  0.106800
  1.343000,  0.108300
  1.345000,  0.109800
  1.347000,  0.111100
  1.349000,  0.112500
  1.351000,  0.113800
  1.353000,  0.114900
  1.355000,  0.115900
  1.357000,  0.116500
  1.359000,  0.117100
  1.361000,  0.117800
  1.363000,  0.118400
  1.365000,  0.119100
  1.367000,  0.119800
  1.369000,  0.120200
  1.371000,  0.120400
  1.373000,  0.120400
  1.375000,  0.120200
  1.377000,  0.120100
  1.379000,  0.119800
  1.381000,  0.119400
  1.383000,  0.118900
  1.385000,  0.118300
  1.387000,  0.117400
  1.389000,  0.116200
  1.391000,  0.114400
  1.393000,  0.112300
  1.395000,  0.110000
  1.397000,  0.107500
  1.399000,  0.104700
