# z (nm)   (kJ/mol)
  0.0820  271.54300
  0.0840  268.15925
  0.0860  265.15565
  0.0880  261.96994
  0.0900  259.05478
  0.0920  256.25232
  0.0940  253.37363
  0.0960  250.43128
  0.0980  247.47535
  0.1000  244.48774
  0.1020  241.42997
  0.1040  238.31441
  0.1060  235.12923
  0.1080  231.85539
  0.1100  228.48774
  0.1120  225.01907
  0.1140  221.44564
  0.1160  217.77628
  0.1180  214.00272
  0.1200  210.15725
  0.1220  206.24992
  0.1240  202.29749
  0.1260  198.32203
  0.1280  194.33373
  0.1300  190.33771
  0.1320  186.34008
  0.1340  182.34263
  0.1360  178.35022
  0.1380  174.37102
  0.1400  170.41840
  0.1420  166.50123
  0.1440  162.64052
  0.1460  158.83751
  0.1480  155.10190
  0.1500  151.43558
  0.1520  147.84612
  0.1540  144.33191
  0.1560  140.89440
  0.1580  137.53337
  0.1600  134.23835
  0.1620  131.00853
  0.1640  127.83349
  0.1660  124.70427
  0.1680  121.61507
  0.1700  118.56089
  0.1720  115.53507
  0.1740  112.55297
  0.1760  109.61240
  0.1780  106.71011
  0.1800  103.85340
  0.1820  101.02586
  0.1840   98.22863
  0.1860   95.44871
  0.1880   92.68981
  0.1900   89.94674
  0.1920   87.22242
  0.1940   84.52999
  0.1960   81.88330
  0.1980   79.29116
  0.2000   76.76460
  0.2020   74.29887
  0.2040   71.89764
  0.2060   69.54182
  0.2080   67.22587
  0.2100   64.94153
  0.2120   62.68053
  0.2140   60.43090
  0.2160   58.20277
  0.2180   56.00378
  0.2200   53.83546
  0.2220   51.71453
  0.2240   49.65144
  0.2260   47.65307
  0.2280   45.72447
  0.2300   43.86753
  0.2320   42.07193
  0.2340   40.33051
  0.2360   38.63349
  0.2380   36.97163
  0.2400   35.34414
  0.2420   33.75040
  0.2440   32.19739
  0.2460   30.68483
  0.2480   29.22199
  0.2500   27.80635
  0.2520   26.44444
  0.2540   25.12425
  0.2560   23.85040
  0.2580   22.61503
  0.2600   21.41001
  0.2620   20.24543
  0.2640   19.11626
  0.2660   18.03452
  0.2680   16.99068
  0.2700   15.97797
  0.2720   15.01736
  0.2740   14.09885
  0.2760   13.21934
  0.2780   12.37887
  0.2800   11.57284
  0.2820   10.81179
  0.2840   10.07173
  0.2860    9.37322
  0.2880    8.70769
  0.2900    8.07769
  0.2920    7.47807
  0.2940    6.91215
  0.2960    6.37747
  0.2980    5.88035
  0.3000    5.41959
  0.3020    4.99327
  0.3040    4.61166
  0.3060    4.26386
  0.3080    3.95035
  0.3100    3.66836
  0.3120    3.41707
  0.3140    3.18643
  0.3160    2.97470
  0.3180    2.78203
  0.3200    2.60931
  0.3220    2.46280
  0.3240    2.34470
  0.3260    2.25062
  0.3280    2.17950
  0.3300    2.12492
  0.3320    2.09367
  0.3340    2.08241
  0.3360    2.08069
  0.3380    2.08765
  0.3400    2.09923
  0.3420    2.10428
  0.3440    2.09833
  0.3460    2.08510
  0.3480    2.06450
  0.3500    2.03831
  0.3520    2.00590
  0.3540    1.96874
  0.3560    1.92967
  0.3580    1.88282
  0.3600    1.82733
  0.3620    1.75789
  0.3640    1.67445
  0.3660    1.56632
  0.3680    1.44493
  0.3700    1.29414
  0.3720    1.13242
  0.3740    0.94492
  0.3760    0.73890
  0.3780    0.52215
  0.3800    0.29818
  0.3820    0.06498
  0.3840   -0.16987
  0.3860   -0.40676
  0.3880   -0.63414
  0.3900   -0.88008
  0.3920   -1.11946
  0.3940   -1.36314
  0.3960   -1.60973
  0.3980   -1.86225
  0.4000   -2.10722
  0.4020   -2.34294
  0.4040   -2.55184
  0.4060   -2.73921
  0.4080   -2.90024
  0.4100   -3.03310
  0.4120   -3.13925
  0.4140   -3.22409
  0.4160   -3.28804
  0.4180   -3.34651
  0.4200   -3.40222
  0.4220   -3.46432
  0.4240   -3.53503
  0.4260   -3.61605
  0.4280   -3.70000
  0.4300   -3.77729
  0.4320   -3.84913
  0.4340   -3.90306
  0.4360   -3.93134
  0.4380   -3.93647
  0.4400   -3.90283
  0.4420   -3.83926
  0.4440   -3.76183
  0.4460   -3.66282
  0.4480   -3.55249
  0.4500   -3.44472
  0.4520   -3.33583
  0.4540   -3.23427
  0.4560   -3.13728
  0.4580   -3.05707
  0.4600   -2.98732
  0.4620   -2.92230
  0.4640   -2.84936
  0.4660   -2.76739
  0.4680   -2.67075
  0.4700   -2.56426
  0.4720   -2.44355
  0.4740   -2.30707
  0.4760   -2.15798
  0.4780   -1.99924
  0.4800   -1.83906
  0.4820   -1.67153
  0.4840   -1.50280
  0.4860   -1.33583
  0.4880   -1.18434
  0.4900   -1.03499
  0.4920   -0.89923
  0.4940   -0.77397
  0.4960   -0.64956
  0.4980   -0.53316
  0.5000   -0.41901
  0.5020   -0.30048
  0.5040   -0.18835
  0.5060   -0.08348
  0.5080    0.00843
  0.5100    0.09325
  0.5120    0.16949
  0.5140    0.23162
  0.5160    0.27785
  0.5180    0.31229
  0.5200    0.33658
  0.5220    0.34442
  0.5240    0.34615
  0.5260    0.34226
  0.5280    0.33246
  0.5300    0.32504
  0.5320    0.30967
  0.5340    0.29751
  0.5360    0.27990
  0.5380    0.26120
  0.5400    0.23672
  0.5420    0.20741
  0.5440    0.18059
  0.5460    0.14727
  0.5480    0.10108
  0.5500    0.05322
  0.5520    0.00112
  0.5540   -0.05910
  0.5560   -0.11722
  0.5580   -0.18118
  0.5600   -0.24769
  0.5620   -0.31439
  0.5640   -0.37342
  0.5660   -0.42613
  0.5680   -0.47088
  0.5700   -0.50235
  0.5720   -0.53124
  0.5740   -0.54757
  0.5760   -0.56174
  0.5780   -0.56930
  0.5800   -0.57586
  0.5820   -0.58315
  0.5840   -0.59301
  0.5860   -0.60822
  0.5880   -0.62393
  0.5900   -0.64250
  0.5920   -0.66807
  0.5940   -0.69123
  0.5960   -0.72046
  0.5980   -0.75365
  0.6000   -0.78678
  0.6020   -0.82156
  0.6040   -0.85434
  0.6060   -0.88322
  0.6080   -0.90677
  0.6100   -0.92170
  0.6120   -0.92895
  0.6140   -0.92970
  0.6160   -0.91784
  0.6180   -0.90161
  0.6200   -0.88112
  0.6220   -0.85772
  0.6240   -0.84057
  0.6260   -0.82511
  0.6280   -0.81361
  0.6300   -0.79997
  0.6320   -0.78548
  0.6340   -0.77535
  0.6360   -0.76339
  0.6380   -0.74876
  0.6400   -0.73691
  0.6420   -0.72095
  0.6440   -0.69921
  0.6460   -0.67225
  0.6480   -0.64909
  0.6500   -0.63085
  0.6520   -0.60884
  0.6540   -0.58079
  0.6560   -0.56034
  0.6580   -0.53932
  0.6600   -0.51518
  0.6620   -0.49819
  0.6640   -0.47691
  0.6660   -0.46356
  0.6680   -0.44420
  0.6700   -0.43089
  0.6720   -0.41729
  0.6740   -0.40834
  0.6760   -0.39738
  0.6780   -0.39657
  0.6800   -0.39878
  0.6820   -0.40792
  0.6840   -0.41523
  0.6860   -0.42590
  0.6880   -0.43620
  0.6900   -0.44717
  0.6920   -0.45104
  0.6940   -0.45580
  0.6960   -0.46661
  0.6980   -0.47016
  0.7000   -0.48161
  0.7020   -0.48867
  0.7040   -0.49807
  0.7060   -0.50361
  0.7080   -0.51285
  0.7100   -0.51813
  0.7120   -0.51846
  0.7140   -0.53275
  0.7160   -0.53123
  0.7180   -0.53214
  0.7200   -0.52739
  0.7220   -0.52061
  0.7240   -0.50945
  0.7260   -0.50245
  0.7280   -0.49727
  0.7300   -0.49317
  0.7320   -0.49101
  0.7340   -0.48907
  0.7360   -0.50021
  0.7380   -0.51252
  0.7400   -0.52970
  0.7420   -0.54719
  0.7440   -0.56479
  0.7460   -0.58433
  0.7480   -0.60342
  0.7500   -0.61436
  0.7520   -0.62083
  0.7540   -0.60962
  0.7560   -0.59533
  0.7580   -0.56810
  0.7600   -0.53559
  0.7620   -0.49783
  0.7640   -0.45772
  0.7660   -0.41292
  0.7680   -0.37065
  0.7700   -0.33161
  0.7720   -0.30217
  0.7740   -0.28412
  0.7760   -0.27996
  0.7780   -0.28289
  0.7800   -0.30016
  0.7820   -0.32055
  0.7840   -0.34867
  0.7860   -0.37574
  0.7880   -0.39650
  0.7900   -0.41467
  0.7920   -0.42413
  0.7940   -0.42942
  0.7960   -0.42428
  0.7980   -0.41499
  0.8000   -0.39710
  0.8020   -0.37691
  0.8040   -0.35409
  0.8060   -0.32821
  0.8080   -0.30021
  0.8100   -0.27538
  0.8120   -0.25763
  0.8140   -0.24012
  0.8160   -0.22514
  0.8180   -0.21263
  0.8200   -0.20525
  0.8220   -0.20204
  0.8240   -0.20379
  0.8260   -0.20380
  0.8280   -0.20382
  0.8300   -0.20402
  0.8320   -0.20450
  0.8340   -0.21056
  0.8360   -0.21696
  0.8380   -0.22325
  0.8400   -0.22725
  0.8420   -0.22460
  0.8440   -0.22246
  0.8460   -0.22213
  0.8480   -0.22055
  0.8500   -0.21463
  0.8520   -0.20211
  0.8540   -0.18086
  0.8560   -0.15212
  0.8580   -0.12501
  0.8600   -0.09840
  0.8620   -0.07710
  0.8640   -0.05110
  0.8660   -0.03910
  0.8680   -0.03262
  0.8700   -0.03237
  0.8720   -0.03262
  0.8740   -0.04412
  0.8760   -0.04961
  0.8780   -0.05412
  0.8800   -0.07029
  0.8820   -0.07894
  0.8840   -0.08449
  0.8860   -0.08981
  0.8880   -0.08992
  0.8900   -0.08673
  0.8920   -0.08182
  0.8940   -0.07230
  0.8960   -0.05588
  0.8980   -0.03939
  0.9000   -0.02182
  0.9020   -0.00174
  0.9040    0.02474
  0.9060    0.04147
  0.9080    0.05722
  0.9100    0.06725
  0.9120    0.07670
  0.9140    0.07785
  0.9160    0.06745
  0.9180    0.05033
  0.9200    0.03482
  0.9220    0.01675
  0.9240    0.00014
  0.9260   -0.00917
  0.9280   -0.01574
  0.9300   -0.01642
  0.9320   -0.01173
  0.9340   -0.00545
  0.9360    0.00141
  0.9380    0.01656
  0.9400    0.03025
  0.9420    0.04215
  0.9440    0.04813
  0.9460    0.05034
  0.9480    0.04185
  0.9500    0.03163
  0.9520    0.01089
  0.9540   -0.00312
  0.9560   -0.02207
  0.9580   -0.04409
  0.9600   -0.05187
  0.9620   -0.06145
  0.9640   -0.06469
  0.9660   -0.06564
  0.9680   -0.05499
  0.9700   -0.04378
  0.9720   -0.02709
  0.9740   -0.00319
  0.9760    0.01909
  0.9780    0.02915
  0.9800    0.04183
  0.9820    0.04365
  0.9840    0.04060
  0.9860    0.02430
  0.9880   -0.00286
  0.9900   -0.02957
  0.9920   -0.05617
  0.9940   -0.07927
  0.9960   -0.09406
  0.9980   -0.10760
  1.0000   -0.11479
